sync_time,timestamp_ms,device_id,ax,ay,az,gx,gy,gz
0.003198862075805664,-1267570175,0,0.9378538727760315,0.002865273505449295,0.1542341411113739,-9.521484375,-15.80810546875,-4.21142578125
0.006882905960083008,-1267570176,1,-0.1758992075920105,0.4489533007144928,0.7850360870361328,2.685546875,-15.44189453125,6.7138671875
0.04180002212524414,-1267570156,0,0.9227171540260315,-0.001773398369550705,0.1300642192363739,-10.92529296875,-22.52197265625,-5.06591796875
0.041806936264038086,-1267570137,0,0.9139280915260315,-0.006900351494550705,0.1063825860619545,-15.2587890625,-21.3623046875,-5.55419921875
0.04420113563537598,-1267570157,1,-0.1680867075920105,0.4511505663394928,0.7818622589111328,2.62451171875,-20.1416015625,6.4697265625
0.04420804977416992,-1267570138,1,-0.1646687388420105,0.4574982225894928,0.7918720245361328,3.60107421875,-21.78955078125,0.732421875
0.05965614318847656,-1267570118,0,0.9854612946510315,-0.043277304619550705,0.1310407817363739,-20.8740234375,-22.4609375,-12.939453125
0.0667409896850586,-1267570119,1,-0.1766316294670105,0.4723908007144928,0.8289813995361328,11.65771484375,-26.30615234375,-6.53076171875
0.06682682037353516,-1267570100,1,-0.1856648325920105,0.5160920023918152,0.8555927276611328,14.892578125,-29.23583984375,-11.8408203125
0.09579300880432129,-1267570099,0,1.0062133073806763,0.033138711005449295,0.1039411798119545,-28.86962890625,-24.23095703125,-19.10400390625
0.09580087661743164,-1267570080,0,1.0338011980056763,0.014095742255449295,0.1354353129863739,-41.1376953125,-25.32958984375,-13.916015625
0.09647703170776367,-1267570081,1,-0.2095906138420105,0.5317170023918152,0.8365497589111328,17.2119140625,-42.05322265625,-17.578125
0.1193850040435791,-1267570061,0,0.9871702790260315,0.017269570380449295,0.1574079692363739,-50.6591796875,-26.611328125,-5.31005859375
0.12650585174560547,-1267570062,1,-0.1776081919670105,0.5080353617668152,0.7843036651611328,13.61083984375,-51.025390625,-25.93994140625
0.12657594680786133,-1267570043,1,-0.1544148325920105,0.4819122850894928,0.7274188995361328,23.98681640625,-56.7626953125,-27.89306640625
0.1506330966949463,-1267570042,0,0.8980589509010315,0.013119179755449295,0.1195661798119545,-52.18505859375,-37.53662109375,-13.0615234375
0.19063806533813477,-1267570006,0,0.9246702790260315,0.068539097905159,0.1193220391869545,-68.7255859375,-37.7197265625,-40.10009765625
0.19172191619873047,-1267569987,0,0.9691038727760315,0.062923863530159,0.1383650004863739,-77.63671875,-42.236328125,-40.4052734375
0.19544696807861328,-1267570007,1,-0.1666218638420105,0.5219513773918152,0.7464618682861328,49.072265625,-58.04443359375,-36.62109375
0.19545412063598633,-1267569988,1,-0.1856648325920105,0.5263459086418152,0.7667255401611328,50.23193359375,-68.66455078125,-40.46630859375
0.20927190780639648,-1267569968,0,0.9388304352760315,0.037533242255449295,0.1212751641869545,-87.58544921875,-46.44775390625,-38.39111328125
0.21820497512817383,-1267569969,1,-0.1583210825920105,0.5173127055168152,0.7589130401611328,48.828125,-82.94677734375,-46.38671875
0.21832895278930664,-1267569950,1,-0.0887410044670105,0.5033966898918152,0.7447528839111328,53.22265625,-93.8720703125,-62.92724609375
0.24924683570861816,-1267569949,0,0.8790159821510315,0.007748086005449295,0.0575544610619545,-106.14013671875,-45.83740234375,-41.259765625
0.24925708770751953,-1267569930,0,0.9185667634010315,0.079037144780159,0.0011579766869544983,-121.09375,-45.34912109375,-48.27880859375
0.2497692108154297,-1267569931,1,-0.019893351942300797,0.5480744242668152,0.7652606964111328,62.8662109375,-98.388671875,-71.10595703125
0.2706940174102783,-1267569911,0,0.9732542634010315,0.122738316655159,-0.0874650701880455,-121.337890625,-47.2412109375,-50.59814453125
0.29250192642211914,-1267569912,1,0.0748332142829895,0.6081330180168152,0.8336200714111328,66.83349609375,-99.7314453125,-64.75830078125
0.2925100326538086,-1267569893,1,0.0914347767829895,0.6252228617668152,0.8761005401611328,60.72998046875,-97.35107421875,-56.396484375
0.3008737564086914,-1267569892,0,1.0357543230056763,0.136898472905159,-0.1299455463886261,-108.154296875,-54.6875,-46.630859375
0.3010380268096924,-1267569873,0,1.1033812761306763,0.095882847905159,-0.0906388983130455,-101.5625,-62.19482421875,-36.68212890625
0.30835700035095215,-1267569874,1,0.034305866807699203,0.6313263773918152,0.9332294464111328,50.048828125,-100.40283203125,-57.43408203125
0.3411400318145752,-1267569854,0,1.1338988542556763,0.071224644780159,-0.1072404608130455,-114.013671875,-76.11083984375,-17.51708984375
0.34114694595336914,-1267569835,0,1.1536742448806763,0.035580117255449295,-0.1680314838886261,-127.01416015625,-79.65087890625,-2.38037109375
0.34500813484191895,-1267569855,1,0.033329304307699203,0.6342560648918152,0.9644794464111328,36.376953125,-121.7041015625,-59.14306640625
0.3450138568878174,-1267569836,1,0.1280558705329895,0.6469513773918152,1.0179462432861328,23.49853515625,-139.09912109375,-69.4580078125
0.3617279529571533,-1267569816,0,1.1436644792556763,0.023128945380449295,-0.3325822651386261,-139.892578125,-74.52392578125,10.986328125
0.36835694313049316,-1267569817,1,0.2323039174079895,0.6733185648918152,1.0885028839111328,18.310546875,-140.93017578125,-80.38330078125
0.3962268829345703,-1267569797,0,1.1234008073806763,0.015072304755449295,-0.4868791401386261,-146.3623046875,-45.59326171875,14.58740234375
0.39623498916625977,-1267569778,0,1.0562621355056763,-0.010318320244550705,-0.5347306728363037,-151.06201171875,3.72314453125,17.39501953125
0.3967299461364746,-1267569798,1,0.3275187611579895,0.6928498148918152,1.1317157745361328,14.6484375,-120.66650390625,-99.7314453125
0.39673686027526855,-1267569779,1,0.3441203236579895,0.6872345805168152,1.1368427276611328,7.99560546875,-81.787109375,-128.23486328125
0.42583394050598145,-1267569743,1,0.1334269642829895,0.5927521586418152,1.0379657745361328,25.87890625,-4.45556640625,-197.20458984375
0.44927501678466797,-1267569742,0,1.0057250261306763,-0.117251917719841,-0.3201310932636261,-169.37255859375,103.69873046875,9.765625
0.44942712783813477,-1267569723,0,0.9642210602760315,-0.057437460869550705,-0.2088029682636261,-187.255859375,176.025390625,-9.033203125
0.45653486251831055,-1267569724,1,0.054569538682699203,0.5954377055168152,0.9447040557861328,44.7998046875,30.82275390625,-227.5390625
0.5084388256072998,-1267569704,0,0.9522581696510315,0.019466836005449295,-0.0440080389380455,-193.05419921875,228.515625,-21.54541015625
0.5092940330505371,-1267569685,0,0.9361448884010315,0.122250035405159,0.1281110942363739,-181.33544921875,266.357421875,-30.45654296875
0.5094051361083984,-1267569666,0,1.2476683855056763,0.186947301030159,0.4342634379863739,-156.005859375,293.8232421875,-30.09033203125
0.51715087890625,-1267569705,1,-0.0679890513420105,0.5971466898918152,0.9315204620361328,67.87109375,61.279296875,-238.70849609375
0.5171768665313721,-1267569686,1,-0.1068074107170105,0.6398712992668152,0.8377704620361328,72.021484375,90.33203125,-246.03271484375
0.5172719955444336,-1267569667,1,-0.3555867075920105,0.7682892680168152,0.8026142120361328,64.02587890625,125.54931640625,-251.708984375
0.5179610252380371,-1267569648,1,-0.9464070200920105,0.8605744242668152,0.8509540557861328,53.7109375,120.54443359375,-255.0048828125
0.5466399192810059,-1267569647,0,0.9002562165260315,0.3165859878063202,0.5563337802886963,-131.8359375,286.2548828125,-7.75146484375
0.5466489791870117,-1267569628,0,1.1280394792556763,0.6632656455039978,0.2357771098613739,56.09130859375,40.71044921875,6.77490234375
0.5471341609954834,-1267569629,1,-0.9246785044670105,1.3100372552871704,0.7601337432861328,-2.38037109375,18.00537109375,-173.52294921875
0.5691909790039062,-1267569609,0,1.5445433855056763,0.9699062705039978,0.8571150302886963,173.4619140625,-159.3017578125,40.52734375
0.576524019241333,-1267569610,1,0.7559855580329895,1.0387970209121704,0.9864521026611328,-35.82763671875,24.2919921875,-105.5908203125
0.5766029357910156,-1267569591,1,-0.5308796763420105,0.5615021586418152,0.9466571807861328,-9.82666015625,129.82177734375,-104.30908203125
0.599308967590332,-1267569590,0,-0.032605092972517014,0.019955117255449295,0.9171736240386963,98.7548828125,-104.18701171875,54.74853515625
0.5994319915771484,-1267569571,0,0.6487913727760315,-0.029605429619550705,0.9660017490386963,60.546875,-31.92138671875,-56.396484375
0.6068379878997803,-1267569572,1,-0.7842976450920105,0.7304474711418152,0.8248310089111328,-98.44970703125,131.7138671875,-113.70849609375
0.6402578353881836,-1267569552,0,0.8423948884010315,0.3453945815563202,0.5746443271636963,-33.935546875,70.556640625,-71.22802734375
0.6435360908508301,-1267569553,1,-0.5499226450920105,0.2668243944644928,0.5958271026611328,-113.34228515625,113.70849609375,-171.56982421875
0.643543004989624,-1267569534,1,-0.7427937388420105,0.6342560648918152,-0.09045218676328659,-128.0517578125,104.248046875,-191.34521484375
0.6592869758605957,-1267569533,0,1.2379027605056763,-0.7866855263710022,0.0795271173119545,-101.9287109375,44.37255859375,-76.904296875
0.6593818664550781,-1267569514,0,1.0772582292556763,0.4108242690563202,0.2831403911113739,-97.5341796875,31.79931640625,-53.8330078125
0.6667909622192383,-1267569515,1,-0.8196980357170105,0.3090607225894928,0.3848896026611328,-156.25,77.08740234375,-206.54296875
0.695375919342041,-1267569478,0,1.0308715105056763,0.4379238784313202,0.2106306254863739,-106.5673828125,62.01171875,-20.751953125
0.6964049339294434,-1267569479,1,-0.9332234263420105,0.8681427836418152,-0.0008525773882865906,-61.767578125,-65.24658203125,-280.1513671875
0.7194929122924805,-1267569459,0,1.0728636980056763,0.138851597905159,0.1847517192363739,-65.0634765625,47.119140625,37.65869140625
0.7265229225158691,-1267569460,1,-1.0020711421966553,-0.2231658399105072,0.12317086011171341,-22.3388671875,-153.076171875,-238.83056640625
0.726600170135498,-1267569441,1,-1.0946004390716553,-0.5168669819831848,0.1951923370361328,-49.4384765625,-257.9345703125,-46.630859375
0.7500059604644775,-1267569440,0,1.0853148698806763,0.3825039565563202,0.1002790704369545,-35.70556640625,93.81103515625,-0.9765625
0.750014066696167,-1267569421,0,1.0230590105056763,0.5326504111289978,0.1583845317363739,-64.8193359375,123.779296875,-66.0400390625
0.7564940452575684,-1267569422,1,-0.9222370982170105,-0.5127165913581848,0.4700946807861328,-87.40234375,-261.71875,36.07177734375
0.7904269695281982,-1267569402,0,0.8289671540260315,0.3590664565563202,0.2184431254863739,-101.98974609375,128.7841796875,-105.65185546875
0.793903112411499,-1267569403,1,-0.6837117075920105,-0.3972381055355072,0.6392841339111328,-35.7666015625,-145.81298828125,62.744140625
0.793917179107666,-1267569384,1,-0.8016316294670105,-0.031515445560216904,0.6439228057861328,6.28662109375,-120.05615234375,150.20751953125
0.8092892169952393,-1267569383,0,0.8697386384010315,0.171078160405159,0.3805525004863739,-97.47314453125,70.49560546875,-117.67578125
0.8094339370727539,-1267569364,0,0.8045530915260315,0.232845738530159,0.3168317973613739,-45.0439453125,26.9775390625,-92.28515625
0.8165240287780762,-1267569365,1,-0.6387898325920105,0.0019318200647830963,0.7115497589111328,35.46142578125,-128.23486328125,182.6171875
0.848067045211792,-1267569345,0,1.0201293230056763,0.3119473159313202,0.4559919536113739,-6.65283203125,40.58837890625,-79.7119140625
0.8482129573822021,-1267569326,0,1.0596801042556763,0.4047207534313202,0.4711286723613739,-8.97216796875,65.00244140625,-62.5
0.848668098449707,-1267569346,1,-0.6426960825920105,-0.055929508060216904,0.8048114776611328,39.73388671875,-160.64453125,170.71533203125
0.8486738204956055,-1267569327,1,-0.5313679575920105,-0.007589664310216904,0.8814716339111328,18.73779296875,-141.78466796875,171.32568359375
0.8690979480743408,-1267569307,0,0.8934202790260315,0.4606289565563202,0.5607283115386963,-35.82763671875,95.0927734375,-40.6494140625
0.8764278888702393,-1267569308,1,-0.5015828013420105,0.0720001757144928,0.9281024932861328,-11.04736328125,-90.6982421875,171.81396484375
0.8992969989776611,-1267569288,0,0.7403441071510315,0.099300816655159,0.6298201084136963,-30.94482421875,101.74560546875,-43.5791015625
0.8993818759918213,-1267569269,0,0.5694456696510315,0.3400234878063202,0.6989119052886963,-1.03759765625,85.02197265625,-67.93212890625
0.9065849781036377,-1267569289,1,-0.4747273325920105,0.1528107225894928,0.8912372589111328,-18.12744140625,-66.71142578125,159.36279296875
0.9066641330718994,-1267569270,1,-0.4493367075920105,0.1657501757144928,0.8983173370361328,-18.06640625,-75.927734375,154.96826171875
0.9407379627227783,-1267569250,0,0.5191527009010315,0.5990566611289978,0.8224470615386963,11.77978515625,32.71484375,-80.74951171875
0.9440879821777344,-1267569251,1,-0.2752644419670105,0.1384064257144928,1.0123310089111328,-25.45166015625,-65.673828125,161.9873046875
0.9593791961669922,-1267569214,0,0.6473265290260315,0.4464688003063202,0.6630232334136963,8.97216796875,14.0380859375,-69.39697265625
0.967275857925415,-1267569215,1,-0.0626179575920105,0.1691681444644928,1.0074481964111328,-24.47509765625,-18.98193359375,167.236328125
0.9952280521392822,-1267569195,0,0.5826292634010315,0.4618496596813202,0.7133162021636963,9.58251953125,10.1318359375,-70.4345703125
0.9952380657196045,-1267569176,0,0.5796995759010315,0.4603848159313202,0.7894880771636963,1.220703125,10.1318359375,-62.92724609375
0.9966409206390381,-1267569196,1,-0.039912883192300797,0.1581818163394928,1.0216083526611328,-28.50341796875,-3.7841796875,170.47119140625
0.996757984161377,-1267569177,1,-0.008418742567300797,0.1413361132144928,1.0548114776611328,-49.072265625,4.7607421875,165.46630859375
1.0193471908569336,-1267569157,0,0.5250120759010315,0.4428066909313202,0.8473494052886963,-4.8828125,17.2119140625,-51.025390625
1.0267629623413086,-1267569158,1,0.0721476674079895,-0.022238101810216904,1.2152118682861328,-68.66455078125,12.939453125,156.43310546875
1.049211025238037,-1267569138,0,0.4532347619533539,0.4100918471813202,0.8327009677886963,10.92529296875,9.521484375,-32.2265625
1.04941987991333,-1267569119,0,0.4073363244533539,0.4352383315563202,0.8327009677886963,25.57373046875,-5.9814453125,-20.5078125
1.0566818714141846,-1267569139,1,0.054081257432699203,-0.1291716992855072,1.1778583526611328,-49.072265625,42.6025390625,137.3291015625
1.0568249225616455,-1267569120,1,0.052372273057699203,0.0754181444644928,1.0621356964111328,-27.4658203125,56.2744140625,130.37109375
1.0912418365478516,-1267569100,0,0.3162718713283539,0.5421718955039978,0.9100935459136963,27.2216796875,-35.58349609375,-7.8125
1.095167875289917,-1267569101,1,0.1141398549079895,0.2724396288394928,1.0963153839111328,-17.7001953125,33.50830078125,135.986328125
1.0951759815216064,-1267569082,1,0.2345011830329895,0.3793732225894928,1.0152606964111328,-61.09619140625,12.02392578125,109.0087890625
1.1091890335083008,-1267569081,0,0.3870726525783539,0.5399746298789978,0.9240095615386963,8.4228515625,-66.89453125,13.00048828125
1.1093108654022217,-1267569062,0,0.4942503869533539,0.4528164565563202,1.0011579990386963,-32.71484375,-66.95556640625,49.37744140625
1.1164038181304932,-1267569063,1,0.2056925892829895,0.1435333788394928,0.9053974151611328,-80.74951171875,18.85986328125,82.21435546875
1.1477978229522705,-1267569043,0,0.5667601227760315,0.3512539565563202,0.9957869052886963,-23.98681640625,-78.369140625,92.7734375
1.1478619575500488,-1267569024,0,0.6675902009010315,0.3866543471813202,0.9523298740386963,5.4931640625,-120.78857421875,106.62841796875
1.1482679843902588,-1267569044,1,0.2305949330329895,0.009256038814783096,1.0152606964111328,-72.509765625,44.43359375,56.82373046875
1.14827299118042,-1267569025,1,0.0958293080329895,0.033181820064783096,0.9693622589111328,-46.93603515625,68.42041015625,27.2216796875
1.1690640449523926,-1267569005,0,0.8638792634010315,0.4147305190563202,0.7550642490386963,17.2119140625,-125.18310546875,118.896484375
1.1766629219055176,-1267569006,1,0.0069621168076992035,0.030984554439783096,0.9417743682861328,-22.705078125,50.59814453125,24.0478515625
1.1992778778076172,-1267568986,0,0.8570433259010315,0.2994961440563202,0.6542341709136963,33.3251953125,-99.06005859375,139.46533203125
1.2068898677825928,-1267568987,1,0.021366413682699203,0.0749298632144928,0.8851337432861328,0.54931640625,47.30224609375,20.93505859375
1.2430927753448486,-1267568950,0,0.6558714509010315,0.236507847905159,0.6696150302886963,84.04541015625,-52.42919921875,92.28515625
1.2455241680145264,-1267568951,1,-0.032832805067300797,0.1835724413394928,0.8726825714111328,36.2548828125,71.22802734375,7.568359375
1.2455298900604248,-1267568932,1,-0.0970417857170105,0.2856232225894928,0.8538837432861328,35.15625,89.84375,5.0048828125
1.2601499557495117,-1267568931,0,0.8123655915260315,0.2963223159313202,0.4232771098613739,93.68896484375,-70.80078125,43.02978515625
1.260206937789917,-1267568912,0,1.0528441667556763,0.4410977065563202,0.2623884379863739,86.42578125,-49.8046875,20.263671875
1.2707030773162842,-1267568913,1,-0.1927449107170105,0.2853790819644928,0.8302021026611328,19.83642578125,83.3740234375,12.6953125
1.2965281009674072,-1267568893,0,1.0486937761306763,0.3908047378063202,0.4523298442363739,58.65478515625,16.05224609375,6.591796875
1.296536922454834,-1267568874,0,1.0477172136306763,0.3832363784313202,0.3683454692363739,44.00634765625,49.49951171875,-3.72314453125
1.298137903213501,-1267568894,1,-0.2420613169670105,0.3200470507144928,0.8585224151611328,11.53564453125,71.96044921875,12.451171875
1.2982151508331299,-1267568875,1,-0.3165242075920105,0.3195587694644928,0.8658466339111328,7.87353515625,56.15234375,7.75146484375
1.3209850788116455,-1267568855,0,0.8443480134010315,0.240902379155159,0.4533064067363739,54.931640625,66.95556640625,-9.33837890625
1.3410332202911377,-1267568856,1,-0.3651081919670105,0.2992950975894928,0.8448505401611328,2.685546875,35.5224609375,10.25390625
1.3508682250976562,-1267568836,0,0.8057737946510315,0.5382656455039978,0.5060408115386963,42.66357421875,104.98046875,-43.5791015625
1.351006031036377,-1267568817,0,0.9859495759010315,0.3842129409313202,0.4347517192363739,22.5830078125,75.8056640625,-62.92724609375
1.3581979274749756,-1267568837,1,-0.3331257700920105,0.2795197069644928,0.8905048370361328,10.19287109375,15.56396484375,13.85498046875
1.3583300113677979,-1267568818,1,-0.2884480357170105,0.2184845507144928,0.9261493682861328,25.20751953125,6.28662109375,24.47509765625
1.391132116317749,-1267568798,0,1.0567504167556763,0.4064297378063202,0.4052107036113739,19.1650390625,102.1728515625,-75.0732421875
1.3949260711669922,-1267568799,1,-0.3392292857170105,0.2536408007144928,0.9603290557861328,41.32080078125,3.60107421875,28.62548828125
1.3949339389801025,-1267568780,1,-0.3319050669670105,0.3386017382144928,0.9320087432861328,51.8798828125,-18.24951171875,15.68603515625
1.4108288288116455,-1267568779,0,0.8401976227760315,0.5114101767539978,0.4520857036113739,2.3193359375,139.58740234375,-66.162109375
1.4109001159667969,-1267568760,0,0.7068968415260315,0.4542813003063202,0.4376814067363739,-8.11767578125,128.5400390625,-44.677734375
1.4164249897003174,-1267568761,1,-0.3575398325920105,0.3041779100894928,0.9058856964111328,59.326171875,-16.845703125,-5.9814453125
1.4452991485595703,-1267568741,0,0.6851683259010315,0.4418301284313202,0.5421736240386963,-7.99560546875,119.93408203125,-29.78515625
1.448664903640747,-1267568742,1,-0.4239460825920105,0.3754669725894928,0.9390888214111328,65.185546875,-18.85986328125,-0.244140625
1.448673963546753,-1267568723,1,-0.4171101450920105,0.3823029100894928,0.8658466339111328,61.767578125,-25.93994140625,0.30517578125
1.4691619873046875,-1267568722,0,0.5621214509010315,0.5138515830039978,0.4686872661113739,-2.01416015625,121.09375,-23.4375
1.4985828399658203,-1267568686,0,0.4578734338283539,0.5785488486289978,0.5455915927886963,-67.87109375,37.109375,-82.58056640625
1.4994609355926514,-1267568667,0,0.5648069977760315,0.246273472905159,0.7482283115386963,-95.458984375,-35.888671875,-132.32421875
1.5066249370574951,-1267568687,1,-0.3780476450920105,0.3871857225894928,0.8074970245361328,78.4912109375,-13.7939453125,0.0
1.506645917892456,-1267568668,1,-0.3350788950920105,0.3986603319644928,0.7760028839111328,87.09716796875,-9.033203125,2.9296875
1.5450379848480225,-1267568649,1,-0.3641316294670105,0.3422638475894928,0.7594013214111328,105.52978515625,-29.72412109375,24.47509765625
1.5458950996398926,-1267568630,1,-0.2247273325920105,0.3810822069644928,0.7640399932861328,120.54443359375,-68.29833984375,34.24072265625
1.5593597888946533,-1267568648,0,0.4922972619533539,0.141293004155159,0.6605818271636963,-82.21435546875,-59.08203125,-180.48095703125
1.5594778060913086,-1267568629,0,0.10533435642719269,1.1674160957336426,0.4259626567363739,-7.6904296875,-53.77197265625,-172.9736328125
1.5669159889221191,-1267568611,1,-0.1663777232170105,0.5112091898918152,0.7176532745361328,127.685546875,-92.34619140625,51.69677734375
1.5950660705566406,-1267568610,0,0.3692503869533539,0.4301113784313202,0.4708845317363739,117.85888671875,101.13525390625,-111.63330078125
1.5950779914855957,-1267568591,0,0.051867563277482986,0.7916836142539978,0.5062849521636963,181.0302734375,231.01806640625,-158.0810546875
1.5950839519500732,-1267568572,0,0.4979124963283539,0.7015957236289978,0.7221052646636963,125.6103515625,211.9140625,-243.2861328125
1.596548080444336,-1267568592,1,-0.1798054575920105,0.5134064555168152,0.6573505401611328,116.8212890625,-95.88623046875,73.42529296875
1.5966360569000244,-1267568573,1,-0.1063191294670105,0.4682404100894928,0.6461200714111328,75.62255859375,-91.796875,89.9658203125
1.6193339824676514,-1267568553,0,0.6321898102760315,0.4747891128063202,0.9498884677886963,88.0126953125,187.8662109375,-267.76123046875
1.6267180442810059,-1267568554,1,-0.032588664442300797,0.4870392382144928,0.6524677276611328,67.87109375,-72.93701171875,66.162109375
1.6492090225219727,-1267568534,0,0.5628538727760315,0.6339687705039978,1.0419294834136963,95.39794921875,146.1181640625,-255.55419921875
1.6493091583251953,-1267568515,0,0.3294554650783539,0.9677090048789978,0.8444197177886963,77.880859375,104.248046875,-217.8955078125
1.6595549583435059,-1267568535,1,0.045292194932699203,0.5778595805168152,0.7984638214111328,82.03125,-44.5556640625,13.916015625
1.6595649719238281,-1267568516,1,0.037479694932699203,0.5475861430168152,0.8702411651611328,80.13916015625,-12.451171875,-25.2685546875
1.6913928985595703,-1267568496,0,0.2147093564271927,1.0101895332336426,0.3056013286113739,33.63037109375,121.09375,-209.5947265625
1.6939899921417236,-1267568497,1,0.018436726182699203,0.5422150492668152,0.9005146026611328,73.486328125,-6.77490234375,-38.2080078125
1.709177017211914,-1267568477,0,0.2488890439271927,1.3583340644836426,0.2743513286113739,35.70556640625,106.4453125,-176.8798828125
1.7092671394348145,-1267568458,0,0.4886351525783539,1.0580410957336426,0.2545759379863739,52.79541015625,22.52197265625,-38.57421875
1.7167530059814453,-1267568478,1,-0.0706745982170105,0.6701447367668152,0.8465595245361328,69.15283203125,-6.2255859375,-40.1611328125
1.7168309688568115,-1267568459,1,-0.1507527232170105,0.6916291117668152,0.8275165557861328,68.29833984375,-27.52685546875,-42.17529296875
1.7477810382843018,-1267568423,1,0.012333210557699203,0.8346955180168152,0.7540302276611328,46.38671875,-54.74853515625,-74.21875
1.7692859172821045,-1267568422,0,0.6607542634010315,1.1847500801086426,0.0402204766869545,19.59228515625,95.703125,237.548828125
1.7693841457366943,-1267568403,0,-0.2025269716978073,1.9708828926086426,0.8795759677886963,-71.533203125,189.63623046875,227.72216796875
1.7764089107513428,-1267568404,1,0.0977824330329895,0.8202912211418152,0.6815204620361328,36.19384765625,-45.71533203125,-63.8427734375
1.80076003074646,-1267568384,0,0.6876097321510315,0.6862148642539978,0.5646345615386963,-184.326171875,46.5087890625,229.98046875
1.8009099960327148,-1267568365,0,0.4459105432033539,0.7997402548789978,0.5783064365386963,-110.595703125,94.54345703125,216.796875
1.8083701133728027,-1267568385,1,0.028202351182699203,0.7978302836418152,0.5953388214111328,41.44287109375,-33.87451171875,-53.40576171875
1.808467149734497,-1267568366,1,-0.038936320692300797,0.8295685648918152,0.5423603057861328,51.45263671875,-25.32958984375,-55.17578125
1.8445138931274414,-1267568346,0,0.6099730134010315,0.6317715048789978,0.1776716411113739,-8.36181640625,44.86083984375,149.35302734375
1.8468818664550781,-1267568347,1,-0.0772663950920105,0.9235627055168152,0.5365009307861328,43.212890625,-36.1328125,-48.7060546875
1.8608391284942627,-1267568327,0,0.3672972619533539,0.9782070517539978,0.5375349521636963,-30.76171875,128.23486328125,38.2080078125
1.860957145690918,-1267568308,0,0.4022093713283539,0.7138027548789978,0.6620466709136963,-52.8564453125,119.07958984375,-39.9169921875
1.8673679828643799,-1267568328,1,-0.1624714732170105,0.9443146586418152,0.5233173370361328,23.13232421875,-49.6826171875,-34.85107421875
1.8674688339233398,-1267568309,1,0.039676960557699203,0.9689728617668152,0.5474872589111328,-8.1787109375,-61.95068359375,-11.1083984375
1.8966450691223145,-1267568289,0,0.3355589807033539,0.6417812705039978,0.5490095615386963,29.296875,84.8388671875,-27.28271484375
1.8981480598449707,-1267568290,1,0.2047160267829895,0.9028107523918152,0.6280536651611328,-7.8125,-41.1376953125,-0.6103515625
1.898231029510498,-1267568271,1,0.052128132432699203,0.8554474711418152,0.7132587432861328,21.91162109375,-6.77490234375,-6.2255859375
1.9207751750946045,-1267568270,0,0.5162230134010315,0.7457851767539978,0.4645368754863739,89.111328125,46.08154296875,-25.390625
1.9209051132202148,-1267568251,0,0.3248167932033539,1.0155606269836426,0.6608259677886963,119.384765625,-10.7421875,-25.81787109375
1.940796136856079,-1267568252,1,-0.019160930067300797,0.9052521586418152,0.7139911651611328,36.1328125,-11.71875,-5.9814453125
1.9498860836029053,-1267568232,0,0.4207640588283539,1.0765957832336426,0.5363142490386963,51.69677734375,51.08642578125,12.451171875
1.9582340717315674,-1267568233,1,-0.1026570200920105,0.9404084086418152,0.6900653839111328,20.01953125,-22.27783203125,7.080078125
1.9583508968353271,-1267568214,1,-0.017451945692300797,0.8593537211418152,0.6895771026611328,10.19287109375,-40.71044921875,24.2919921875
1.990725040435791,-1267568213,0,0.4769164025783539,0.8964199423789978,0.5763533115386963,10.6201171875,110.65673828125,15.2587890625
1.990731954574585,-1267568194,0,0.3433714807033539,0.6210293173789978,0.6530134677886963,51.69677734375,151.4892578125,27.7099609375
1.9940869808197021,-1267568195,1,0.037235554307699203,0.8085724711418152,0.6649188995361328,26.0009765625,-37.7197265625,18.24951171875
2.0090579986572266,-1267568158,0,0.4361449182033539,1.0287442207336426,0.2545759379863739,145.69091796875,155.21240234375,44.0673828125
2.0165069103240967,-1267568159,1,-0.3057820200920105,0.8241974711418152,0.6007099151611328,39.794921875,-34.423828125,10.07080078125
2.0458359718322754,-1267568139,0,0.3201781213283539,1.0604825019836426,0.1801130473613739,60.60791015625,94.7265625,-16.9677734375
2.049217939376831,-1267568140,1,-0.1746785044670105,0.7524201273918152,0.7264423370361328,38.63525390625,-96.19140625,9.46044921875
2.0492258071899414,-1267568121,1,0.2215617299079895,0.8796173930168152,0.5203876495361328,47.42431640625,-99.609375,11.5966796875
2.069326877593994,-1267568120,0,0.3213988244533539,0.9286465048789978,0.5319197177886963,15.07568359375,66.10107421875,-47.66845703125
2.0694360733032227,-1267568101,0,0.2928343713283539,0.9374355673789978,0.5133650302886963,47.4853515625,80.9326171875,-36.2548828125
2.0763890743255615,-1267568102,1,0.2899211049079895,0.8393341898918152,0.5286884307861328,55.2978515625,-50.47607421875,5.0048828125
2.099371910095215,-1267568082,0,0.2437620908021927,0.9762539267539978,0.4389021098613739,57.06787109375,82.45849609375,-44.921875
2.1067087650299072,-1267568083,1,0.0721476674079895,0.8271271586418152,0.4703388214111328,59.63134765625,-12.14599609375,-12.8173828125
2.1067779064178467,-1267568064,1,0.029178913682699203,0.8845002055168152,0.3797626495361328,42.90771484375,16.9677734375,-7.568359375
2.141171932220459,-1267568063,0,0.2056761533021927,0.9865078330039978,0.4367048442363739,32.958984375,82.21435546875,-61.21826171875
2.141179084777832,-1267568044,0,0.08775623142719269,0.8678554892539978,0.4179060161113739,26.67236328125,65.185546875,-73.05908203125
2.145272970199585,-1267568045,1,-0.054805461317300797,0.8591095805168152,0.4124774932861328,19.04296875,22.4609375,-3.662109375
2.159359931945801,-1267568025,0,-0.018689077347517014,0.8346523642539978,0.3983747661113739,35.2783203125,37.78076171875,-67.0166015625
2.1594910621643066,-1267568006,0,-0.034802358597517014,0.8754238486289978,0.3712751567363739,45.22705078125,11.16943359375,-51.3916015625
2.1670918464660645,-1267568026,1,0.0843546986579895,0.7240998148918152,0.4981708526611328,12.939453125,11.90185546875,-15.380859375
2.167212963104248,-1267568007,1,-0.0050007738173007965,0.8307892680168152,0.4364032745361328,20.1416015625,13.12255859375,-14.34326171875
2.196120023727417,-1267567987,0,0.012560922652482986,0.8742031455039978,0.3036482036113739,26.4892578125,-10.498046875,-54.6875
2.1981239318847656,-1267567988,1,-0.053584758192300797,0.8857209086418152,0.4302997589111328,1.28173828125,8.30078125,10.1318359375
2.221565008163452,-1267567968,0,-0.0062379054725170135,0.8297695517539978,0.3414900004863739,-14.6484375,-29.72412109375,-64.39208984375
2.221574068069458,-1267567949,0,-0.08582775294780731,0.8571133017539978,0.4088728129863739,-43.76220703125,-30.21240234375,-62.80517578125
2.2266440391540527,-1267567969,1,-0.035762492567300797,0.8747345805168152,0.4305438995361328,-24.169921875,0.18310546875,18.61572265625
2.2267391681671143,-1267567950,1,0.0003703199326992035,0.7587677836418152,0.4876728057861328,-43.15185546875,0.48828125,26.3671875
2.2491679191589355,-1267567930,0,-0.015515249222517014,0.8107265830039978,0.3244001567363739,-40.771484375,-41.19873046875,-40.71044921875
2.2564311027526855,-1267567931,1,0.044071491807699203,0.5817658305168152,0.6344013214111328,-35.82763671875,62.68310546875,-6.53076171875
2.291187047958374,-1267567894,0,0.023303110152482986,0.7929043173789978,0.4225446879863739,-42.17529296875,-62.19482421875,-23.62060546875
2.2936348915100098,-1267567895,1,0.033817585557699203,0.7333771586418152,0.5111103057861328,17.88330078125,23.0712890625,20.8740234375
2.3091139793395996,-1267567875,0,-0.0037964992225170135,0.7474941611289978,0.4625837504863739,-37.841796875,-61.58447265625,-13.12255859375
2.3093338012695312,-1267567856,0,0.030871469527482986,0.7438320517539978,0.5026228427886963,-15.0146484375,-55.23681640625,-0.67138671875
2.3166098594665527,-1267567876,1,-0.044795695692300797,0.7138459086418152,0.5089130401611328,42.1142578125,35.0341796875,6.04248046875
2.3166911602020264,-1267567857,1,-0.025996867567300797,0.7822052836418152,0.5057392120361328,49.86572265625,34.912109375,9.46044921875
2.3456759452819824,-1267567837,0,-0.013317983597517014,0.8561367392539978,0.4369489848613739,6.65283203125,-50.47607421875,13.0615234375
2.346683979034424,-1267567838,1,-0.015498820692300797,0.7885529398918152,0.4432392120361328,57.373046875,30.2734375,11.1083984375
2.369359016418457,-1267567818,0,-0.036511342972517014,0.9711269736289978,0.3468610942363739,26.55029296875,-41.259765625,41.56494140625
2.3694701194763184,-1267567799,0,0.1517210751771927,1.0917325019836426,0.3749372661113739,11.962890625,-39.36767578125,70.12939453125
2.3765909671783447,-1267567819,1,0.0059855543076992035,0.8859650492668152,0.3741474151611328,62.68310546875,30.21240234375,12.51220703125
2.376708984375,-1267567800,1,-0.009883586317300797,0.9882599711418152,0.4359149932861328,42.96875,30.09033203125,18.85986328125
2.401728868484497,-1267567780,0,0.1436644345521927,1.1386075019836426,0.4494001567363739,4.5166015625,-4.33349609375,78.30810546875
2.408215045928955,-1267567781,1,-0.055537883192300797,0.9606720805168152,0.4967060089111328,22.8271484375,25.81787109375,20.44677734375
2.408308982849121,-1267567762,1,-0.048457805067300797,0.9286896586418152,0.5728778839111328,9.521484375,7.75146484375,13.3056640625
2.4412031173706055,-1267567761,0,0.3008910119533539,0.9142422080039978,0.5228865146636963,8.4228515625,9.82666015625,65.24658203125
2.441210985183716,-1267567742,0,0.2845335900783539,0.9340175986289978,0.4891950786113739,15.869140625,-8.30078125,19.71435546875
2.446837902069092,-1267567743,1,-0.039668742567300797,0.8664337992668152,0.5030536651611328,15.44189453125,-8.4228515625,8.60595703125
2.45999813079834,-1267567723,0,0.2176390439271927,1.1151700019836426,0.3168317973613739,-20.99609375,-26.79443359375,-10.43701171875
2.460124969482422,-1267567704,0,0.1732054501771927,1.0919766426086426,0.0978376641869545,-76.72119140625,-59.75341796875,-26.3671875
2.4681499004364014,-1267567724,1,0.040409382432699203,0.8547150492668152,0.4024677276611328,31.73828125,-10.1318359375,-4.7607421875
2.4682159423828125,-1267567705,1,0.061405476182699203,0.8791291117668152,0.3763446807861328,37.2314453125,-8.4228515625,-16.54052734375
2.4980709552764893,-1267567685,0,0.1895628720521927,0.9723476767539978,0.4547712504863739,-124.51171875,-96.5576171875,-39.24560546875
2.500504970550537,-1267567686,1,0.054569538682699203,0.9040314555168152,0.3385028839111328,33.69140625,-15.93017578125,-31.55517578125
2.519380807876587,-1267567666,0,0.2496214658021927,0.6810879111289978,0.6132185459136963,-62.8662109375,-52.001953125,-3.23486328125
2.5267701148986816,-1267567667,1,0.037235554307699203,0.9640900492668152,0.3140888214111328,21.17919921875,-29.541015625,-40.10009765625
2.5490951538085938,-1267567630,0,0.2068968564271927,0.9254726767539978,0.2658064067363739,-17.08984375,23.49853515625,29.541015625
2.5566389560699463,-1267567631,1,0.034061726182699203,1.0265899896621704,0.2318134307861328,-17.08984375,-27.89306640625,-29.35791015625
2.5567469596862793,-1267567612,1,0.0030558668076992035,1.0090118646621704,0.2816181182861328,-31.06689453125,-16.90673828125,-24.7802734375
2.5937581062316895,-1267567593,1,-0.025752726942300797,1.0014435052871704,0.2891864776611328,-36.68212890625,-11.8408203125,-22.64404296875
2.610773801803589,-1267567611,0,0.11046130955219269,0.6764492392539978,0.3785993754863739,-40.8935546875,27.4658203125,8.30078125
2.610787868499756,-1267567592,0,0.09263904392719269,0.7260097861289978,0.5121443271636963,-45.654296875,3.7841796875,-14.70947265625
2.610905885696411,-1267567573,0,0.2222777158021927,0.6393398642539978,0.5558454990386963,16.78466796875,-16.2353515625,-1.28173828125
2.6110739707946777,-1267567554,0,0.3253050744533539,1.0287442207336426,0.5187361240386963,-31.1279296875,-113.28125,9.09423828125
2.6165170669555664,-1267567574,1,-0.1160847544670105,1.0063263177871704,0.3695087432861328,-55.7861328125,0.67138671875,-12.939453125
2.6166110038757324,-1267567555,1,-0.036250773817300797,0.9040314555168152,0.3409442901611328,-92.34619140625,-14.16015625,21.3623046875
2.6458442211151123,-1267567535,0,0.4564085900783539,1.0419278144836426,0.4169294536113739,-143.06640625,-113.1591796875,0.48828125
2.6466610431671143,-1267567536,1,0.0819132924079895,0.7648712992668152,0.3289813995361328,-107.2998046875,-23.13232421875,28.9306640625
2.6693530082702637,-1267567516,0,0.4273558557033539,0.9486660361289978,0.5399763584136963,-224.853515625,-90.4541015625,-2.62451171875
2.6694188117980957,-1267567497,0,0.4691039025783539,0.8356289267539978,0.6127302646636963,-278.62548828125,-26.30615234375,2.13623046875
2.676543951034546,-1267567517,1,0.1368449330329895,0.6825959086418152,0.3333759307861328,-108.82568359375,-38.57421875,25.87890625
2.676666021347046,-1267567498,1,0.1693156361579895,0.6886994242668152,0.3319110870361328,-104.6142578125,-37.2314453125,10.1318359375
2.6994149684906006,-1267567478,0,0.5482054352760315,0.8473476767539978,0.6945173740386963,-290.0390625,46.875,38.57421875
2.7066431045532227,-1267567479,1,0.1221964955329895,0.7170197367668152,0.3975849151611328,-97.22900390625,-32.71484375,-7.32421875
2.7067837715148926,-1267567460,1,0.1805461049079895,0.7104279398918152,0.4964618682861328,-93.994140625,-23.5595703125,-10.7421875
2.7419660091400146,-1267567459,0,0.4771605432033539,0.7963222861289978,0.7077009677886963,-308.28857421875,62.80517578125,34.97314453125
2.741973876953125,-1267567440,0,0.7742796540260315,0.6945156455039978,0.7506697177886963,-318.66455078125,45.10498046875,20.99609375
2.7446279525756836,-1267567441,1,0.1678507924079895,0.6996857523918152,0.5189228057861328,-113.1591796875,-49.01123046875,-21.97265625
2.759434938430786,-1267567421,0,0.5015745759010315,0.9572109580039978,0.7560408115386963,-303.5888671875,30.8837890625,74.951171875
2.7670629024505615,-1267567422,1,0.2259562611579895,0.7533966898918152,0.5435810089111328,-139.83154296875,-73.486328125,-23.49853515625
2.767202854156494,-1267567403,1,0.4491007924079895,0.7487580180168152,0.5526142120361328,-166.56494140625,-67.626953125,-15.07568359375
2.7975809574127197,-1267567402,0,0.3577757775783539,0.4738125503063202,0.9413435459136963,-308.7158203125,25.20751953125,11.16943359375
2.818631172180176,-1267567366,0,0.5970335602760315,0.226742222905159,1.1625349521636963,-202.94189453125,-1.953125,-28.86962890625
2.819451093673706,-1267567347,0,0.5140257477760315,0.231869176030159,1.1986677646636963,-161.80419921875,-3.173828125,-67.68798828125
2.8270108699798584,-1267567367,1,0.4090617299079895,0.4577423632144928,0.7833271026611328,-123.291015625,-132.32421875,-60.546875
2.8270199298858643,-1267567348,1,0.3150675892829895,0.7382599711418152,0.7420673370361328,-79.52880859375,-125.3662109375,-84.9609375
2.8494579792022705,-1267567328,0,0.3885374963283539,0.179378941655159,1.2658064365386963,-127.86865234375,16.7236328125,-121.09375
2.856680154800415,-1267567329,1,0.3114054799079895,0.7201935648918152,0.7930927276611328,-115.29541015625,-94.3603515625,-61.82861328125
2.856795072555542,-1267567310,1,0.3812296986579895,0.5217072367668152,0.9158954620361328,-101.318359375,-67.81005859375,-87.82958984375
2.890763998031616,-1267567309,0,0.2369261533021927,0.136898472905159,1.2980329990386963,-130.4931640625,44.43359375,-134.3994140625
2.8907711505889893,-1267567290,0,0.1690550595521927,0.166683629155159,1.2802107334136963,-137.87841796875,39.12353515625,-96.923828125
2.8944060802459717,-1267567291,1,0.2872355580329895,0.5986115336418152,0.8929462432861328,-98.5107421875,-49.25537109375,-120.1171875
2.909120798110962,-1267567271,0,0.2562132775783539,0.113460972905159,1.2272322177886963,-143.61572265625,16.7236328125,-97.0458984375
2.9166669845581055,-1267567272,1,0.1688273549079895,0.5588166117668152,0.9498310089111328,-107.666015625,-53.955078125,-167.48046875
2.9168169498443604,-1267567253,1,-0.0841023325920105,0.7494904398918152,0.9801044464111328,-95.15380859375,-66.7724609375,-146.05712890625
2.9457011222839355,-1267567252,0,0.1754027158021927,-0.023990195244550705,1.2011091709136963,-131.103515625,-35.64453125,-132.62939453125
2.945708990097046,-1267567233,0,0.2247191220521927,-0.045230429619550705,1.3429548740386963,-99.67041015625,-84.04541015625,-151.55029296875
2.9467759132385254,-1267567234,1,-0.035030070692300797,0.6564728617668152,1.0089130401611328,-82.1533203125,-74.3408203125,-84.5947265625
2.969188928604126,-1267567214,0,0.2310667783021927,-0.161929652094841,1.2738630771636963,-81.97021484375,-98.93798828125,-146.240234375
2.969296932220459,-1267567195,0,0.2703734338283539,-0.047427695244550705,1.1813337802886963,-58.7158203125,-132.62939453125,-131.77490234375
2.976548910140991,-1267567215,1,0.0716593861579895,0.5375763773918152,1.0584735870361328,-66.7724609375,-85.693359375,-71.6552734375
2.9779930114746094,-1267567196,1,0.1038859486579895,0.5031525492668152,1.0355243682861328,-51.08642578125,-92.7734375,-93.81103515625
3.00028395652771,-1267567176,0,0.3655882775783539,0.079281285405159,1.2299177646636963,-48.828125,-156.494140625,-122.0703125
3.006816864013672,-1267567177,1,0.0655558705329895,0.4885040819644928,0.9925556182861328,-45.7763671875,-98.6328125,-118.408203125
3.0415709018707275,-1267567157,0,0.2645140588283539,-0.156314417719841,1.3641951084136963,-50.96435546875,-125.244140625,-96.37451171875
3.0415799617767334,-1267567138,0,0.3279906213283539,-0.145816370844841,1.3102400302886963,-24.7802734375,-90.27099609375,-50.84228515625
3.0442888736724854,-1267567158,1,-0.047725383192300797,0.5886017680168152,1.0489521026611328,-45.41015625,-97.96142578125,-107.48291015625
3.0442988872528076,-1267567139,1,0.050419148057699203,0.5243927836418152,1.1224384307861328,-25.0244140625,-76.2939453125,-57.2509765625
3.0659019947052,-1267567103,1,0.0633586049079895,0.4445587694644928,1.0955829620361328,16.7236328125,-69.82421875,-64.453125
3.0974979400634766,-1267567102,0,0.3238402307033539,-0.065982386469841,1.3810408115386963,14.34326171875,-71.533203125,-55.72509765625
3.0975100994110107,-1267567083,0,0.2562132775783539,-0.043033163994550705,1.3783552646636963,-2.197265625,-45.41015625,-65.673828125
3.0979390144348145,-1267567084,1,0.012821491807699203,0.4460236132144928,1.0557880401611328,15.9912109375,-84.04541015625,-72.08251953125
3.11918306350708,-1267567064,0,0.11412341892719269,-0.108462855219841,1.3397810459136963,-24.0478515625,-38.75732421875,-67.9931640625
3.1192400455474854,-1267567045,0,0.025012094527482986,-0.036929648369550705,1.3026716709136963,-16.6015625,-62.1337890625,-52.734375
3.1300048828125,-1267567065,1,0.0067179761826992035,0.4755646288394928,1.0372333526611328,2.99072265625,-105.16357421875,-67.19970703125
3.1300220489501953,-1267567046,1,0.033329304307699203,0.4433380663394928,0.9989032745361328,-5.37109375,-109.43603515625,-57.80029296875
3.149257183074951,-1267567026,0,0.08995349705219269,0.016293007880449295,1.2279646396636963,1.708984375,-70.73974609375,-33.75244140625
3.1565520763397217,-1267567027,1,0.034061726182699203,0.3898712694644928,0.9610614776611328,-0.1220703125,-101.86767578125,-54.99267578125
3.191941976547241,-1267567007,0,0.019396860152482986,0.085384801030159,1.2362654209136963,18.00537109375,-78.125,-39.24560546875
3.1929450035095215,-1267566988,0,0.016955453902482986,0.082210972905159,1.2660505771636963,20.69091796875,-71.47216796875,-57.18994140625
3.19464111328125,-1267567008,1,0.017460163682699203,0.3659454882144928,0.8768329620361328,6.7138671875,-92.83447265625,-55.2978515625
3.1946468353271484,-1267566989,1,-0.0028035081923007965,0.3908478319644928,0.8109149932861328,9.70458984375,-86.24267578125,-53.03955078125
3.2091710567474365,-1267566969,0,-0.029431264847517014,0.068294957280159,1.2025740146636963,17.63916015625,-53.7109375,-45.2880859375
3.2171061038970947,-1267566970,1,-0.009395305067300797,0.4382111132144928,0.7891864776611328,4.8828125,-79.345703125,-34.66796875
3.2171170711517334,-1267566951,1,0.0067179761826992035,0.4194122850894928,0.7833271026611328,0.244140625,-61.82861328125,-18.4326171875
3.2459540367126465,-1267566950,0,-0.052624624222517014,0.033871132880449295,1.1105329990386963,18.5546875,-54.0771484375,-20.751953125
3.245965003967285,-1267566931,0,-0.12220470607280731,0.034359414130449295,1.0204451084136963,21.484375,-76.84326171875,13.85498046875
3.2467308044433594,-1267566932,1,0.0028117261826992035,0.3837677538394928,0.7540302276611328,-5.43212890625,-45.654296875,-6.16455078125
3.2691400051116943,-1267566912,0,-0.10780040919780731,0.086605504155159,0.9611189365386963,27.64892578125,-114.44091796875,38.02490234375
3.2766151428222656,-1267566913,1,0.026981648057699203,0.3185822069644928,0.7052021026611328,-5.4931640625,-28.01513671875,-9.033203125
3.276698112487793,-1267566894,1,0.0042765699326992035,0.3366486132144928,0.6768817901611328,-1.52587890625,-15.13671875,-17.9443359375
3.3025059700012207,-1267566893,0,-0.09510509669780731,0.169613316655159,0.9476912021636963,34.72900390625,-123.291015625,50.29296875
3.302515745162964,-1267566874,0,-0.07508556544780731,0.2643398940563202,0.9054548740386963,41.259765625,-121.9482421875,59.50927734375
3.3068461418151855,-1267566875,1,-0.022334758192300797,0.3808380663394928,0.6881122589111328,-7.9345703125,-17.4560546875,-11.77978515625
3.341459035873413,-1267566838,0,-0.12366954982280731,0.129574254155159,0.8151228427886963,16.6015625,-40.34423828125,61.6455078125
3.3441131114959717,-1267566839,1,-0.023067180067300797,0.3605743944644928,0.6563739776611328,-20.32470703125,-3.0517578125,26.67236328125
3.359375,-1267566819,0,-0.1405152529478073,0.083187535405159,0.7299177646636963,24.23095703125,-44.0673828125,78.43017578125
3.3668251037597656,-1267566820,1,0.0008586011826992035,0.3300568163394928,0.6405048370361328,-30.6396484375,4.8828125,32.3486328125
3.3669521808624268,-1267566801,1,-0.00011796131730079651,0.3386017382144928,0.5950946807861328,-38.51318359375,18.24951171875,27.4658203125
3.3976809978485107,-1267566800,0,-0.08656017482280731,0.074398472905159,0.7828962802886963,20.6298828125,-36.7431640625,105.77392578125
3.397693157196045,-1267566781,0,-0.11341564357280731,0.056576211005449295,0.8053572177886963,-12.6953125,5.37109375,123.291015625
3.398103952407837,-1267566782,1,-0.046748820692300797,0.3967072069644928,0.5980243682861328,-45.2880859375,32.3486328125,31.3720703125
3.419482946395874,-1267566762,0,-0.1932496279478073,0.059505898505449295,0.7929060459136963,-39.85595703125,16.6015625,118.83544921875
3.4269731044769287,-1267566763,1,-0.0677449107170105,0.4032990038394928,0.6082782745361328,-55.48095703125,43.27392578125,48.76708984375
3.427077054977417,-1267566744,1,-0.0821492075920105,0.3581329882144928,0.6153583526611328,-67.81005859375,49.86572265625,66.95556640625
3.4492990970611572,-1267566743,0,-0.2579468786716461,0.052425820380449295,0.9730818271636963,-76.416015625,2.62451171875,113.8916015625
3.4493629932403564,-1267566724,0,-0.037976186722517014,-0.031558554619550705,0.7523787021636963,-103.6376953125,34.85107421875,140.625
3.456562042236328,-1267566725,1,-0.055537883192300797,0.3034454882144928,0.6124286651611328,-77.392578125,53.89404296875,71.533203125
3.4919278621673584,-1267566705,0,-0.059460561722517014,-0.047915976494550705,0.7448103427886963,-101.13525390625,35.21728515625,152.099609375
3.4919347763061523,-1267566686,0,-0.061413686722517014,-0.140201136469841,0.7814314365386963,-88.9892578125,54.8095703125,131.4697265625
3.494562864303589,-1267566706,1,-0.0875203013420105,0.2853790819644928,0.6463642120361328,-85.0830078125,63.4765625,60.1806640625
3.494569778442383,-1267566687,1,-0.1363484263420105,0.2980743944644928,0.6927509307861328,-98.81591796875,72.998046875,56.70166015625
3.5090768337249756,-1267566667,0,-0.06605236232280731,-0.111636683344841,0.8971540927886963,-72.998046875,35.400390625,119.93408203125
3.519307851791382,-1267566668,1,-0.1668660044670105,0.3241974413394928,0.7669696807861328,-111.4501953125,87.58544921875,80.38330078125
3.5443050861358643,-1267566648,0,-0.035778921097517014,-0.110904261469841,1.0121443271636963,-63.5986328125,15.5029296875,106.689453125
3.544312000274658,-1267566629,0,0.039904672652482986,-0.179996058344841,1.0409529209136963,-65.0634765625,-1.8310546875,79.77294921875
3.546782970428467,-1267566649,1,-0.1507527232170105,0.1894318163394928,0.8441181182861328,-120.30029296875,101.74560546875,107.91015625
3.5468220710754395,-1267566630,1,-0.1099812388420105,0.0698029100894928,0.9361591339111328,-120.54443359375,119.5068359375,107.36083984375
3.569154977798462,-1267566610,0,0.12437732517719269,-0.3804354965686798,1.1713240146636963,-69.39697265625,-32.65380859375,54.99267578125
3.5765380859375,-1267566611,1,-0.1778523325920105,0.049539241939783096,1.0413837432861328,-115.72265625,135.6201171875,93.81103515625
3.599416971206665,-1267566574,0,0.4778929650783539,-0.5361972451210022,1.4699079990386963,-19.47021484375,-43.88427734375,94.29931640625
3.6068198680877686,-1267566575,1,-0.2415730357170105,-0.1003631055355072,1.2486591339111328,-128.11279296875,153.62548828125,109.619140625
3.6434710025787354,-1267566556,1,-0.2813679575920105,-0.1997283399105072,1.3780536651611328,-97.2900390625,172.42431640625,85.75439453125
3.6442389488220215,-1267566537,1,-0.4744831919670105,-0.1657927930355072,1.5484638214111328,-70.49560546875,182.80029296875,64.63623046875
3.6595728397369385,-1267566555,0,0.6483030915260315,-0.5637851357460022,1.6386091709136963,2.0751953125,-38.9404296875,112.24365234375
3.6596839427948,-1267566536,0,0.9334593415260315,-0.5144687294960022,1.8749372959136963,24.4140625,-37.04833984375,101.01318359375
3.660660982131958,-1267566517,0,1.1036254167556763,-0.5484042763710022,2.0951521396636963,42.66357421875,-24.23095703125,81.298828125
3.6666390895843506,-1267566518,1,-0.6895710825920105,-0.010031070560216904,1.8175067901611328,-69.7021484375,174.74365234375,97.2900390625
3.696120023727417,-1267566498,0,1.2195922136306763,-0.7388339638710022,2.2631208896636963,53.466796875,-1.0986328125,67.5048828125
3.696126937866211,-1267566479,0,1.3511840105056763,-0.8059726357460022,2.2885115146636963,87.46337890625,21.8505859375,76.59912109375
3.6966869831085205,-1267566499,1,-0.7904011607170105,-0.0871795117855072,2.075319290161133,-70.73974609375,169.921875,162.65869140625
3.696692943572998,-1267566480,1,-0.7940632700920105,-0.3510955274105072,2.455934524536133,-55.72509765625,152.4658203125,206.72607421875
3.7190980911254883,-1267566460,0,1.6121703386306763,-0.8775058388710022,2.3793318271636963,137.63427734375,41.3818359375,65.185546875
3.7269999980926514,-1267566461,1,-0.6780964732170105,-0.4057830274105072,2.647340774536133,6.34765625,130.79833984375,185.11962890625
3.72708797454834,-1267566442,1,-0.5081745982170105,-0.2990935742855072,2.542116165161133,76.7822265625,103.21044921875,160.46142578125
3.7491939067840576,-1267566441,0,1.9031859636306763,-1.5610995292663574,2.8444197177886963,167.29736328125,55.84716796875,40.95458984375
3.749319076538086,-1267566422,0,1.7452269792556763,-1.1519198417663574,2.3370954990386963,188.5986328125,88.37890625,15.31982421875
3.756736993789673,-1267566423,1,-0.9666706919670105,-0.3706267774105072,2.473268508911133,123.9013671875,99.7314453125,180.5419921875
3.7928030490875244,-1267566403,0,1.5899535417556763,-1.1284823417663574,2.1649763584136963,215.51513671875,126.89208984375,28.38134765625
3.7928099632263184,-1267566384,0,1.6746703386306763,-1.2376132011413574,2.0162947177886963,238.58642578125,149.90234375,37.04833984375
3.794595956802368,-1267566404,1,-0.9883992075920105,-0.3928435742855072,2.380983352661133,137.8173828125,110.9619140625,195.98388671875
3.794602870941162,-1267566385,1,-1.0164754390716553,-0.2971404492855072,2.294801712036133,188.3544921875,102.96630859375,221.00830078125
3.8091518878936768,-1267566365,0,1.5850707292556763,-1.2173495292663574,1.8029158115386963,259.21630859375,165.10009765625,38.2080078125
3.8164210319519043,-1267566366,1,-1.0518758296966553,-0.3828338086605072,2.135377883911133,215.63720703125,101.25732421875,225.03662109375
3.84602689743042,-1267566346,0,1.5318480730056763,-1.1807284355163574,1.7299177646636963,277.28271484375,161.9873046875,34.48486328125
3.846827983856201,-1267566347,1,-1.0457723140716553,-0.4153045117855072,2.023317337036133,237.73193359375,100.40283203125,230.77392578125
3.869094133377075,-1267566310,0,1.3506957292556763,-1.1309237480163574,1.6559431552886963,281.43310546875,200.5615234375,-6.65283203125
3.876556873321533,-1267566311,1,-0.8966023325920105,-0.5698454976081848,1.8509540557861328,232.2998046875,99.853515625,249.51171875
3.8766419887542725,-1267566292,1,-0.8138386607170105,-0.6091521382331848,1.7493915557861328,221.00830078125,104.91943359375,280.1513671875
3.8997128009796143,-1267566291,0,1.2132445573806763,-1.1087069511413574,1.5292341709136963,276.123046875,233.09326171875,-30.21240234375
3.8998618125915527,-1267566272,0,1.1439086198806763,-1.1731600761413574,1.3705427646636963,272.15576171875,242.3095703125,-18.798828125
3.9083428382873535,-1267566273,1,-0.5089070200920105,-0.7964079976081848,1.5489521026611328,210.693359375,109.31396484375,264.7705078125
3.940971851348877,-1267566253,0,0.9832640290260315,-1.1150546073913574,1.2213728427886963,286.07177734375,229.736328125,-10.498046875
3.9409799575805664,-1267566234,0,0.9473753571510315,-1.0127596855163574,1.1156599521636963,288.330078125,228.02734375,-9.033203125
3.943598985671997,-1267566254,1,-0.3287312388420105,-0.7749236226081848,1.3404560089111328,225.2197265625,109.4970703125,243.5302734375
3.943605899810791,-1267566235,1,-0.2562214732170105,-0.7231658101081848,1.1463642120361328,240.29541015625,110.29052734375,228.8818359375
3.9594860076904297,-1267566215,0,0.8311644196510315,-0.9151034951210022,0.9437849521636963,276.06201171875,264.7705078125,-13.24462890625
3.966701030731201,-1267566216,1,-0.1483113169670105,-0.6784880757331848,0.9774188995361328,240.41748046875,119.20166015625,220.27587890625
3.99572491645813,-1267566196,0,0.6946898102760315,-0.9251132607460022,0.7142927646636963,264.892578125,298.33984375,-4.69970703125
3.995732069015503,-1267566177,0,0.4559203088283539,-0.8364902138710022,0.4728376567363739,251.40380859375,300.9033203125,27.89306640625
3.999185085296631,-1267566197,1,0.0047648511826992035,-0.6252654194831848,0.7830829620361328,227.84423828125,124.20654296875,203.857421875
3.9991939067840576,-1267566178,1,0.1573527455329895,-0.5808318257331848,0.6021747589111328,201.23291015625,117.37060546875,177.490234375
4.019383907318115,-1267566158,0,0.3519164025783539,-0.7710605263710022,0.2506696879863739,236.6943359375,272.88818359375,47.7294921875
4.026657819747925,-1267566159,1,0.2486613392829895,-0.5246794819831848,0.4283466339111328,168.39599609375,104.79736328125,141.90673828125
4.0267250537872314,-1267566140,1,0.3446086049079895,-0.4355681836605072,0.2667255401611328,141.2353515625,96.8017578125,119.56787109375
4.049255132675171,-1267566139,0,0.3223753869533539,-0.6004062294960022,0.0812361016869545,214.599609375,241.0888671875,62.98828125
4.049377918243408,-1267566120,0,0.2901488244533539,-0.4556308090686798,-0.009340070188045502,197.57080078125,232.48291015625,66.58935546875
4.056466102600098,-1267566121,1,0.4517863392829895,-0.3828338086605072,0.06872750073671341,106.75048828125,97.83935546875,102.60009765625
4.091381788253784,-1267566101,0,0.1617308408021927,-0.3318515121936798,-0.1233537420630455,172.119140625,223.57177734375,76.2939453125
4.09560489654541,-1267566102,1,0.5289347767829895,-0.2790740430355072,-0.05700492113828659,76.47705078125,108.3984375,86.3037109375
4.095612049102783,-1267566083,1,0.5936320424079895,-0.1386931836605072,-0.09777640551328659,58.59375,120.17822265625,72.08251953125
4.1091108322143555,-1267566082,0,0.1597777158021927,-0.227603480219841,-0.2341935932636261,143.1884765625,216.12548828125,102.23388671875
4.146301031112671,-1267566046,0,0.10191638767719269,0.020443398505449295,-0.3123185932636261,78.125,201.7822265625,150.93994140625
4.146308898925781,-1267566027,0,0.030627328902482986,0.081478551030159,-0.2517717182636261,71.83837890625,197.20458984375,163.51318359375
4.146910905838013,-1267566047,1,0.5792277455329895,0.1442658007144928,-0.1661357879638672,49.8046875,151.85546875,27.9541015625
4.146917104721069,-1267566028,1,0.5460246205329895,0.3083283007144928,-0.1697978973388672,42.78564453125,162.65869140625,16.4794921875
4.168946027755737,-1267566008,0,0.043810922652482986,0.147640660405159,-0.1912248432636261,96.5576171875,171.5087890625,182.80029296875
4.17652702331543,-1267566009,1,0.4657023549079895,0.4662872850894928,-0.12365531176328659,18.85986328125,160.64453125,6.89697265625
4.176627159118652,-1267565990,1,0.3702433705329895,0.5580841898918152,-0.11218070238828659,-17.2119140625,143.73779296875,3.662109375
4.199238061904907,-1267565989,0,0.10801990330219269,0.3856777846813202,-0.2268693745136261,116.0888671875,125.3662109375,201.416015625
4.1993749141693115,-1267565970,0,0.2225218564271927,0.6408047080039978,-0.2620256245136261,110.9619140625,82.33642578125,202.880859375
4.206845045089722,-1267565971,1,0.3294718861579895,0.5990998148918152,-0.10656546801328659,-35.15625,131.4697265625,-1.89208984375
4.240519046783447,-1267565951,0,0.3421507775783539,0.8112148642539978,-0.3184221088886261,89.599609375,52.79541015625,183.89892578125
4.243823051452637,-1267565952,1,0.3241007924079895,0.7272736430168152,-0.09997367113828659,-35.33935546875,131.9580078125,-0.91552734375
4.243829965591431,-1267565933,1,0.2806437611579895,0.8620392680168152,-0.04650687426328659,-39.12353515625,139.0380859375,7.9345703125
4.259804010391235,-1267565932,0,0.4600706994533539,0.9508633017539978,-0.2454240620136261,63.5986328125,34.24072265625,142.39501953125
4.259903907775879,-1267565913,0,0.7261839509010315,1.0082364082336426,-0.1343400776386261,26.55029296875,34.97314453125,92.6513671875
4.266839027404785,-1267565914,1,0.1768839955329895,0.8244416117668152,-0.09118460863828659,-38.6962890625,164.794921875,6.4697265625
4.295575857162476,-1267565894,0,0.6129027009010315,1.0870938301086426,-0.0488908514380455,-10.55908203125,78.4912109375,72.8759765625
4.295583963394165,-1267565875,0,0.4854613244533539,0.8959316611289978,0.0014021173119544983,-32.28759765625,108.21533203125,103.21044921875
4.299170970916748,-1267565895,1,0.0992472767829895,0.8764435648918152,-0.06066703051328659,-5.43212890625,235.3515625,-4.7607421875
4.299178838729858,-1267565876,1,0.1651652455329895,0.9535920023918152,0.1627216339111328,17.4560546875,250.91552734375,13.427734375
4.319461107254028,-1267565856,0,0.4354124963283539,0.7755703330039978,0.0848982110619545,-32.8369140625,115.1123046875,138.671875
4.326578140258789,-1267565857,1,0.1966593861579895,0.9228302836418152,0.2210712432861328,4.57763671875,220.703125,20.751953125
4.350103855133057,-1267565837,0,0.4703246057033539,0.7828945517539978,0.1351911723613739,-31.3720703125,127.8076171875,168.45703125
4.3501951694488525,-1267565818,0,0.5399046540260315,0.8065761923789978,0.1049177423119545,-35.0341796875,128.41796875,183.349609375
4.35826301574707,-1267565838,1,0.2078898549079895,0.8498322367668152,0.2059345245361328,-57.4951171875,168.51806640625,28.564453125
4.358348846435547,-1267565819,1,0.2403605580329895,0.7511994242668152,0.2149677276611328,-111.81640625,138.7939453125,28.01513671875
4.396562099456787,-1267565783,1,0.2720988392829895,0.7194611430168152,0.3331317901611328,-49.9267578125,195.1904296875,4.150390625
4.409295082092285,-1267565782,0,0.5567503571510315,0.8046230673789978,0.1185896173119545,-19.34814453125,96.0693359375,164.9169921875
4.409364938735962,-1267565763,0,0.5696898102760315,0.7430996298789978,0.0934431329369545,-23.681640625,89.7216796875,156.6162109375
4.418048858642578,-1267565764,1,0.2349894642829895,0.8381134867668152,0.3553485870361328,-30.21240234375,208.92333984375,-12.8173828125
4.447983026504517,-1267565744,0,0.6314573884010315,0.6600918173789978,0.1285993754863739,-44.86083984375,100.03662109375,156.31103515625
4.447993993759155,-1267565725,0,0.7037230134010315,0.6222500205039978,0.1867048442363739,-63.04931640625,120.17822265625,163.51318359375
4.448520183563232,-1267565745,1,0.1934855580329895,0.8588654398918152,0.3729267120361328,-65.97900390625,191.22314453125,-16.54052734375
4.448525905609131,-1267565726,1,0.2352336049079895,0.8190705180168152,0.3863544464111328,-111.2060546875,171.44775390625,-19.53125
4.471066951751709,-1267565706,0,0.7064085602760315,0.6234707236289978,0.1986677348613739,-76.904296875,117.3095703125,168.88427734375
4.4895100593566895,-1267565707,1,0.2247355580329895,0.7885529398918152,0.4007587432861328,-99.30419921875,185.302734375,-40.71044921875
4.500915765762329,-1267565687,0,0.6778441071510315,0.5890468955039978,0.2052595317363739,-76.11083984375,97.22900390625,169.921875
4.501018047332764,-1267565668,0,0.8802366852760315,0.4689297378063202,0.2006208598613739,-73.30322265625,83.06884765625,155.70068359375
4.5067479610443115,-1267565688,1,0.1412394642829895,0.8847443461418152,0.4398212432861328,-61.58447265625,190.12451171875,-52.67333984375
4.506922960281372,-1267565669,1,-0.049190226942300797,0.9711701273918152,0.3304462432861328,-72.75390625,187.92724609375,-49.4384765625
4.543325185775757,-1267565649,0,0.9075804352760315,0.6415371298789978,0.2169782817363739,-95.0927734375,93.68896484375,150.390625
4.545108079910278,-1267565650,1,0.008182819932699203,0.9118439555168152,0.4879169464111328,-127.0751953125,145.32470703125,-61.09619140625
4.545114994049072,-1267565631,1,0.1449015736579895,0.7431427836418152,0.6243915557861328,-166.6259765625,96.25244140625,-83.31298828125
4.560896873474121,-1267565630,0,0.9608030915260315,0.6722988486289978,0.2077009379863739,-140.380859375,86.3037109375,136.3525390625
4.5610411167144775,-1267565611,0,0.9371214509010315,0.6132168173789978,0.1923200786113739,-188.3544921875,60.302734375,115.66162109375
4.56839394569397,-1267565612,1,0.1671183705329895,0.5973908305168152,0.6268329620361328,-167.17529296875,77.20947265625,-123.6572265625
4.595254898071289,-1267565592,0,1.0135375261306763,0.5121425986289978,0.2225935161113739,-195.61767578125,27.03857421875,81.23779296875
4.600732088088989,-1267565593,1,0.0775187611579895,0.5776154398918152,0.8238544464111328,-166.93115234375,61.1572265625,-166.56494140625
4.600740909576416,-1267565574,1,-0.3448445200920105,0.9853302836418152,0.7938251495361328,-269.1650390625,-21.42333984375,-198.1201171875
4.619417905807495,-1267565573,0,1.0882445573806763,-0.052798788994550705,0.2233259379863739,-179.62646484375,-2.197265625,94.7265625
4.619476079940796,-1267565554,0,1.2093383073806763,0.097591832280159,0.1676618754863739,-156.494140625,-65.185546875,133.544921875
4.6267218589782715,-1267565555,1,-0.1946980357170105,0.6603791117668152,0.9344501495361328,-386.04736328125,-112.73193359375,-196.8994140625
4.649801969528198,-1267565518,0,2.1456174850463867,0.4701504409313202,0.3053571879863739,-215.087890625,-139.6484375,49.74365234375
4.656606197357178,-1267565519,1,-0.2359578013420105,0.2463165819644928,1.5806903839111328,-281.982421875,-151.3671875,-349.91455078125
4.697011947631836,-1267565500,1,-0.6121785044670105,0.2282501757144928,1.9932880401611328,-283.75244140625,-195.49560546875,-395.20263671875
4.697021007537842,-1267565481,1,-0.8890339732170105,0.3439728319644928,2.233034133911133,-267.4560546875,-235.595703125,-389.58740234375
4.709560871124268,-1267565499,0,2.1119260787963867,-0.3079257309436798,0.4786970317363739,-255.18798828125,-97.412109375,21.240234375
4.709789037704468,-1267565480,0,2.1534299850463867,-0.2571444809436798,0.3810407817363739,-234.55810546875,-134.033203125,53.77197265625
4.7098069190979,-1267565461,0,2.3983030319213867,-0.3001132309436798,0.4371931254863739,-175.9033203125,-220.8251953125,30.82275390625
4.716472864151001,-1267565462,1,-1.0157430171966553,0.5178009867668152,2.232301712036133,-203.9794921875,-218.44482421875,-311.1572265625
4.750878810882568,-1267565443,1,-1.2122762203216553,0.5470978617668152,2.083864212036133,-81.298828125,-96.37451171875,-217.71240234375
4.75088906288147,-1267565424,1,-1.4403035640716553,0.5776154398918152,2.205934524536133,34.72900390625,22.27783203125,-140.19775390625
4.769557952880859,-1267565442,0,2.6155881881713867,-0.3906894028186798,0.5097029209136963,-150.69580078125,-258.544921875,-5.126953125
4.769606113433838,-1267565423,0,2.5787229537963867,-0.5525546669960022,0.6061384677886963,-158.935546875,-225.09765625,-37.78076171875
4.769743919372559,-1267565404,0,2.3714475631713867,-0.6875644326210022,0.4708845317363739,-165.6494140625,-174.62158203125,-52.91748046875
4.7768189907073975,-1267565405,1,-1.4896199703216553,0.6027619242668152,2.289674758911133,92.529296875,28.076171875,-68.603515625
4.799345016479492,-1267565385,0,2.2034788131713867,-0.7864413857460022,0.2648298442363739,-160.70556640625,-169.49462890625,-66.162109375
4.79939079284668,-1267565366,0,2.0887327194213867,-0.8152499794960022,0.0643903985619545,-167.17529296875,-199.15771484375,-98.14453125
4.806700944900513,-1267565386,1,-1.2928426265716553,0.2761017382144928,2.195924758911133,101.62353515625,-55.72509765625,-15.07568359375
4.806843996047974,-1267565367,1,-1.1776082515716553,0.1274200975894928,1.9478778839111328,74.70703125,-170.7763671875,-20.751953125
4.84037184715271,-1267565347,0,2.0118284225463867,-0.9126620888710022,-0.2163713276386261,-183.53271484375,-226.86767578125,-131.40869140625
4.8436808586120605,-1267565348,1,-1.2508504390716553,0.1386505663394928,1.5719013214111328,35.15625,-247.00927734375,-5.4931640625
4.860191822052002,-1267565328,0,1.9495726823806763,-1.0025057792663574,-0.3252580463886261,-194.580078125,-278.4423828125,-170.95947265625
4.860201835632324,-1267565309,0,1.9837523698806763,-1.0977206230163574,-0.2266252338886261,-195.25146484375,-315.673828125,-183.77685546875
4.86714506149292,-1267565329,1,-1.1697957515716553,0.1674591600894928,1.2486591339111328,39.00146484375,-252.25830078125,69.51904296875
4.867284059524536,-1267565310,1,-0.8670613169670105,-0.0996306836605072,1.0372333526611328,81.84814453125,-212.34130859375,130.31005859375
4.8958189487457275,-1267565290,0,2.0135374069213867,-1.1497225761413574,-0.0298478826880455,-191.10107421875,-330.01708984375,-186.767578125
4.896417856216431,-1267565291,1,-0.5316120982170105,-0.3047088086605072,0.9073505401611328,159.66796875,-140.625,113.76953125
4.919471025466919,-1267565254,0,1.8301879167556763,-1.0440096855163574,0.2103864848613739,-227.05078125,-286.31591796875,-186.21826171875
4.939929962158203,-1267565255,1,-0.1822468638420105,-0.3215545117855072,0.7310810089111328,232.0556640625,-70.9228515625,116.455078125
4.9494309425354,-1267565235,0,1.5982543230056763,-1.0642733573913574,0.3131696879863739,-230.3466796875,-280.3955078125,-173.03466796875
4.949560880661011,-1267565216,0,1.3846312761306763,-1.0037264823913574,0.4276716411113739,-203.67431640625,-311.21826171875,-149.4140625
4.958272933959961,-1267565236,1,0.9205363392829895,0.6965119242668152,0.6322040557861328,348.2666015625,0.6103515625,94.970703125
4.958383083343506,-1267565217,1,0.4173625111579895,-0.4231170117855072,0.6998310089111328,324.951171875,23.4375,-57.0068359375
4.9923460483551025,-1267565197,0,1.3821898698806763,-0.7991366982460022,0.5787947177886963,-171.2646484375,-330.078125,-127.44140625
4.99625301361084,-1267565198,1,0.3709757924079895,-0.0988982617855072,0.9681415557861328,359.375,43.64013671875,64.8193359375
5.010818004608154,-1267565178,0,1.4771605730056763,-0.5432773232460022,0.7033064365386963,-144.4091796875,-321.22802734375,-128.23486328125
5.0109028816223145,-1267565159,0,1.4942504167556763,-0.3408847153186798,0.6605818271636963,-150.634765625,-284.423828125,-124.755859375
5.018095016479492,-1267565179,1,0.4300578236579895,0.0971466600894928,0.6085224151611328,428.52783203125,102.47802734375,29.11376953125
5.0181968212127686,-1267565160,1,0.2967570424079895,0.3512970507144928,0.3509540557861328,421.7529296875,168.9453125,7.568359375
5.048602104187012,-1267565140,0,1.4832640886306763,-0.187808558344841,0.5690290927886963,-169.37255859375,-259.33837890625,-114.68505859375
5.04909086227417,-1267565141,1,0.2547648549079895,0.6188752055168152,0.2474384307861328,391.7236328125,244.81201171875,41.3818359375
5.049097776412964,-1267565122,1,0.0728800892829895,0.7165314555168152,0.2093524932861328,366.27197265625,266.54052734375,70.49560546875
5.070745944976807,-1267565121,0,1.4656859636306763,-0.121158167719841,0.5360701084136963,-179.19921875,-266.7236328125,-108.3984375
5.070846080780029,-1267565102,0,1.3851195573806763,-0.173404261469841,0.7523787021636963,-135.009765625,-308.65478515625,-101.1962890625
5.093049049377441,-1267565103,1,0.0855754017829895,0.7612091898918152,0.08484078198671341,234.4970703125,236.51123046875,128.5400390625
5.099139928817749,-1267565083,0,1.4053832292556763,0.074398472905159,1.1212751865386963,-26.18408203125,-339.7216796875,-93.93310546875
5.099254846572876,-1267565064,0,1.5630980730056763,0.5392422080039978,1.2675154209136963,62.8662109375,-328.67431640625,-131.4697265625
5.1066200733184814,-1267565084,1,0.2423136830329895,0.4462677538394928,0.1583271026611328,152.16064453125,225.40283203125,176.81884765625
5.10673189163208,-1267565065,1,0.3826945424079895,0.3224884569644928,0.2454853057861328,172.54638671875,265.380859375,162.353515625
5.141183853149414,-1267565045,0,1.8897582292556763,0.7958340048789978,0.9220564365386963,65.673828125,-310.6689453125,-232.97119140625
5.144769906997681,-1267565046,1,0.2701457142829895,0.4023224413394928,0.3162860870361328,197.3876953125,281.79931640625,150.81787109375
5.159415006637573,-1267565026,0,1.4639769792556763,0.5905117392539978,0.4550153911113739,-46.20361328125,-294.5556640625,-216.552734375
5.166788101196289,-1267565027,1,0.1732218861579895,0.4042755663394928,0.3590106964111328,130.0048828125,237.1826171875,159.66796875
5.195302963256836,-1267564990,0,0.8306761384010315,0.3143887221813202,0.2406599223613739,-170.7763671875,-245.54443359375,-21.97265625
5.197377920150757,-1267564991,1,0.2113078236579895,0.2585236132144928,0.6585712432861328,7.2021484375,153.4423828125,165.95458984375
5.197385787963867,-1267564972,1,0.2188761830329895,0.2963654100894928,0.7430438995361328,26.4892578125,159.1796875,168.51806640625
5.219293117523193,-1267564971,0,0.6431761384010315,0.129574254155159,0.1705915629863739,-216.4306640625,-265.869140625,-9.58251953125
5.219397068023682,-1267564952,0,0.6500120759010315,-0.156314417719841,0.1151716485619545,-220.88623046875,-307.67822265625,4.2724609375
5.226586103439331,-1267564953,1,0.0953410267829895,0.5097443461418152,0.7640399932861328,70.9228515625,175.048828125,177.18505859375
5.250027894973755,-1267564933,0,0.8201780915260315,-0.5137363076210022,0.1046736016869545,-194.27490234375,-384.8876953125,58.10546875
5.250035762786865,-1267564914,0,1.0660277605056763,-0.7620273232460022,0.1808454692363739,-150.45166015625,-453.79638671875,130.7373046875
5.256608963012695,-1267564934,1,0.043339069932699203,0.5964142680168152,0.7327899932861328,60.60791015625,164.1845703125,202.63671875
5.256736993789673,-1267564915,1,0.0008586011826992035,0.5798127055168152,0.6973896026611328,-14.16015625,132.14111328125,232.421875
5.291062831878662,-1267564895,0,1.3294554948806763,-1.0205721855163574,0.2914411723613739,-123.1689453125,-458.19091796875,193.42041015625
5.294785022735596,-1267564896,1,-0.014766398817300797,0.4953400194644928,0.6983661651611328,-106.201171875,110.7177734375,253.23486328125
5.309319019317627,-1267564876,0,1.4500609636306763,-1.2046542167663574,0.3075544536113739,-125.91552734375,-422.91259765625,247.9248046875
5.309416055679321,-1267564857,0,1.5045043230056763,-1.6541171073913574,0.2199079692363739,-134.8876953125,-380.31005859375,307.7392578125
5.3166749477386475,-1267564877,1,-0.024532023817300797,0.4135529100894928,0.7650165557861328,-168.8232421875,142.333984375,303.28369140625
5.3167641162872314,-1267564858,1,0.1715129017829895,0.1657501757144928,0.9298114776611328,-190.49072265625,184.50927734375,311.21826171875
5.34752082824707,-1267564838,0,1.6924926042556763,-2.2393221855163574,0.0831892266869545,-88.80615234375,-416.80908203125,368.95751953125
5.347954034805298,-1267564839,1,0.7086222767829895,-0.1211150586605072,1.2816181182861328,-149.169921875,236.51123046875,224.12109375
5.347959995269775,-1267564820,1,0.8541300892829895,0.2416779100894928,1.4908466339111328,-105.8349609375,197.69287109375,60.24169921875
5.3693459033966064,-1267564819,0,2.3006467819213867,-2.6946444511413574,0.1576521098613739,-18.06640625,-478.33251953125,495.1171875
5.369442939758301,-1267564800,0,3.0023069381713867,-3.0386385917663574,0.3637067973613739,24.71923828125,-478.94287109375,615.66162109375
5.3764488697052,-1267564801,1,0.6583293080329895,0.6615998148918152,1.0736103057861328,-190.673828125,23.86474609375,-36.31591796875
5.400559902191162,-1267564781,0,4.319933891296387,-3.4458651542663574,0.7628767490386963,57.2509765625,-404.47998046875,785.09521484375
5.406702995300293,-1267564782,1,0.8328898549079895,0.2067658007144928,0.6793231964111328,-305.5419921875,-38.330078125,-67.56591796875
5.406795978546143,-1267564763,1,0.9737589955329895,-0.036642398685216904,0.6636981964111328,-340.8203125,19.71435546875,-115.3564453125
5.440738916397095,-1267564762,0,5.181994438171387,-3.6380038261413574,1.1473982334136963,79.65087890625,-295.47119140625,905.6396484375
5.458699941635132,-1267564726,0,5.419299125671387,-4.228335857391357,1.4142439365386963,297.36328125,-147.03369140625,932.861328125
5.459431171417236,-1267564707,0,5.454211235046387,-4.585025310516357,1.2697126865386963,393.12744140625,-77.69775390625,953.67431640625
5.466684103012085,-1267564727,1,1.1800577640533447,-0.1782439649105072,1.7928485870361328,-374.93896484375,120.1171875,-182.43408203125
5.466817855834961,-1267564708,1,1.0350382328033447,0.0011993981897830963,2.444215774536133,-350.9521484375,61.21826171875,-193.115234375
5.495998859405518,-1267564688,0,5.477892875671387,-4.607242107391357,1.0443708896636963,443.54248046875,40.46630859375,1020.08056640625
5.496612071990967,-1267564689,1,0.8304484486579895,0.025613460689783096,2.822877883911133,-318.9697265625,-35.94970703125,-187.43896484375
5.496706962585449,-1267564670,1,0.4801066517829895,0.0634552538394928,2.953004837036133,-232.48291015625,-94.23828125,-167.29736328125
5.5193541049957275,-1267564669,0,4.960803031921387,-4.216617107391357,0.2579939067363739,420.83740234375,103.21044921875,1010.6201171875
5.519504070281982,-1267564650,0,4.327258110046387,-4.320621013641357,-0.7195451259613037,493.46923828125,-35.33935546875,827.45361328125
5.526705026626587,-1267564651,1,0.2127726674079895,0.1379181444644928,2.961793899536133,-169.677734375,-132.50732421875,-148.0712890625
5.553046941757202,-1267564631,0,4.136096000671387,-4.336734294891357,-0.7227189540863037,637.0849609375,-181.57958984375,738.95263671875
5.556730031967163,-1267564632,1,-0.046992961317300797,0.3154083788394928,2.751832962036133,-149.0478515625,-180.5419921875,-121.826171875
5.556877851486206,-1267564613,1,-0.016719523817300797,0.2719513475894928,2.632936477661133,-164.24560546875,-229.30908203125,-108.154296875
5.591484069824219,-1267564612,0,4.348010063171387,-3.2615389823913574,-0.1519182026386261,838.5009765625,-212.7685546875,573.8525390625
5.591490030288696,-1267564593,0,4.019396781921387,-1.8850741386413574,-0.0432756170630455,539.61181640625,278.38134765625,339.78271484375
5.594260931015015,-1267564594,1,-0.2059285044670105,0.4587189257144928,2.647340774536133,-125.79345703125,-272.64404296875,-107.91015625
5.609310150146484,-1267564574,0,2.4886350631713867,-2.5911288261413574,-0.3482072651386261,322.021484375,558.10546875,147.8271484375
5.609505891799927,-1267564555,0,1.3421508073806763,-2.6414217948913574,-0.6585099697113037,280.70068359375,536.56005859375,103.45458984375
5.616690158843994,-1267564575,1,-0.3201863169670105,0.5895783305168152,2.491823196411133,-112.9150390625,-325.13427734375,-96.6796875
5.616801023483276,-1267564556,1,-0.2017781138420105,0.4472443163394928,2.143434524536133,-82.51953125,-384.82666015625,-90.63720703125
5.647474050521851,-1267564536,0,0.8067503571510315,-2.2085604667663574,-1.1831681728363037,234.68017578125,348.93798828125,121.15478515625
5.647948980331421,-1267564537,1,-0.5655476450920105,1.0761505365371704,0.9976825714111328,-110.65673828125,-407.2265625,-57.92236328125
5.669417142868042,-1267564517,0,0.2833128869533539,-2.1008944511413574,-1.1597306728363037,88.5009765625,156.494140625,171.875
5.669475078582764,-1267564498,0,0.3279906213283539,-1.5349764823913574,-0.4663713276386261,33.203125,-12.63427734375,188.4765625
5.6765358448028564,-1267564518,1,-0.039424601942300797,0.5063263773918152,0.7501239776611328,-160.64453125,-361.26708984375,-49.86572265625
5.67662501335144,-1267564499,1,-0.0897175669670105,0.5805451273918152,0.6427021026611328,-146.17919921875,-329.28466796875,-75.8056640625
5.7059409618377686,-1267564463,1,0.034305866807699203,0.4921661913394928,-0.04308890551328659,-202.33154296875,-368.34716796875,-177.06298828125
5.740855932235718,-1267564444,1,-0.0728718638420105,0.7631623148918152,-0.5938701629638672,-243.1640625,-320.068359375,-204.65087890625
5.759670972824097,-1267564462,0,-0.044567983597517014,-1.5703768730163574,0.9030134677886963,25.634765625,12.20703125,209.16748046875
5.759855031967163,-1267564443,0,0.2230101376771927,-0.7512851357460022,0.2355329692363739,-49.6826171875,56.0302734375,170.8984375
5.759871959686279,-1267564424,0,0.1463499814271927,-0.6604648232460022,0.7697126865386963,-60.791015625,60.05859375,80.56640625
5.760684013366699,-1267564405,0,-0.050427358597517014,-0.8794589638710022,0.6950056552886963,-115.8447265625,35.46142578125,22.39990234375
5.768748998641968,-1267564425,1,0.2208293080329895,0.3324982225894928,-0.7420635223388672,-296.44775390625,-258.9111328125,-253.90625
5.768763065338135,-1267564406,1,0.1400187611579895,0.2018829882144928,-0.3997783660888672,-244.5068359375,-225.5859375,-344.78759765625
5.796938896179199,-1267564386,0,-0.2325562685728073,-1.0256991386413574,0.6488630771636963,-146.728515625,16.2353515625,50.47607421875
5.797505855560303,-1267564387,1,-0.1104695200920105,0.2182404100894928,-0.2210674285888672,-157.71484375,-226.07421875,-378.173828125
5.819479942321777,-1267564367,0,-0.2467164248228073,-0.9785800576210022,0.6723005771636963,-136.29150390625,-54.6875,109.06982421875
5.819603204727173,-1267564348,0,0.052355844527482986,-0.8775058388710022,0.7806990146636963,-151.67236328125,-93.93310546875,152.77099609375
5.826786994934082,-1267564368,1,-0.1426960825920105,0.0734650194644928,-0.2132549285888672,-39.36767578125,-212.46337890625,-367.98095703125
5.826846122741699,-1267564349,1,-0.049678508192300797,-0.2990935742855072,-0.1759014129638672,54.01611328125,-142.88330078125,-366.39404296875
5.8491880893707275,-1267564329,0,0.2691527307033539,-0.8181796669960022,0.8705427646636963,-183.28857421875,-105.52978515625,167.05322265625
5.8566460609436035,-1267564330,1,0.2186320424079895,-0.3586638867855072,0.1641864776611328,131.7138671875,-94.482421875,-370.54443359375
5.856805086135864,-1267564311,1,0.1629679799079895,-0.9387419819831848,0.8573017120361328,178.3447265625,-104.55322265625,-415.52734375
5.89052414894104,-1267564310,0,0.3543578088283539,-0.8010898232460022,0.9149763584136963,-194.9462890625,-121.9482421875,160.64453125
5.8914690017700195,-1267564291,0,0.4063597619533539,-0.9199863076210022,0.9782087802886963,-212.890625,-152.34375,155.517578125
5.893935918807983,-1267564292,1,0.044803913682699203,-0.8772185444831848,1.2782001495361328,268.37158203125,-151.123046875,-459.228515625
5.909409999847412,-1267564272,0,0.4512816369533539,-0.9216952919960022,1.1669294834136963,-229.06494140625,-189.14794921875,161.376953125
5.916601896286011,-1267564273,1,-0.3511921763420105,-0.5053923726081848,1.3023700714111328,278.86962890625,-219.66552734375,-418.212890625
5.916707992553711,-1267564254,1,-0.5164753794670105,-0.7199919819831848,1.0870380401611328,198.54736328125,-248.10791015625,-327.69775390625
5.946019887924194,-1267564253,0,0.5496702790260315,-0.9011874794960022,1.3563826084136963,-219.8486328125,-228.57666015625,175.048828125
5.946027994155884,-1267564234,0,0.6185179352760315,-0.8811679482460022,1.3834822177886963,-205.56640625,-243.1640625,183.04443359375
5.950473070144653,-1267564235,1,-0.6116902232170105,-1.2834686040878296,0.8768329620361328,138.36669921875,-231.0791015625,-318.84765625
5.969178915023804,-1267564198,0,0.6021605134010315,-0.8628574013710022,1.2023298740386963,-236.083984375,-277.40478515625,175.23193359375
5.976460933685303,-1267564199,1,-1.3016316890716553,-1.7580779790878296,0.4603290557861328,226.86767578125,-194.39697265625,-427.42919921875
5.999485015869141,-1267564179,0,0.6722288727760315,-1.0327792167663574,1.2267439365386963,-270.751953125,-312.98828125,159.97314453125
6.007108926773071,-1267564180,1,-1.8467977046966553,-1.7087615728378296,0.006471641361713409,230.1025390625,-242.7978515625,-432.55615234375
6.007264852523804,-1267564161,1,-2.1995809078216553,-1.3405975103378296,-0.4683818817138672,146.17919921875,-281.6162109375,-366.3330078125
6.044457912445068,-1267564160,0,0.7088499665260315,-1.1939120292663574,1.2804548740386963,-293.5791015625,-330.13916015625,138.36669921875
6.044466018676758,-1267564141,0,0.8687620759010315,-1.2300448417663574,1.3617537021636963,-309.50927734375,-327.33154296875,89.7216796875
6.046442985534668,-1267564142,1,-2.1561238765716553,-1.4682830572128296,-0.6295146942138672,13.0615234375,-264.58740234375,-284.1796875
6.059388160705566,-1267564122,0,0.9107542634010315,-1.3755526542663574,1.4244978427886963,-324.3408203125,-312.68310546875,28.076171875
6.066616058349609,-1267564123,1,-2.3175008296966553,-1.9651092290878296,-0.5321025848388672,-36.9873046875,-211.24267578125,-260.19287109375
6.066655874252319,-1267564104,1,-2.5494344234466553,-1.9409393072128296,-0.5960674285888672,-53.52783203125,-190.185546875,-288.51318359375
6.095945835113525,-1267564103,0,0.8860960602760315,-1.6565585136413574,1.5326521396636963,-329.89501953125,-294.86083984375,-46.630859375
6.095952987670898,-1267564084,0,0.7083616852760315,-2.0283846855163574,1.5536482334136963,-324.15771484375,-289.6728515625,-66.71142578125
6.098327875137329,-1267564085,1,-2.7098348140716553,-1.8332732915878296,-0.6541728973388672,-109.0087890625,-195.6787109375,-300.72021484375
6.121001958847046,-1267564065,0,0.5789671540260315,-2.2505526542663574,1.5026228427886963,-315.97900390625,-311.95068359375,-36.43798828125
6.121072053909302,-1267564046,0,0.6138792634010315,-2.0991854667663574,1.2616560459136963,-327.7587890625,-358.3984375,12.939453125
6.140826940536499,-1267564066,1,-2.7091023921966553,-1.7981170415878296,-0.5560283660888672,-175.6591796875,-193.05419921875,-275.45166015625
6.140836000442505,-1267564047,1,-2.7476766109466553,-2.16774582862854,-0.3741436004638672,-224.67041015625,-161.56005859375,-265.56396484375
6.149215936660767,-1267564027,0,1.2574340105056763,-1.7481112480163574,1.0538923740386963,-404.052734375,-356.01806640625,-42.724609375
6.1577489376068115,-1267564028,1,-3.0059773921966553,-2.40529465675354,-0.3143291473388672,-222.7783203125,-118.65234375,-312.92724609375
6.19156813621521,-1267564008,0,2.0169553756713867,-1.6936678886413574,1.4603865146636963,-466.552734375,-250.79345703125,-286.7431640625
6.191574811935425,-1267563989,0,2.3340940475463867,-2.1028475761413574,1.8207380771636963,-442.44384765625,-113.8916015625,-482.7880859375
6.1942150592803955,-1267564009,1,-3.6524617671966553,-2.34987473487854,-0.3084697723388672,-203.06396484375,-57.92236328125,-382.38525390625
6.194221019744873,-1267563990,1,-4.107783794403076,-1.9714568853378296,-0.2803936004638672,-229.736328125,-37.7197265625,-382.568359375
6.209139108657837,-1267563970,0,2.2925901412963867,-2.3259921073913574,1.5021345615386963,-341.00341796875,7.01904296875,-601.74560546875
6.216649770736694,-1267563971,1,-4.087764263153076,-1.8000701665878296,-0.3175029754638672,-313.53759765625,-54.19921875,-317.138671875
6.2476420402526855,-1267563934,0,1.9539672136306763,-1.4375643730163574,0.3058454692363739,-247.98583984375,-315.0634765625,-524.0478515625
6.248240947723389,-1267563935,1,-3.7095906734466553,-1.7419646978378296,0.03283882886171341,-419.73876953125,0.67138671875,-239.2578125
6.269412994384766,-1267563915,0,2.4732542037963867,-1.6995272636413574,0.8429548740386963,-258.85009765625,-532.40966796875,-495.05615234375
6.269546985626221,-1267563896,0,2.5901975631713867,-1.4998202323913574,1.4147322177886963,-269.71435546875,-455.9326171875,-437.31689453125
6.276738882064819,-1267563916,1,-3.5631062984466553,-1.5334686040878296,0.2266864776611328,-418.39599609375,54.50439453125,-220.52001953125
6.27685809135437,-1267563897,1,-3.2891805171966553,-1.3921111822128296,0.3507099151611328,-468.56689453125,98.388671875,-175.10986328125
6.299444913864136,-1267563877,0,2.3074827194213867,-1.3352694511413574,1.0763533115386963,-296.142578125,-288.2080078125,-396.66748046875
6.306828022003174,-1267563878,1,-2.9617879390716553,-1.3347381353378296,0.7655048370361328,-489.501953125,131.89697265625,-131.7138671875
6.332556962966919,-1267563858,0,1.7510863542556763,-0.8977695107460022,0.5192244052886963,-284.60693359375,-200.68359375,-403.9306640625
6.332564115524292,-1267563839,0,1.4612914323806763,-1.2512850761413574,0.5116560459136963,-235.29052734375,-285.58349609375,-376.708984375
6.34713888168335,-1267563859,1,-2.6912801265716553,-1.1675018072128296,0.9747333526611328,-481.01806640625,153.62548828125,-116.3330078125
6.3471457958221436,-1267563840,1,-2.5631062984466553,-0.9187224507331848,0.9066181182861328,-468.8720703125,171.2646484375,-99.609375
6.359357118606567,-1267563820,0,1.1534301042556763,-1.5532870292663574,0.9972517490386963,-142.39501953125,-348.81591796875,-343.56689453125
6.36662220954895,-1267563821,1,-2.3492391109466553,-0.7085173726081848,0.9024677276611328,-463.31787109375,197.69287109375,-56.15234375
6.366716146469116,-1267563802,1,-2.2891805171966553,-0.5166228413581848,0.9349384307861328,-480.5908203125,202.1484375,-5.615234375
6.3958539962768555,-1267563801,0,0.8892698884010315,-0.6355624794960022,0.6591169834136963,-96.49658203125,-337.21923828125,-291.015625
6.395862817764282,-1267563782,0,0.8372679352760315,-0.121890589594841,0.1288435161113739,-119.20166015625,-327.45361328125,-269.775390625
6.396517038345337,-1267563783,1,-1.9224812984466553,-0.4424041211605072,1.0072040557861328,-509.6435546875,169.3115234375,39.00146484375
6.419260025024414,-1267563763,0,0.7381468415260315,0.2814297378063202,0.0651228204369545,-174.1943359375,-320.556640625,-289.9169921875
6.419387102127075,-1267563744,0,1.0267211198806763,-0.143130823969841,0.1635114848613739,-219.66552734375,-311.767578125,-323.974609375
6.4266228675842285,-1267563764,1,-1.3060262203216553,-0.2234099805355072,1.3931903839111328,-474.42626953125,134.70458984375,41.32080078125
6.426717042922974,-1267563745,1,-1.4417684078216553,0.021951351314783096,0.7271747589111328,-402.52685546875,158.0810546875,134.21630859375
6.449161052703857,-1267563725,0,0.6539183259010315,-0.023013632744550705,0.1730329692363739,-298.33984375,-221.923828125,-342.8955078125
6.456576824188232,-1267563726,1,-1.4217488765716553,-0.0034392736852169037,0.9132099151611328,-398.37646484375,193.90869140625,163.39111328125
6.490497827529907,-1267563706,0,0.4044066369533539,0.161800816655159,0.2133161723613739,-293.27392578125,-153.13720703125,-314.8193359375
6.494093894958496,-1267563707,1,-1.6827352046966553,0.0881134569644928,0.6239032745361328,-375.48828125,254.69970703125,253.96728515625
6.509182929992676,-1267563670,0,0.2999144494533539,0.242611363530159,-0.1162736639380455,-344.66552734375,-153.80859375,-385.498046875
6.516777992248535,-1267563671,1,-1.0074422359466553,-0.5664275288581848,0.5860614776611328,-320.068359375,315.12451171875,136.962890625
6.516851902008057,-1267563652,1,-1.0089070796966553,-0.1530974805355072,0.6756610870361328,-268.00537109375,264.70947265625,140.380859375
6.546432971954346,-1267563651,0,0.09312732517719269,-0.119449183344841,0.0285017266869545,-332.3974609375,-136.8408203125,-357.23876953125
6.546441078186035,-1267563632,0,-0.3221558630466461,-0.094302698969841,0.1412946879863739,-274.2919921875,-118.65234375,-283.99658203125
6.546985149383545,-1267563633,1,-1.0113484859466553,-0.1206267774105072,0.4622821807861328,-257.32421875,243.0419921875,218.3837890625
6.569355010986328,-1267563613,0,-0.4141968786716461,0.152523472905159,0.1227400079369545,-209.41162109375,-118.1640625,-236.572265625
6.5694661140441895,-1267563594,0,-0.3514527380466461,0.3976406753063202,0.012144304811954498,-223.9990234375,-100.9521484375,-250.18310546875
6.576499938964844,-1267563614,1,-0.7813679575920105,-0.4846404492855072,0.1981220245361328,-194.580078125,302.24609375,272.216796875
6.576633930206299,-1267563595,1,-0.8975788950920105,-0.5532439351081848,0.2918720245361328,-55.6640625,421.142578125,188.90380859375
6.599353075027466,-1267563575,0,-0.3045777380466461,0.4801602065563202,0.0990583673119545,-274.96337890625,-53.1005859375,-285.7666015625
6.606822967529297,-1267563576,1,-0.8763386607170105,-0.3947966992855072,0.4239521026611328,33.5693359375,411.1328125,84.77783203125
6.6428141593933105,-1267563556,0,-0.2281617373228073,0.2924160659313202,0.3051130473613739,-291.1376953125,-24.4140625,-289.36767578125
6.642822027206421,-1267563537,0,-0.3443726599216461,0.244564488530159,0.4122907817363739,-271.240234375,2.5634765625,-257.62939453125
6.64615797996521,-1267563557,1,-0.8892781138420105,-0.4167693555355072,0.4298114776611328,35.46142578125,338.2568359375,11.53564453125
6.646164178848267,-1267563538,1,-0.9971882700920105,-0.4992888867855072,0.2960224151611328,-1.52587890625,248.59619140625,-94.7265625
6.659461975097656,-1267563518,0,-0.5186890959739685,0.3200039565563202,0.3700544536113739,-221.00830078125,8.544921875,-240.78369140625
6.668102025985718,-1267563519,1,-1.2313191890716553,-0.5158904194831848,0.1634540557861328,-35.33935546875,207.33642578125,-186.34033203125
6.66820502281189,-1267563500,1,-1.4105184078216553,-0.5498259663581848,0.11902046948671341,-61.6455078125,203.0029296875,-246.15478515625
6.697054862976074,-1267563499,0,-0.5013551115989685,0.3661465346813202,0.2540876567363739,-213.37890625,-13.0615234375,-252.197265625
6.697062969207764,-1267563480,0,-0.4583863317966461,0.3593105971813202,0.1776716411113739,-231.01806640625,-26.7333984375,-257.080078125
6.698723077774048,-1267563481,1,-1.6483113765716553,-0.5932829976081848,0.1468524932861328,-75.01220703125,203.55224609375,-288.6962890625
6.719827175140381,-1267563461,0,-0.4376343786716461,0.247738316655159,0.1046736016869545,-263.5498046875,-51.08642578125,-259.6435546875
6.7265849113464355,-1267563462,1,-1.9295613765716553,-0.6303923726081848,0.1722431182861328,-102.84423828125,206.11572265625,-327.45361328125
6.726664066314697,-1267563443,1,-2.2342488765716553,-0.7002165913581848,0.2047138214111328,-125.42724609375,220.15380859375,-338.56201171875
6.749229907989502,-1267563442,0,-0.5189332365989685,0.207455113530159,0.1146833673119545,-284.36279296875,-63.4765625,-251.953125
6.791280031204224,-1267563407,1,-2.5594441890716553,-0.8615935444831848,0.3265399932861328,-127.685546875,251.89208984375,-398.0712890625
6.792830944061279,-1267563388,1,-2.8973348140716553,-0.9836638569831848,0.4073505401611328,-162.9638671875,248.35205078125,-414.61181640625
6.809131860733032,-1267563406,0,-0.6849488615989685,0.022152382880449295,0.1766950786113739,-316.58935546875,-62.31689453125,-230.1025390625
6.809255123138428,-1267563387,0,-0.7728394865989685,-0.133609339594841,0.2072126567363739,-305.35888671875,-82.763671875,-210.9375
6.81049108505249,-1267563368,0,-0.7828492522239685,-0.2964511215686798,0.2841169536113739,-265.31982421875,-136.04736328125,-176.025390625
6.816549062728882,-1267563369,1,-2.9927937984466553,-1.2163299322128296,0.5306415557861328,-182.7392578125,251.64794921875,-401.79443359375
6.816626071929932,-1267563350,1,-3.0721395015716553,-1.6809295415878296,0.8375263214111328,-151.67236328125,286.80419921875,-408.203125
6.845321893692017,-1267563349,0,-0.6485719084739685,-0.3030429184436798,0.4340192973613739,-242.919921875,-164.306640625,-140.869140625
6.845329999923706,-1267563330,0,-0.5008668303489685,-0.3684726059436798,0.5292341709136963,-269.1650390625,-145.99609375,-123.10791015625
6.846740961074829,-1267563331,1,-3.2821004390716553,-1.9624236822128296,1.1966571807861328,-56.640625,315.49072265625,-457.763671875
6.869578838348389,-1267563311,0,-0.4906128942966461,-0.5217929482460022,0.5875837802886963,-299.13330078125,-143.798828125,-109.2529296875
6.876564025878906,-1267563312,1,-3.4798543453216553,-2.08278489112854,1.6033954620361328,-4.150390625,281.43310546875,-563.41552734375
6.87666916847229,-1267563293,1,-4.360713481903076,-1.7749236822128296,1.8809833526611328,2.01416015625,209.77783203125,-602.84423828125
6.90057110786438,-1267563292,0,-0.6622437834739685,-0.6756015419960022,0.7155134677886963,-321.6552734375,-175.96435546875,-95.703125
6.900579929351807,-1267563273,0,-0.8021363615989685,-0.7700839638710022,0.9882185459136963,-322.265625,-241.27197265625,-65.12451171875
6.906866073608398,-1267563274,1,-4.244990825653076,-1.1548064947128296,2.076051712036133,-29.60205078125,117.85888671875,-535.15625
6.941016912460327,-1267563254,0,-0.7845582365989685,-0.8562656044960022,1.4032576084136963,-329.40673828125,-267.2119140625,-2.38037109375
6.941023826599121,-1267563235,0,-0.7669801115989685,-0.9202304482460022,1.7223494052886963,-345.64208984375,-235.16845703125,63.53759765625
6.9460670948028564,-1267563255,1,-3.3992879390716553,-1.5163787603378296,2.230104446411133,-11.04736328125,55.48095703125,-498.1689453125
6.94607400894165,-1267563236,1,-2.5562703609466553,-2.60304856300354,2.180788040161133,54.13818359375,-37.17041015625,-571.4111328125
6.959429025650024,-1267563216,0,-0.8387574553489685,-0.9675937294960022,1.9203474521636963,-338.07373046875,-153.9306640625,124.57275390625
6.966706991195679,-1267563217,1,-2.4505574703216553,-3.19508957862854,2.390260696411133,134.82666015625,-87.82958984375,-698.3642578125
6.996335983276367,-1267563197,0,-0.9740113615989685,-0.8821445107460022,1.8544294834136963,-298.76708984375,-77.7587890625,140.93017578125
6.997257947921753,-1267563178,0,-1.2096070051193237,-0.6624179482460022,1.6207869052886963,-249.32861328125,-32.89794921875,128.90625
6.999011039733887,-1267563198,1,-3.4381062984466553,-3.65578293800354,2.900758743286133,296.2646484375,-144.6533203125,-837.70751953125
6.999017953872681,-1267563179,1,-4.175166606903076,-3.62868332862854,2.849489212036133,535.21728515625,-184.50927734375,-801.6357421875
7.025784015655518,-1267563143,1,-3.5574910640716553,-3.96022629737854,2.818239212036133,961.9140625,-117.24853515625,-609.7412109375
7.049340009689331,-1267563142,0,-1.5785034894943237,-0.2559237778186798,1.2763044834136963,-214.84375,-8.36181640625,150.5126953125
7.049465894699097,-1267563123,0,-1.6380738019943237,-0.050113242119550705,1.1486189365386963,-244.68994140625,10.43701171875,187.744140625
7.056922912597656,-1267563124,1,-4.299922466278076,-2.92751145362854,2.802125930786133,980.46875,-407.65380859375,-471.19140625
7.091536045074463,-1267563104,0,-1.5726441144943237,-0.012027304619550705,1.0538923740386963,-292.29736328125,40.58837890625,233.642578125
7.091543912887573,-1267563085,0,-1.3963745832443237,0.011654336005449295,0.9506208896636963,-309.26513671875,57.7392578125,265.380859375
7.095017194747925,-1267563105,1,-4.049434185028076,-1.7480682134628296,2.460329055786133,651.55029296875,-746.76513671875,-164.6728515625
7.095024108886719,-1267563086,1,-3.5699422359466553,-1.9756072759628296,2.146120071411133,473.93798828125,-804.87060546875,-5.55419921875
7.109834909439087,-1267563066,0,-1.1578491926193237,0.059750039130449295,0.9130232334136963,-295.7763671875,68.359375,269.6533203125
7.116518020629883,-1267563067,1,-3.0098836421966553,-1.9011443853378296,1.2481708526611328,479.736328125,-595.39794921875,-42.41943359375
7.146533012390137,-1267563047,0,-0.9918336272239685,0.004818398505449295,0.8991072177886963,-261.5966796875,98.14453125,266.90673828125
7.146539926528931,-1267563028,0,-0.7755250334739685,0.032162148505449295,0.7953474521636963,-217.71240234375,132.38525390625,279.23583984375
7.14712381362915,-1267563048,1,-2.5902059078216553,-1.7336639165878296,0.4530048370361328,431.2744140625,-396.8505859375,-83.8623046875
7.147219181060791,-1267563029,1,-2.2440145015716553,-1.4848846197128296,0.1661396026611328,291.56494140625,-281.73828125,-71.4111328125
7.169183969497681,-1267563009,0,-0.6349000334739685,0.083675816655159,0.6100447177886963,-194.27490234375,163.2080078125,284.66796875
7.176738023757935,-1267563010,1,-1.8550984859466553,-1.3437713384628296,0.02990914136171341,197.75390625,-187.56103515625,-32.28759765625
7.176851034164429,-1267562991,1,-1.2144734859466553,-1.5034393072128296,0.06286812573671341,100.830078125,-81.0546875,13.3056640625
7.20019006729126,-1267562990,0,-0.6270875334739685,0.003841836005449295,0.5922224521636963,-158.63037109375,171.2646484375,269.95849609375
7.200324058532715,-1267562971,0,-0.6829957365989685,-0.150943323969841,0.5121443271636963,-80.74951171875,178.7109375,275.45166015625
7.208469867706299,-1267562972,1,-0.2904011607170105,-1.7241424322128296,0.2169208526611328,28.564453125,-13.7939453125,2.3193359375
7.241873025894165,-1267562952,0,-0.5738648772239685,0.108334019780159,0.1976911723613739,-10.986328125,172.54638671875,289.0625
7.244457006454468,-1267562953,1,0.4166300892829895,-1.3083709478378296,0.3358173370361328,-48.15673828125,8.11767578125,-62.3779296875
7.244508981704712,-1267562934,1,0.5365031361579895,-0.9414275288581848,0.4564228057861328,-111.81640625,13.427734375,-94.17724609375
7.259313106536865,-1267562933,0,-0.6554078459739685,-0.115787073969841,0.3761579692363739,5.92041015625,168.15185546875,305.0537109375
7.259428024291992,-1267562914,0,-0.4744996130466461,-0.204410120844841,0.4288923442363739,36.4990234375,179.26025390625,341.6748046875
7.266676902770996,-1267562915,1,0.7208293080329895,-0.5073454976081848,0.5550556182861328,-171.875,-28.62548828125,-101.4404296875
7.296847105026245,-1267562878,0,-0.2613648474216461,0.037044961005449295,-0.0589006170630455,18.98193359375,230.712890625,318.54248046875
7.298923015594482,-1267562879,1,0.7877238392829895,-0.058859195560216904,0.4766864776611328,-247.25341796875,-64.8193359375,-109.9853515625
7.319458961486816,-1267562859,0,-0.2100953310728073,-0.179996058344841,-0.0652482733130455,42.236328125,204.04052734375,326.5380859375
7.327072858810425,-1267562860,1,0.7452433705329895,-0.1169646680355072,0.5716571807861328,-294.98291015625,-81.23779296875,-166.44287109375
7.327159881591797,-1267562841,1,0.3546183705329895,-0.1174529492855072,0.7889423370361328,-314.3310546875,-86.12060546875,-257.080078125
7.349278926849365,-1267562840,0,0.12095935642719269,-0.132388636469841,-0.0803849920630455,69.2138671875,215.63720703125,342.10205078125
7.349387884140015,-1267562821,0,0.3995238244533539,-0.174380823969841,-0.1458146870136261,82.21435546875,237.548828125,365.17333984375
7.356645107269287,-1267562822,1,-0.0814167857170105,0.1703888475894928,0.9957294464111328,-309.50927734375,-110.4736328125,-301.6357421875
7.390820026397705,-1267562802,0,0.5713987946510315,-0.091373011469841,-0.1387346088886261,49.49951171875,267.9443359375,373.4130859375
7.394330978393555,-1267562803,1,-0.3326374888420105,0.3561798632144928,0.8914813995361328,-304.26025390625,-146.3623046875,-290.52734375
7.394337892532349,-1267562784,1,-0.3760945200920105,0.1188751757144928,1.0843524932861328,-296.44775390625,-150.32958984375,-297.607421875
7.412254810333252,-1267562783,0,0.6219359040260315,-0.040591757744550705,-0.2078264057636261,13.671875,286.4990234375,374.1455078125
7.412265777587891,-1267562764,0,0.4442015588283539,-0.023013632744550705,-0.1211564764380455,-6.9580078125,265.31982421875,379.39453125
7.416531085968018,-1267562765,1,-0.7122761607170105,-0.1372283399105072,1.3948993682861328,-272.705078125,-134.27734375,-378.5400390625
7.445312976837158,-1267562745,0,0.3062621057033539,0.089046910405159,-0.1065080389380455,19.4091796875,210.3271484375,363.28125
7.445321798324585,-1267562726,0,0.1841917783021927,-0.4444003403186798,0.0368025079369545,62.80517578125,133.1787109375,349.853515625
7.446699857711792,-1267562746,1,-1.0772664546966553,-0.2422088086605072,1.4246845245361328,-282.5927734375,-145.8740234375,-455.87158203125
7.446737051010132,-1267562727,1,-1.4918172359466553,-0.3288787305355072,0.9073505401611328,-341.4306640625,-132.32421875,-482.666015625
7.469151973724365,-1267562707,0,0.2315550595521927,-0.6297031044960022,-0.0928361639380455,92.83447265625,74.951171875,415.58837890625
7.476408004760742,-1267562708,1,-1.6270711421966553,-0.4966033399105072,0.5384540557861328,-422.91259765625,-47.4853515625,-408.3251953125
7.4993510246276855,-1267562688,0,0.5743284821510315,-0.5017734169960022,0.0172712579369545,135.986328125,59.814453125,434.38720703125
7.4994590282440186,-1267562669,0,0.5447874665260315,-0.2827792465686798,0.0907575860619545,215.02685546875,33.0810546875,389.2822265625
7.50716495513916,-1267562689,1,-1.5037801265716553,-0.9875701069831848,1.0340595245361328,-423.9501953125,80.13916015625,-362.48779296875
7.507230758666992,-1267562670,1,-1.6014363765716553,-1.0757049322128296,1.6436786651611328,-402.16064453125,150.5126953125,-384.21630859375
7.5419440269470215,-1267562650,0,0.6041136384010315,-0.5745273232460022,0.1803571879863739,261.8408203125,39.36767578125,323.974609375
7.544579982757568,-1267562651,1,-1.8248250484466553,-0.9594939351081848,2.230348587036133,-422.36328125,153.1982421875,-404.9072265625
7.559209108352661,-1267562614,0,1.0521117448806763,-1.1619296073913574,0.2138044536113739,211.5478515625,196.10595703125,446.2890625
7.566884994506836,-1267562615,1,-2.1224324703216553,-0.5256560444831848,2.406373977661133,-432.92236328125,108.33740234375,-220.27587890625
7.5985798835754395,-1267562595,0,1.2794066667556763,-1.1677889823913574,-0.0598771795630455,139.70947265625,290.46630859375,458.31298828125
7.5985870361328125,-1267562576,0,1.0816527605056763,-1.4583163261413574,-0.4915178120136261,104.8583984375,246.7041015625,472.35107421875
7.599066972732544,-1267562596,1,-2.2183797359466553,-0.7605193257331848,2.849000930786133,-412.65869140625,135.68115234375,-79.7119140625
7.599073886871338,-1267562577,1,-1.9009969234466553,-1.1472381353378296,3.435182571411133,-357.97119140625,156.31103515625,-46.875
7.619511842727661,-1267562557,0,1.1507445573806763,-1.9734530448913574,-0.6165177822113037,55.0537109375,124.1455078125,476.98974609375
7.628411054611206,-1267562558,1,-1.1361043453216553,-1.5373748540878296,3.692506790161133,-299.74365234375,147.94921875,-131.65283203125
7.649785995483398,-1267562538,0,1.6768676042556763,-2.4434237480163574,-0.6345841884613037,-14.46533203125,21.54541015625,486.572265625
7.649894952774048,-1267562519,0,2.1392698287963867,-2.5071444511413574,-0.4453752338886261,-52.91748046875,83.80126953125,419.61669921875
7.656713008880615,-1267562539,1,-0.6195027232170105,-1.6176971197128296,3.727174758911133,-284.0576171875,105.28564453125,-279.6630859375
7.656842947006226,-1267562520,1,-1.0340535640716553,-0.0862029492855072,3.667116165161133,-347.65625,99.79248046875,-181.2744140625
7.691656112670898,-1267562500,0,2.6536741256713867,-2.3845858573913574,-0.6057755947113037,-109.80224609375,238.76953125,241.2109375
7.694292783737183,-1267562501,1,-1.2774617671966553,0.2790314257144928,3.253053665161133,-431.94580078125,119.9951171875,173.095703125
7.694299936294556,-1267562482,1,-0.3948933482170105,-0.6208708882331848,3.415163040161133,-380.06591796875,148.62060546875,391.6015625
7.709357023239136,-1267562481,0,2.7505979537963867,-2.3298983573913574,-0.8081681728363037,-233.3984375,373.53515625,107.36083984375
7.709423065185547,-1267562462,0,2.3765745162963867,-2.4942049980163574,-0.5994279384613037,-312.1337890625,406.25,82.09228515625
7.716542959213257,-1267562463,1,-0.2340046763420105,-0.7966521382331848,2.838991165161133,-372.37548828125,156.494140625,466.4306640625
7.745163917541504,-1267562443,0,2.1375608444213867,-2.3469882011413574,-0.0393693670630455,-237.24365234375,200.3173828125,187.744140625
7.745171070098877,-1267562424,0,2.4561643600463867,-2.1651034355163574,-0.5874650478363037,-218.75,20.8740234375,264.95361328125
7.7470009326934814,-1267562444,1,-1.0416219234466553,-0.6145232319831848,2.414674758911133,-349.2431640625,249.3896484375,607.0556640625
7.747129917144775,-1267562425,1,-2.6033895015716553,-0.9900115132331848,1.8685321807861328,-296.7529296875,449.21875,786.68212890625
7.7690839767456055,-1267562405,0,2.7393674850463867,-1.7820467948913574,-0.7061173915863037,-312.5,-141.2353515625,268.00537109375
7.776755094528198,-1267562406,1,-2.9569051265716553,-4.021261692047119,3.969118118286133,-270.32470703125,445.98388671875,901.79443359375
7.800771951675415,-1267562386,0,2.9388303756713867,-1.9619784355163574,-0.4893205463886261,-367.431640625,-163.39111328125,166.19873046875
7.8068320751190186,-1267562387,1,-1.2491414546966553,-3.27174973487854,2.753297805786133,-278.99169921875,279.11376953125,742.73681640625
7.840837001800537,-1267562350,0,2.3250608444213867,-0.8865390419960022,0.3512556254863739,-287.9638671875,4.638671875,177.1240234375
7.843562841415405,-1267562351,1,-1.5792195796966553,-1.4162811040878296,0.7337665557861328,-194.51904296875,367.49267578125,563.17138671875
7.843569993972778,-1267562332,1,-1.7445027828216553,-2.56520676612854,0.9876728057861328,-230.65185546875,383.30078125,636.29150390625
7.859422206878662,-1267562331,0,2.5396604537963867,0.005306679755449295,-0.3540666401386261,-234.06982421875,-15.80810546875,137.3291015625
7.85952091217041,-1267562312,0,2.3362913131713867,-0.9605136513710022,-0.7852189540863037,-529.60205078125,-149.23095703125,-18.98193359375
7.866780042648315,-1267562313,1,-0.3004109263420105,-2.60915207862854,1.2869892120361328,-158.203125,258.056640625,423.15673828125
7.898299932479858,-1267562293,0,1.6783324480056763,-1.4927401542663574,0.3903181254863739,-292.1142578125,-266.90673828125,98.44970703125
7.898353099822998,-1267562274,0,1.4905883073806763,-0.4307284653186798,0.6102888584136963,-193.90869140625,-270.751953125,209.47265625
7.8988049030303955,-1267562294,1,0.1573527455329895,-1.1523650884628296,0.9154071807861328,-61.21826171875,197.75390625,214.599609375
7.8988120555877686,-1267562275,1,0.9368937611579895,-0.2217009961605072,0.8428974151611328,3.96728515625,242.919921875,165.0390625
7.919418096542358,-1267562255,0,1.3516722917556763,0.4994473159313202,0.3121931254863739,-261.474609375,-253.60107421875,179.38232421875
7.926823139190674,-1267562256,1,0.0050089918076992035,0.6191193461418152,-0.4051494598388672,-15.56396484375,348.2666015625,266.29638671875
7.9493279457092285,-1267562236,0,1.4471312761306763,1.4408535957336426,-0.0288713201880455,-344.66552734375,-215.33203125,73.1201171875
7.949438095092773,-1267562217,0,1.9984008073806763,-0.3753085434436798,-0.2676408588886261,-525.93994140625,-141.9677734375,-143.61572265625
7.956811904907227,-1267562237,1,0.1888468861579895,0.0937286913394928,1.7948017120361328,-72.93701171875,243.46923828125,223.876953125
7.95691990852356,-1267562218,1,-0.008907023817300797,0.2553497850894928,0.7437763214111328,-7.38525390625,201.47705078125,322.021484375
7.991540908813477,-1267562198,0,0.9102659821510315,-0.8516269326210022,0.2445661723613739,-429.74853515625,-62.19482421875,14.70947265625
7.994269132614136,-1267562199,1,-0.037227336317300797,-0.2583220899105072,0.3387470245361328,-85.14404296875,121.4599609375,164.794921875
8.009358882904053,-1267562179,0,1.3326293230056763,0.3886074721813202,-0.0816056951880455,-291.19873046875,-80.322265625,56.21337890625
8.009481191635132,-1267562160,0,1.4393187761306763,0.9799160361289978,-0.4990861713886261,-303.28369140625,-129.5166015625,-18.1884765625
8.017768144607544,-1267562180,1,-0.0867878794670105,0.6178986430168152,0.06335640698671341,-84.3505859375,183.837890625,119.93408203125
8.01777696609497,-1267562161,1,-0.1094929575920105,0.7526642680168152,0.3150653839111328,97.59521484375,180.60302734375,118.7744140625
8.045823812484741,-1267562141,0,1.0982543230056763,0.6400722861289978,-0.5134904384613037,-395.32470703125,-210.693359375,-130.92041015625
8.046627044677734,-1267562142,1,-0.1851765513420105,-0.004171695560216904,-0.4039287567138672,91.4306640625,289.306640625,138.427734375
8.046705961227417,-1267562123,1,-0.041377726942300797,0.6943146586418152,-0.3863506317138672,21.78955078125,355.04150390625,154.296875
8.069123983383179,-1267562122,0,1.1063109636306763,0.3558926284313202,-0.4700334370136261,-430.2978515625,-254.150390625,-222.412109375
8.09908390045166,-1267562086,0,1.0225707292556763,0.4420742690563202,-0.2830217182636261,-364.501953125,-251.28173828125,-259.521484375
8.104279041290283,-1267562067,0,1.1312133073806763,0.2894863784313202,-0.3870256245136261,-352.23388671875,-270.69091796875,-313.720703125
8.10828685760498,-1267562087,1,-0.2205769419670105,0.8725373148918152,-0.2855205535888672,-104.00390625,228.21044921875,286.865234375
8.108398914337158,-1267562068,1,-0.1688191294670105,1.3469024896621704,-0.4945049285888672,-174.49951171875,196.71630859375,320.80078125
8.141642808914185,-1267562048,0,0.8338499665260315,-0.087710902094841,-0.1521623432636261,-338.2568359375,-318.84765625,-296.875
8.158815860748291,-1267562029,0,0.6585569977760315,-0.4085116684436798,0.1390974223613739,-249.51171875,-337.646484375,-217.1630859375
8.160547971725464,-1267562010,0,0.5137816071510315,-0.4199862778186798,0.3517439067363739,-172.91259765625,-319.4580078125,-145.99609375
8.168612003326416,-1267562049,1,-0.9034382700920105,0.1496368944644928,-0.8011455535888672,-291.748046875,309.38720703125,387.6953125
8.168734788894653,-1267562030,1,-0.0728718638420105,-0.1811736524105072,-0.2464580535888672,-263.85498046875,260.498046875,334.89990234375
8.198665857315063,-1267561991,0,0.3980589807033539,-0.5198398232460022,0.3212263286113739,-146.484375,-288.39111328125,-78.125
8.199150085449219,-1267562011,1,0.0894816517829895,-0.1125701367855072,0.01111031323671341,-182.92236328125,277.7099609375,201.7822265625
8.199157953262329,-1267561992,1,-0.0726277232170105,0.1091095507144928,0.2283954620361328,-158.0810546875,284.7900390625,221.98486328125
8.199165105819702,-1267561973,1,-0.0921589732170105,0.3085724413394928,0.4957294464111328,-132.32421875,242.24853515625,176.94091796875
8.221089839935303,-1267561972,0,0.3704710900783539,-0.8328281044960022,0.3200056254863739,-128.5400390625,-247.55859375,17.39501953125
8.221266031265259,-1267561953,0,0.3475218713283539,-0.9199863076210022,0.3261091411113739,-69.03076171875,-231.93359375,100.830078125
8.229252099990845,-1267561954,1,-0.0760456919670105,0.1340118944644928,0.5850849151611328,-101.62353515625,210.0830078125,148.193359375
8.250915050506592,-1267561934,0,0.7066527009010315,-0.6868320107460022,-0.0422990545630455,9.09423828125,-303.03955078125,116.88232421875
8.25104308128357,-1267561915,0,1.1871215105056763,-0.206119105219841,-0.4920060932636261,27.83203125,-384.521484375,71.10595703125
8.257490158081055,-1267561935,1,-0.1312214732170105,0.060769710689783096,0.3485126495361328,-150.146484375,206.48193359375,142.9443359375
8.257565021514893,-1267561916,1,-0.3267781138420105,0.0717560350894928,0.1737079620361328,-230.89599609375,205.322265625,163.26904296875
8.29136610031128,-1267561896,0,1.7693969011306763,-0.6917148232460022,-0.3220842182636261,87.2802734375,-489.8681640625,-41.68701171875
8.294317960739136,-1267561897,1,-0.5247761607170105,-0.1059783399105072,0.08337593823671341,-339.29443359375,265.80810546875,213.134765625
8.309314966201782,-1267561877,0,1.9378539323806763,-0.7361484169960022,-0.3589494526386261,179.931640625,-538.02490234375,32.28759765625
8.30939507484436,-1267561858,0,2.0169553756713867,-1.2383456230163574,-0.1677873432636261,231.99462890625,-460.14404296875,267.27294921875
8.316720008850098,-1267561878,1,-0.4244343638420105,-0.7878630757331848,0.4808368682861328,-365.05126953125,366.88232421875,218.20068359375
8.316824913024902,-1267561859,1,0.5235636830329895,-1.8051971197128296,1.4688739776611328,-245.17822265625,423.9501953125,61.46240234375
8.346206188201904,-1267561823,1,-1.0587117671966553,-2.25758957862854,1.9442157745361328,-180.11474609375,209.16748046875,-271.6064453125
8.369287014007568,-1267561822,0,3.2857542037963867,-1.8364901542663574,-0.3274553120136261,255.2490234375,-319.2138671875,581.23779296875
8.369386911392212,-1267561803,0,3.6255979537963867,-2.4519686698913574,-0.1924455463886261,286.62109375,-310.05859375,712.158203125
8.376601934432983,-1267561804,1,-0.8382527232170105,-2.01515793800354,1.6851825714111328,-215.087890625,69.64111328125,-394.8974609375
8.399286985397339,-1267561784,0,4.643176078796387,-3.1055331230163574,-0.0408342108130455,326.171875,-354.3701171875,813.65966796875
8.3993980884552,-1267561765,0,5.992297172546387,-3.0723299980163574,0.3405134379863739,276.85546875,-232.72705078125,992.12646484375
8.407710075378418,-1267561785,1,-0.9581257700920105,-1.5288299322128296,1.5142841339111328,-179.50439453125,71.47216796875,-466.00341796875
8.407719135284424,-1267561766,1,-0.8680378794670105,-0.6892302632331848,1.5885028839111328,-110.7177734375,119.140625,-551.6357421875
8.441449165344238,-1267561746,0,6.031847953796387,-2.7647128105163574,0.6515486240386963,146.97265625,-62.255859375,1019.04296875
8.444018125534058,-1267561747,1,-0.9815632700920105,0.3483673632144928,2.202516555786133,-98.6328125,156.6162109375,-579.4677734375
8.459867000579834,-1267561727,0,5.411974906921387,-3.9741854667663574,1.6234724521636963,50.537109375,66.83349609375,1004.150390625
8.460002899169922,-1267561708,0,5.684924125671387,-5.813052654266357,2.0824568271636963,253.11279296875,-23.5595703125,1075.74462890625
8.466667890548706,-1267561728,1,-1.2405965328216553,1.3044220209121704,2.983278274536133,-133.056640625,152.7099609375,-501.46484375
8.466763973236084,-1267561709,1,-1.0137898921966553,2.03415846824646,3.734254837036133,-207.09228515625,137.3291015625,-269.34814453125
8.496952056884766,-1267561689,0,6.224474906921387,-5.718081951141357,1.7284529209136963,627.74658203125,-204.833984375,1158.02001953125
8.497514963150024,-1267561690,1,-0.8123738169670105,0.9064728617668152,4.026491165161133,-286.0107421875,77.57568359375,-44.5556640625
8.497522115707397,-1267561671,1,-0.6097370982170105,-0.9526579976081848,3.893678665161133,-263.18359375,-44.61669921875,-112.36572265625
8.519380807876587,-1267561670,0,6.075304985046387,-5.026187419891357,1.0233747959136963,805.48095703125,-222.83935546875,1094.3603515625
8.519505023956299,-1267561651,0,5.686144828796387,-4.333560466766357,0.2626325786113739,834.65576171875,-156.43310546875,871.09375
8.52643609046936,-1267561652,1,-1.2950398921966553,-1.6743377447128296,4.598024368286133,-105.16357421875,-165.34423828125,-234.43603515625
8.555861949920654,-1267561633,1,-1.9002645015716553,-0.5503142476081848,3.864137649536133,50.4150390625,-294.0673828125,-247.61962890625
8.556766748428345,-1267561614,1,-1.5130574703216553,-0.1335662305355072,3.272584915161133,39.9169921875,-342.71240234375,-254.82177734375
8.580273151397705,-1267561632,0,5.033068656921387,-4.096744060516357,0.0502302423119545,824.03564453125,-51.57470703125,603.45458984375
8.580282926559448,-1267561613,0,4.168566703796387,-3.1001620292663574,-0.2222307026386261,767.27294921875,139.892578125,396.240234375
8.59468412399292,-1267561594,0,3.3909788131713867,-2.2744784355163574,-0.4627092182636261,496.9482421875,321.83837890625,250.67138671875
8.596500873565674,-1267561595,1,-1.6566121578216553,0.7521759867668152,3.249147415161133,2.99072265625,-379.69970703125,-277.16064453125
8.609139204025269,-1267561558,0,1.1915160417556763,-3.0012850761413574,-0.2410295307636261,332.1533203125,444.15283203125,-59.2041015625
8.61655306816101,-1267561559,1,-1.6597859859466553,1.1542755365371704,2.498170852661133,-69.2138671875,-572.32666015625,-227.96630859375
8.646270036697388,-1267561539,0,0.3909789025783539,-2.6648592948913574,-0.8418595790863037,214.4775390625,392.15087890625,-3.60107421875
8.646846055984497,-1267561540,1,-1.6497762203216553,0.8657013773918152,1.9993915557861328,-54.6875,-634.6435546875,-215.087890625
8.64697003364563,-1267561521,1,-1.3812215328216553,0.7682892680168152,1.1866474151611328,-18.310546875,-684.4482421875,-203.79638671875
8.669261932373047,-1267561520,0,-0.0015992335975170135,-1.9256014823913574,-0.6218888759613037,126.40380859375,193.7255859375,120.54443359375
8.669382095336914,-1267561501,0,0.6446409821510315,-0.5720859169960022,-0.0476701483130455,108.45947265625,43.39599609375,98.57177734375
8.67651915550232,-1267561502,1,-1.0274617671966553,0.5546662211418152,0.7369403839111328,-18.37158203125,-605.95703125,-171.93603515625
8.69924283027649,-1267561482,0,0.9063597321510315,-0.9973788857460022,0.6430037021636963,4.2724609375,81.48193359375,-36.9873046875
8.699367046356201,-1267561463,0,0.3240843713283539,-1.2686190605163574,0.8522322177886963,13.5498046875,126.64794921875,-37.53662109375
8.709753036499023,-1267561483,1,-0.8660847544670105,0.1818634569644928,0.7208271026611328,-3.90625,-544.12841796875,-210.205078125
8.709764003753662,-1267561464,1,-0.9354206919670105,0.4230743944644928,0.4234638214111328,27.7099609375,-538.4521484375,-157.77587890625
8.742073059082031,-1267561444,0,-0.4141968786716461,-1.2747225761413574,0.1268903911113739,-30.45654296875,117.1875,71.044921875
8.744774103164673,-1267561445,1,-1.1197469234466553,1.0529571771621704,-0.4693584442138672,-98.20556640625,-581.54296875,-161.19384765625
8.75932788848877,-1267561425,0,-0.3758668005466461,-0.9485507607460022,0.1622907817363739,-63.65966796875,-14.16015625,206.11572265625
8.759445905685425,-1267561406,0,0.2686644494533539,-0.3657870590686798,0.9955427646636963,-49.1943359375,-150.20751953125,258.48388671875
8.767194032669067,-1267561426,1,-0.9344441294670105,1.1677032709121704,-0.8253154754638672,-264.83154296875,-431.94580078125,-158.203125
8.767242908477783,-1267561407,1,-0.4410359263420105,0.3691193163394928,0.2213153839111328,-134.58251953125,-346.6796875,-245.4833984375
8.796085834503174,-1267561387,0,0.5281859040260315,0.051693398505449295,1.6173689365386963,-22.76611328125,-108.45947265625,205.13916015625
8.796609878540039,-1267561388,1,-0.4083210825920105,-0.1269744336605072,0.4390888214111328,80.99365234375,-347.412109375,-299.98779296875
8.819295883178711,-1267561368,0,0.1478148251771927,-0.019107382744550705,1.4396345615386963,-31.25,-24.96337890625,182.6171875
8.819401025772095,-1267561349,0,-0.11634533107280731,-0.3342929184436798,1.1342146396636963,2.685546875,-31.8603515625,212.21923828125
8.826738119125366,-1267561369,1,-0.7232624888420105,0.2367950975894928,-0.3048076629638672,152.40478515625,-291.68701171875,-301.6357421875
8.82683801651001,-1267561350,1,-0.5814167857170105,0.025125179439783096,-0.5137920379638672,30.33447265625,-231.50634765625,-250.42724609375
8.849102020263672,-1267561330,0,0.2501097619533539,-0.155337855219841,0.1105329766869545,-125.48828125,-101.5625,222.7783203125
8.856812953948975,-1267561331,1,-0.0799519419670105,-0.2361052930355072,0.04480171948671341,-74.64599609375,-214.84375,-189.0869140625
8.89195990562439,-1267561294,0,0.4683714807033539,-0.7346835732460022,1.0839216709136963,-184.6923828125,-239.1357421875,253.84521484375
8.896195888519287,-1267561295,1,0.0892375111579895,-0.5652068257331848,0.2769794464111328,5.79833984375,-151.18408203125,-280.8837890625
8.90927505493164,-1267561275,0,0.3687621057033539,-0.5662265419960022,1.1229841709136963,-181.45751953125,-193.54248046875,267.51708984375
8.909408807754517,-1267561256,0,0.3929320275783539,-0.7080722451210022,1.1288435459136963,-155.09033203125,-197.32666015625,282.958984375
8.916559934616089,-1267561276,1,-0.051143351942300797,-0.5285857319831848,0.2554950714111328,84.89990234375,-96.25244140625,-307.31201171875
