sync_time,timestamp_ms,device_id,ax,ay,az,gx,gy,gz
0.00884389877319336,-1355876705,1,0.007080152630805969,0.06637721508741379,1.087745189666748,1.89208984375,-2.62451171875,3.7841796875
0.035974979400634766,-1355876688,0,0.23013836145401,-0.2258610725402832,1.0469346046447754,15.380859375,2.197265625,-33.50830078125
0.03598308563232422,-1355876669,0,0.23282390832901,-0.2402653694152832,1.0532822608947754,15.44189453125,1.220703125,-34.85107421875
0.04036879539489746,-1355876686,1,-0.0031737536191940308,0.05099635571241379,1.108741283416748,2.197265625,-2.99072265625,2.74658203125
0.04038691520690918,-1355876667,1,-0.01586906611919403,0.04416041821241379,1.119727611541748,3.35693359375,-5.43212890625,2.38037109375
0.05405092239379883,-1355876650,0,0.23721843957901,-0.2236638069152832,1.0662217140197754,13.61083984375,-1.3427734375,-39.61181640625
0.05413389205932617,-1355876631,0,0.22305828332901,-0.2214665412902832,1.0657334327697754,14.16015625,-1.46484375,-42.1142578125
0.06898617744445801,-1355876648,1,-0.02001945674419403,0.04001002758741379,1.119239330291748,4.08935546875,-7.26318359375,-1.3427734375
0.06908988952636719,-1355876629,1,-0.02246086299419403,0.04562526196241379,1.120704174041748,4.82177734375,-9.6435546875,-5.18798828125
0.08747696876525879,-1355876612,0,0.22989422082901,-0.2068181037902832,1.0510849952697754,13.36669921875,-5.79833984375,-47.2412109375
0.09894990921020508,-1355876610,1,-0.01196281611919403,0.05783229321241379,1.107520580291748,7.01904296875,-11.1083984375,-7.6904296875
0.0990760326385498,-1355876591,1,-0.01269523799419403,0.07931666821241379,1.088965892791748,8.11767578125,-11.3525390625,-8.056640625
0.11381196975708008,-1355876593,0,0.23233562707901,-0.1714177131652832,1.0166611671447754,15.380859375,-5.126953125,-46.93603515625
0.1138308048248291,-1355876574,0,0.24820476770401,-0.1726384162902832,1.0056748390197754,17.39501953125,-5.7373046875,-45.41015625
0.13731884956359863,-1355876572,1,-0.01025383174419403,0.08664088696241379,1.071876049041748,9.033203125,-11.65771484375,-6.9580078125
0.1579439640045166,-1355876553,1,-0.00903312861919403,0.07834010571241379,1.047706127166748,6.04248046875,-11.23046875,-6.7138671875
0.15917110443115234,-1355876534,1,-0.01025383174419403,0.07052760571241379,1.030372142791748,5.126953125,-11.3525390625,-8.9111328125
0.18331480026245117,-1355876538,0,0.22086101770401,-0.1916813850402832,0.9602646231651306,13.24462890625,-2.38037109375,-47.2412109375
0.18332314491271973,-1355876519,0,0.22012859582901,-0.1992497444152832,0.9702743887901306,11.04736328125,-1.3427734375,-49.62158203125
0.18873000144958496,-1355876515,1,-0.0007323473691940308,0.06588893383741379,1.024268627166748,5.18798828125,-10.25390625,-13.7939453125
0.2055659294128418,-1355876500,0,0.19791179895401,-0.2048649787902832,0.9248642325401306,11.23046875,0.9765625,-55.419921875
0.20578885078430176,-1355876481,0,0.19986492395401,-0.2165837287902832,0.9470810294151306,11.41357421875,2.38037109375,-61.58447265625
0.220383882522583,-1355876479,1,-0.005615159869194031,0.05246119946241379,1.017188549041748,7.38525390625,-6.53076171875,-22.15576171875
0.24052977561950684,-1355876462,0,0.18668133020401,-0.2068181037902832,0.9487900137901306,13.3056640625,5.9814453125,-66.2841796875
0.24903082847595215,-1355876460,1,-0.01757805049419403,0.04513698071241379,1.022071361541748,8.23974609375,-3.90625,-30.517578125
0.24913692474365234,-1355876441,1,-0.02929680049419403,0.04171901196241379,1.023047924041748,8.4228515625,-6.53076171875,-35.2783203125
0.26553893089294434,-1355876443,0,0.19205242395401,-0.1997380256652832,0.9531845450401306,13.7939453125,7.26318359375,-72.08251953125
0.2656419277191162,-1355876424,0,0.16763836145401,-0.2126774787902832,0.9639267325401306,12.3291015625,8.9111328125,-78.91845703125
0.2852437496185303,-1355876422,1,-0.05053703486919403,0.03878932446241379,1.029639720916748,10.3759765625,-3.72314453125,-42.724609375
0.29689598083496094,-1355876405,0,0.14688640832901,-0.2002263069152832,0.9763779044151306,10.80322265625,7.14111328125,-84.53369140625
0.3103759288787842,-1355876403,1,-0.06298820674419403,0.04464869946241379,1.035987377166748,11.3525390625,-6.2255859375,-43.9453125
0.3105001449584961,-1355876384,1,-0.06958000361919403,0.05539088696241379,1.040626049041748,10.07080078125,-7.4462890625,-46.44775390625
0.3345677852630615,-1355876386,0,0.16275554895401,-0.1875309944152832,0.9844345450401306,11.04736328125,7.568359375,-85.205078125
0.33457517623901367,-1355876367,0,0.14151531457901,-0.1692204475402832,1.0071396827697754,9.46044921875,6.103515625,-85.87646484375
0.34040093421936035,-1355876365,1,-0.08789055049419403,0.03903346508741379,1.038672924041748,10.009765625,-10.1318359375,-46.9970703125
0.3552999496459961,-1355876348,0,0.14981609582901,-0.1753239631652832,0.9927353262901306,8.60595703125,3.23486328125,-86.97509765625
0.36972999572753906,-1355876346,1,-0.09521476924419403,0.03366237133741379,1.032569408416748,8.7890625,-14.70947265625,-47.36328125
0.3698089122772217,-1355876327,1,-0.09374992549419403,0.023652605712413788,1.029151439666748,9.58251953125,-15.5029296875,-49.4384765625
0.38755297660827637,-1355876329,0,0.12442547082901001,-0.1994938850402832,0.9868759512901306,5.7373046875,0.54931640625,-89.29443359375
0.3875598907470703,-1355876310,0,0.12003093957901001,-0.2080388069152832,1.0010361671447754,6.4697265625,0.9765625,-90.8203125
0.39980483055114746,-1355876308,1,-0.08642570674419403,0.019502215087413788,1.031592845916748,8.36181640625,-14.6484375,-51.26953125
0.3998689651489258,-1355876289,1,-0.10815422236919403,0.025605730712413788,1.036231517791748,9.033203125,-13.7939453125,-54.6875
0.41384196281433105,-1355876274,0,0.11514812707901001,-0.1719059944152832,1.0237412452697754,3.72314453125,1.5869140625,-93.994140625
0.44301700592041016,-1355876255,0,0.13248211145401,-0.1860661506652832,1.0269150733947754,-0.48828125,-2.9296875,-91.9189453125
0.460007905960083,-1355876270,1,-0.12719719111919403,0.03195338696241379,1.047461986541748,6.2255859375,-18.98193359375,-53.22265625
0.46001505851745605,-1355876251,1,-0.12597648799419403,0.03830104321241379,1.040137767791748,5.79833984375,-22.8271484375,-52.91748046875
0.4845709800720215,-1355876236,0,0.11417156457901001,-0.1806950569152832,0.9971298575401306,-1.46484375,-4.82177734375,-93.505859375
0.48457789421081543,-1355876217,0,0.14175945520401,-0.1797184944152832,1.0061631202697754,-2.9296875,-3.72314453125,-93.6279296875
0.48871302604675293,-1355876215,1,-0.10229484736919403,0.03756862133741379,1.043555736541748,3.41796875,-23.5595703125,-54.931640625
0.5038039684295654,-1355876198,0,0.11783367395401001,-0.1643376350402832,1.0354599952697754,-4.150390625,-5.37109375,-93.994140625
0.5188210010528564,-1355876196,1,-0.13159172236919403,0.04098659008741379,1.040137767791748,3.47900390625,-25.87890625,-55.84716796875
0.5188939571380615,-1355876177,1,-0.11401359736919403,0.025117449462413788,1.060889720916748,1.8310546875,-28.25927734375,-54.0771484375
0.5398578643798828,-1355876179,0,0.12711101770401,-0.1645817756652832,1.0186142921447754,-4.2724609375,-6.65283203125,-92.71240234375
0.5398659706115723,-1355876160,0,0.11099773645401001,-0.1841130256652832,1.0239853858947754,-5.4931640625,-6.77490234375,-93.32275390625
0.548818826675415,-1355876158,1,-0.10546867549419403,0.03341823071241379,1.061866283416748,2.5634765625,-29.47998046875,-55.48095703125
0.5489101409912109,-1355876139,1,-0.10229484736919403,0.009980730712413788,1.052100658416748,2.9296875,-28.01513671875,-57.80029296875
0.5638458728790283,-1355876141,0,0.12222820520401001,-0.1985173225402832,1.0259385108947754,-6.34765625,-6.77490234375,-96.13037109375
0.5639538764953613,-1355876122,0,0.13101726770401,-0.2112126350402832,0.9985947012901306,-6.9580078125,-6.53076171875,-99.67041015625
0.5853748321533203,-1355876120,1,-0.08959953486919403,-0.0012497380375862122,1.051368236541748,3.0517578125,-28.3203125,-60.6689453125
0.5983219146728516,-1355876103,0,0.10367351770401001,-0.2419743537902832,0.9866318106651306,-6.89697265625,-3.84521484375,-101.4404296875
0.6089668273925781,-1355876101,1,-0.08496086299419403,-0.005155988037586212,1.041114330291748,2.44140625,-25.57373046875,-65.5517578125
0.6090340614318848,-1355876082,1,-0.07104484736919403,-0.022245831787586212,1.031348705291748,3.47900390625,-25.81787109375,-71.6552734375
0.6366419792175293,-1355876084,0,0.13223797082901,-0.2458806037902832,0.9785751700401306,-8.85009765625,-1.953125,-108.33740234375
0.6366488933563232,-1355876065,0,0.10757976770401001,-0.2627263069152832,0.9597763419151306,-5.92041015625,-2.5634765625,-114.8681640625
0.6404280662536621,-1355876063,1,-0.06494133174419403,-0.029325909912586212,1.024512767791748,5.37109375,-26.2451171875,-79.9560546875
0.653749942779541,-1355876046,0,0.14908367395401,-0.2710270881652832,0.9317001700401306,-5.2490234375,0.3662109375,-123.4130859375
0.6704850196838379,-1355876044,1,-0.02685539424419403,-0.025175519287586212,1.019141674041748,8.544921875,-23.86474609375,-85.14404296875
0.670604944229126,-1355876025,1,-0.00927726924419403,-0.04128880053758621,1.002540111541748,11.23046875,-17.822265625,-90.4541015625
0.6879348754882812,-1355876010,0,0.17667156457901,-0.2771306037902832,0.9085068106651306,2.50244140625,7.62939453125,-132.99560546875
0.7005438804626465,-1355876006,1,0.03955085575580597,-0.028837628662586212,1.003760814666748,15.2587890625,-13.61083984375,-96.0693359375
0.7154548168182373,-1355875991,0,0.20474773645401,-0.3083806037902832,0.8801864981651306,3.2958984375,15.2587890625,-138.48876953125
0.7155649662017822,-1355875972,0,0.23087078332901,-0.3176579475402832,0.8743271231651306,6.9580078125,22.27783203125,-142.578125
0.7389590740203857,-1355875987,1,0.08276374638080597,-0.04470676928758621,1.002051830291748,15.31982421875,-6.04248046875,-99.12109375
0.7440261840820312,-1355875953,0,0.24649578332901,-0.3345036506652832,0.8718857169151306,8.48388671875,27.16064453125,-147.52197265625
0.7588388919830322,-1355875951,1,0.12426765263080597,-0.06130833178758621,1.012061595916748,19.775390625,5.0048828125,-109.2529296875
0.7588558197021484,-1355875932,1,0.12377937138080597,-0.05642551928758621,1.020606517791748,22.15576171875,7.9345703125,-118.46923828125
0.78432297706604,-1355875934,0,0.23917156457901,-0.3447575569152832,0.9102157950401306,13.5498046875,31.494140625,-156.8603515625
0.7843320369720459,-1355875915,0,0.25137859582901,-0.3113102912902832,0.8933700919151306,16.05224609375,36.4990234375,-167.8466796875
0.7887439727783203,-1355875913,1,0.13867194950580597,-0.019316144287586212,1.040626049041748,24.7802734375,15.68603515625,-127.74658203125
0.8054661750793457,-1355875896,0,0.27603679895401,-0.2742009162902832,0.9158310294151306,19.04296875,43.15185546875,-173.27880859375
0.8204960823059082,-1355875894,1,0.11230476200580597,-0.009306378662586212,1.055274486541748,26.85546875,22.3388671875,-133.36181640625
0.8411769866943359,-1355875877,0,0.28824383020401,-0.2485661506652832,0.9556259512901306,23.0712890625,45.2880859375,-175.96435546875
0.8411850929260254,-1355875858,0,0.29092937707901,-0.2597966194152832,0.9351181387901306,29.96826171875,46.32568359375,-182.06787109375
0.8494739532470703,-1355875875,1,0.08422859013080597,0.009736590087413788,1.074561595916748,32.77587890625,29.052734375,-135.498046875
0.849668025970459,-1355875856,1,0.11376960575580597,0.002168230712413788,1.081153392791748,38.818359375,37.04833984375,-138.0615234375
0.8496859073638916,-1355875837,1,-0.22631828486919403,0.06613307446241379,1.097022533416748,52.67333984375,48.52294921875,-141.4794921875
0.865509033203125,-1355875839,0,0.24893718957901,0.018279552459716797,0.9578232169151306,41.19873046875,45.71533203125,-187.01171875
0.8656010627746582,-1355875820,0,0.28067547082901,0.0961604118347168,0.9570907950401306,81.60400390625,57.12890625,-187.19482421875
0.8856308460235596,-1355875818,1,-0.03515617549419403,0.09298854321241379,1.152198314666748,75.74462890625,67.0166015625,-127.685546875
0.8969650268554688,-1355875801,0,0.37491375207901,0.008025646209716797,1.2034287452697754,101.07421875,65.36865234375,-182.6171875
0.9088120460510254,-1355875799,1,-0.15649406611919403,0.2568069100379944,1.124854564666748,101.318359375,51.26953125,-88.0126953125
0.9089310169219971,-1355875780,1,-0.14550773799419403,0.3263869881629944,1.295997142791748,113.525390625,33.8134765625,-66.58935546875
0.9397318363189697,-1355875761,1,-0.01904289424419403,0.23507839441299438,1.163917064666748,103.08837890625,53.89404296875,-57.43408203125
0.9539799690246582,-1355875782,0,0.37833172082901,0.1420588493347168,1.2261338233947754,118.22509765625,65.673828125,-160.7666015625
0.9540860652923584,-1355875746,0,0.06119305267930031,-0.0427556037902832,1.1680283546447754,96.86279296875,154.4189453125,-168.39599609375
0.9688911437988281,-1355875742,1,-0.23779289424419403,0.21261745691299438,1.338965892791748,100.89111328125,39.4287109375,-84.1064453125
0.9689950942993164,-1355875723,1,-0.16894523799419403,0.2836623787879944,1.187354564666748,70.068359375,29.1748046875,-113.34228515625
0.9879097938537598,-1355875727,0,0.11954265832901001,-0.0835270881652832,1.1912217140197754,54.13818359375,34.423828125,-104.30908203125
0.9879169464111328,-1355875708,0,0.18057781457901,0.028533458709716797,1.0713486671447754,44.98291015625,-9.521484375,-72.75390625
0.9988579750061035,-1355875687,1,-0.20556633174419403,0.15084987878799438,0.9434580206871033,49.1943359375,-19.6533203125,-110.04638671875
1.0140328407287598,-1355875689,0,0.12882000207901,0.2243342399597168,1.0330185890197754,54.0771484375,-19.287109375,-66.71142578125
1.014085054397583,-1355875670,0,-0.29451984167099,0.2319025993347168,1.1843857765197754,42.6025390625,-7.38525390625,-160.888671875
1.038114070892334,-1355875668,1,-0.20971672236919403,0.16183620691299438,0.7999033331871033,75.13427734375,-20.32470703125,-107.421875
1.043992042541504,-1355875651,0,0.32974773645401,0.2299494743347168,1.0459580421447754,11.16943359375,-24.23095703125,-172.607421875
1.0588421821594238,-1355875649,1,-0.3842772841453552,0.3881545662879944,0.8514170050621033,88.5009765625,15.07568359375,-125.8544921875
1.0589489936828613,-1355875630,1,-0.5998534560203552,0.5522170662879944,1.166846752166748,67.44384765625,7.62939453125,-124.08447265625
1.0838971138000488,-1355875632,0,0.19986492395401,0.2145686149597168,1.0093369483947754,1.0986328125,27.4658203125,-161.80419921875
1.0839049816131592,-1355875613,0,0.23819500207901,0.0722346305847168,0.8533310294151306,17.4560546875,35.0341796875,-104.06494140625
1.0886340141296387,-1355875611,1,-0.2934569716453552,0.3683791756629944,0.8772959113121033,47.79052734375,-31.25,-108.7646484375
1.1037418842315674,-1355875594,0,0.14981609582901,0.0402522087097168,0.8721298575401306,55.908203125,12.5732421875,-55.35888671875
1.1188240051269531,-1355875592,1,-0.2700194716453552,0.4367385506629944,0.8003916144371033,42.17529296875,-20.8740234375,-103.02734375
1.1189138889312744,-1355875573,1,-0.5422362685203552,0.3129592537879944,0.9986338019371033,29.72412109375,4.45556640625,-96.74072265625
1.139293909072876,-1355875575,0,0.10977703332901001,0.1330256462097168,0.9102157950401306,83.55712890625,-1.953125,-27.40478515625
1.1393020153045654,-1355875556,0,0.05875164642930031,0.1215510368347168,1.0103135108947754,73.8525390625,-25.634765625,-37.9638671875
1.1491339206695557,-1355875554,1,-0.4064940810203552,0.3175979256629944,0.9383310675621033,25.2685546875,-7.32421875,-102.72216796875
1.1637818813323975,-1355875537,0,0.05338055267930031,0.028777599334716797,1.0415635108947754,65.7958984375,-66.22314453125,-75.25634765625
1.1859021186828613,-1355875535,1,-0.4138182997703552,0.3359084725379944,0.9043955206871033,21.78955078125,-16.78466796875,-108.3984375
1.1859090328216553,-1355875516,1,-0.4216307997703552,0.4042678475379944,0.8438486456871033,22.216796875,-6.16455078125,-89.17236328125
1.1940741539001465,-1355875518,0,0.27798992395401,0.1598811149597168,1.0752549171447754,84.89990234375,-147.64404296875,-105.8349609375
1.2088918685913086,-1355875497,1,-0.4863280653953552,0.4391799569129944,0.8921884894371033,12.5732421875,6.591796875,-55.0537109375
1.2089488506317139,-1355875478,1,-0.5561522841453552,0.3595901131629944,0.9090341925621033,-21.728515625,0.91552734375,-43.0908203125
1.2361788749694824,-1355875482,0,0.58340984582901,0.3244318962097168,1.2695908546447754,8.23974609375,-15.56396484375,-211.73095703125
1.2361860275268555,-1355875463,0,0.36758953332901,0.3136897087097168,1.1499619483947754,-26.42822265625,60.24169921875,-265.68603515625
1.2401149272918701,-1355875459,1,-0.4770507216453552,0.2599807381629944,0.8423838019371033,-48.40087890625,-21.728515625,-40.95458984375
1.2541399002075195,-1355875444,0,0.24429851770401,0.1337580680847168,1.0025010108947754,-44.73876953125,72.265625,-294.3115234375
1.288179874420166,-1355875425,0,0.14859539270401,0.0517268180847168,0.8867782950401306,-45.47119140625,38.57421875,-277.03857421875
1.2881879806518555,-1355875406,0,0.09415203332901001,-0.0332341194152832,1.0212998390197754,-21.05712890625,17.822265625,-247.6806640625
1.299124002456665,-1355875423,1,-0.4589843153953552,0.3029494881629944,0.8638681769371033,-50.47607421875,-18.24951171875,-37.59765625
1.2992229461669922,-1355875404,1,-0.3239745497703552,0.2626662850379944,0.8877939581871033,-62.80517578125,-17.76123046875,-20.263671875
1.313713788986206,-1355875387,0,0.07950359582901001,-0.1101384162902832,1.2317490577697754,5.67626953125,7.8125,-232.7880859375
1.3368937969207764,-1355875385,1,-0.3593749403953552,0.2807326912879944,0.8907236456871033,-76.7822265625,-18.4326171875,-37.109375
1.3369011878967285,-1355875366,1,-0.3481444716453552,0.2707229256629944,0.8438486456871033,-115.90576171875,-20.5078125,-41.80908203125
1.34403395652771,-1355875368,0,0.18594890832901,0.5693049430847168,0.8286728262901306,-10.986328125,23.193359375,-264.6484375
1.344120979309082,-1355875349,0,-0.10384601354598999,0.6591486930847168,0.9771103262901306,-38.14697265625,3.72314453125,-231.8115234375
1.3588080406188965,-1355875347,1,-0.3923339247703552,0.11593776196241379,0.6741709113121033,-156.1279296875,-78.79638671875,-60.48583984375
1.3588979244232178,-1355875328,1,-0.3344725966453552,0.002900652587413788,1.004249095916748,-163.330078125,-84.716796875,-2.685546875
1.3837480545043945,-1355875330,0,0.06509929895401001,0.1694025993347168,1.0520615577697754,-65.24658203125,-13.18359375,-180.60302734375
1.383754014968872,-1355875311,0,-0.017176087945699692,-0.005402088165283203,0.8916611075401306,-52.24609375,-14.22119140625,-155.517578125
1.3887290954589844,-1355875309,1,-0.2812499403953552,-0.20803683996200562,0.9041513800621033,-123.22998046875,-42.8466796875,57.18994140625
1.4039218425750732,-1355875292,0,-0.023523744195699692,-0.0642399787902832,1.0046982765197754,-13.916015625,-31.494140625,-129.45556640625
1.4189479351043701,-1355875290,1,-0.2814940810203552,-0.3442673087120056,1.055762767791748,-75.37841796875,-38.0859375,74.462890625
1.4190568923950195,-1355875271,1,-0.11572258174419403,-0.3100876212120056,1.133887767791748,-23.681640625,-54.5654296875,46.81396484375
1.4394309520721436,-1355875273,0,0.06070477142930031,-0.012238025665283203,1.1890244483947754,11.474609375,-29.11376953125,-108.2763671875
1.4394381046295166,-1355875254,0,0.028234068304300308,0.0815119743347168,1.1450791358947754,22.3388671875,7.99560546875,-104.06494140625
1.4487841129302979,-1355875252,1,-0.02734367549419403,-0.21340793371200562,1.155128002166748,12.5732421875,-55.2978515625,17.822265625
1.4849128723144531,-1355875233,1,-0.14038078486919403,-0.13357394933700562,1.144141674041748,27.89306640625,-34.48486328125,25.7568359375
1.4849200248718262,-1355875214,1,-0.19116203486919403,-0.03274387866258621,1.182471752166748,30.70068359375,-6.77490234375,49.86572265625
1.4976608753204346,-1355875218,0,-0.09066241979598999,0.0583186149597168,1.0452256202697754,24.59716796875,11.8408203125,-128.5400390625
1.4976708889007568,-1355875199,0,0.017980162054300308,0.011199474334716797,0.9773544669151306,32.1044921875,-21.97265625,-125.0
1.5087621212005615,-1355875195,1,-0.24316398799419403,-0.0017380192875862122,1.149756908416748,39.4287109375,-0.06103515625,67.68798828125
1.5355489253997803,-1355875180,0,-0.10604327917098999,0.0387873649597168,1.0296006202697754,40.22216796875,-31.1279296875,-124.267578125
1.5355560779571533,-1355875161,0,0.008946958929300308,0.0668635368347168,1.0818467140197754,56.396484375,-38.87939453125,-92.71240234375
1.5415019989013672,-1355875159,1,-0.22387687861919403,0.20480495691299438,1.085059642791748,53.1005859375,-23.0712890625,96.98486328125
1.5538837909698486,-1355875142,0,0.013829771429300308,0.0895686149597168,1.0344834327697754,69.9462890625,-18.310546875,-76.72119140625
1.5689358711242676,-1355875140,1,-0.19189445674419403,0.18063503503799438,1.033545970916748,42.66357421875,-28.86962890625,92.22412109375
1.569072961807251,-1355875121,1,-0.14892570674419403,0.15329128503799438,1.055274486541748,32.8369140625,-35.70556640625,83.251953125
1.588068962097168,-1355875123,0,-0.09090656042098999,0.1210627555847168,1.0039658546447754,74.951171875,-17.08984375,-73.486328125
1.588075876235962,-1355875104,0,-0.12240070104598999,0.1654963493347168,1.0098252296447754,72.8759765625,-33.50830078125,-67.7490234375
1.5991148948669434,-1355875102,1,-0.13012687861919403,0.14230495691299438,1.096290111541748,28.50341796875,-37.90283203125,79.9560546875
1.6137909889221191,-1355875085,0,-0.09749835729598999,0.1574397087097168,0.9837021231651306,70.49560546875,-40.771484375,-54.01611328125
1.6382980346679688,-1355875083,1,-0.13110344111919403,0.14059597253799438,1.079932689666748,20.99609375,-22.76611328125,75.74462890625
1.6439449787139893,-1355875066,0,-0.07259601354598999,0.1977229118347168,0.9841904044151306,66.83349609375,-41.80908203125,-44.189453125
1.6440370082855225,-1355875047,0,-0.10140460729598999,0.2133479118347168,1.0090928077697754,64.02587890625,-31.494140625,-36.9873046875
1.6590440273284912,-1355875064,1,-0.17163078486919403,0.13253933191299438,1.025245189666748,18.37158203125,-28.01513671875,72.3876953125
1.6591417789459229,-1355875045,1,-0.13037101924419403,0.12252955883741379,0.9793466925621033,13.24462890625,-16.11328125,70.556640625
1.6600289344787598,-1355875026,1,-0.07055656611919403,0.14132839441299438,1.031836986541748,10.6201171875,8.11767578125,65.36865234375
1.6843597888946533,-1355875028,0,-0.14657062292099,0.2231135368347168,0.9915146231651306,63.90380859375,-25.08544921875,-31.06689453125
1.6887259483337402,-1355875007,1,-0.05493156611919403,0.03756862133741379,1.212256908416748,8.544921875,3.2958984375,77.33154296875
1.7039248943328857,-1355875009,0,-0.19246906042099,0.2194514274597168,0.9734482169151306,60.97412109375,-33.69140625,-19.34814453125
1.7040340900421143,-1355874990,0,-0.21395343542099,0.2594904899597168,0.9729599356651306,59.14306640625,-43.39599609375,-11.5966796875
1.718796968460083,-1355874988,1,-0.04492180049419403,-0.10159153491258621,1.215186595916748,2.01416015625,2.38037109375,51.81884765625
1.718904972076416,-1355874969,1,-0.04223625361919403,-0.06374973803758621,1.179786205291748,13.0615234375,-7.87353515625,36.56005859375
1.7478840351104736,-1355874950,1,-0.06323234736919403,-0.028837628662586212,1.204200267791748,23.37646484375,-20.93505859375,23.62060546875
1.7646629810333252,-1355874954,0,-0.20467609167099,0.3024592399597168,0.9719833731651306,57.4951171875,-71.10595703125,-7.75146484375
1.7646689414978027,-1355874935,0,-0.12655109167099,0.2980647087097168,0.9639267325401306,53.89404296875,-78.67431640625,-14.95361328125
1.784618854522705,-1355874931,1,-0.10498039424419403,0.10592799633741379,1.134376049041748,27.2216796875,-39.48974609375,5.4931640625
1.7938759326934814,-1355874916,0,-0.06429523229598999,0.3112483024597168,0.9458603262901306,46.69189453125,-75.50048828125,-16.357421875
1.7939808368682861,-1355874897,0,0.029454771429300308,0.3483576774597168,0.9319443106651306,42.8466796875,-52.18505859375,-9.8876953125
1.8088040351867676,-1355874895,1,-0.15429680049419403,0.17453151941299438,1.037452220916748,12.75634765625,-83.1298828125,18.73779296875
1.8362929821014404,-1355874878,0,-0.03646319732069969,0.3730158805847168,0.9150986075401306,44.00634765625,-23.37646484375,-7.99560546875
1.8403000831604004,-1355874876,1,-0.03906242549419403,0.15548855066299438,1.001075267791748,6.103515625,-86.181640625,32.89794921875
1.8403069972991943,-1355874857,1,0.10205085575580597,0.09347682446241379,0.9568857550621033,7.14111328125,-63.4765625,26.67236328125
1.8538837432861328,-1355874859,0,-0.10433429479598999,0.3988947868347168,0.8928818106651306,53.1005859375,-23.5595703125,-5.615234375
1.8539729118347168,-1355874840,0,-0.07772296667098999,0.4264826774597168,0.9358505606651306,50.47607421875,-45.34912109375,-23.3154296875
1.8689358234405518,-1355874838,1,0.06274421513080597,0.11129909008741379,1.021827220916748,17.2119140625,-33.87451171875,7.568359375
1.8690118789672852,-1355874819,1,-0.11279289424419403,0.14914089441299438,1.086768627166748,11.1083984375,-38.9404296875,-6.9580078125
1.8870959281921387,-1355874821,0,0.0006461776793003082,0.4269709587097168,0.9734482169151306,38.39111328125,-57.4951171875,-42.05322265625
1.8871028423309326,-1355874802,0,0.07632976770401001,0.3874201774597168,1.0222764015197754,22.64404296875,-64.697265625,-39.794921875
1.8989088535308838,-1355874800,1,-0.0036620348691940308,0.20163112878799438,1.042823314666748,9.1552734375,-44.61669921875,-19.22607421875
1.9137258529663086,-1355874783,0,0.15958172082901,0.3715510368347168,1.0003037452697754,10.25390625,-50.23193359375,-24.96337890625
1.9371979236602783,-1355874781,1,-0.08203117549419403,0.16256862878799438,0.9788584113121033,11.8408203125,-42.6025390625,-32.04345703125
1.9372048377990723,-1355874762,1,-0.07934562861919403,0.19796901941299438,0.9788584113121033,19.34814453125,-37.41455078125,-40.1611328125
1.9441001415252686,-1355874764,0,0.21597820520401,0.3102717399597168,0.9727157950401306,22.39990234375,-27.64892578125,-7.01904296875
1.9441850185394287,-1355874745,0,0.18887859582901,0.3190608024597168,0.8870224356651306,37.841796875,-10.19287109375,3.41796875
1.959097146987915,-1355874743,1,-0.04321281611919403,0.23190456628799438,0.8877939581871033,39.85595703125,-30.76171875,-31.8603515625
1.984443187713623,-1355874726,0,0.14590984582901,0.3962092399597168,0.8728622794151306,42.6025390625,2.25830078125,9.82666015625
2.0039401054382324,-1355874690,0,0.15982586145401,0.3659358024597168,0.9204697012901306,33.75244140625,-27.7099609375,-26.4892578125
2.0192618370056152,-1355874724,1,-0.03588859736919403,0.2956252694129944,0.9148935675621033,60.9130859375,-23.0712890625,3.0517578125
2.0193939208984375,-1355874705,1,-0.12451164424419403,0.2978225350379944,0.9207529425621033,48.7060546875,-27.587890625,26.67236328125
2.019408941268921,-1355874686,1,0.02124030888080597,0.23459011316299438,0.9080576300621033,29.35791015625,-41.50390625,25.08544921875
2.020242929458618,-1355874667,1,0.15063484013080597,0.3517776131629944,1.087012767791748,24.169921875,-19.8974609375,-2.13623046875
2.0396568775177,-1355874671,0,0.25137859582901,0.4696955680847168,0.9133896231651306,20.32470703125,-47.18017578125,-11.53564453125
2.0396640300750732,-1355874652,0,0.31827312707901,0.4631037712097168,0.9263290762901306,6.65283203125,-47.36328125,11.1083984375
2.0627799034118652,-1355874633,0,0.34293133020401,0.4382014274597168,0.9692978262901306,0.244140625,-22.3388671875,18.798828125
2.0839200019836426,-1355874631,1,-0.11059562861919403,0.2621780037879944,1.116309642791748,10.009765625,4.45556640625,-26.9775390625
2.0839269161224365,-1355874612,1,-0.05151359736919403,0.22702175378799438,1.114112377166748,-0.79345703125,-28.62548828125,-15.7470703125
2.0977768898010254,-1355874614,0,0.27066570520401,0.3547053337097168,0.9539169669151306,3.7841796875,10.7421875,42.41943359375
2.0977871417999268,-1355874595,0,0.19180828332901,0.3988947868347168,0.8836044669151306,20.32470703125,21.240234375,44.3115234375
2.1090900897979736,-1355874593,1,-0.07275383174419403,0.22360378503799438,0.9981455206871033,3.41796875,-11.29150390625,-20.01953125
2.135354995727539,-1355874576,0,0.31534343957901,0.4225764274597168,0.8860458731651306,30.6396484375,12.8173828125,-22.52197265625
2.141051769256592,-1355874574,1,0.003906324505805969,-0.022734113037586212,0.9847177863121033,26.42822265625,6.9580078125,-34.36279296875
2.141058921813965,-1355874555,1,0.02490241825580597,-0.002226300537586212,0.9009775519371033,65.49072265625,24.7802734375,-37.78076171875
2.1539499759674072,-1355874557,0,0.33853679895401,0.4906916618347168,0.8623642325401306,30.8837890625,14.6484375,-70.3125
2.153985023498535,-1355874538,0,0.26846843957901,0.4638361930847168,0.8240341544151306,23.98681640625,17.88330078125,-93.505859375
2.168980836868286,-1355874536,1,-0.18896476924419403,0.2521682381629944,0.8599619269371033,108.642578125,42.05322265625,-43.64013671875
2.169064998626709,-1355874517,1,-0.16186515986919403,0.4404006600379944,0.7803720831871033,120.2392578125,57.18994140625,-16.4794921875
2.187417984008789,-1355874519,0,0.26236492395401,0.4386897087097168,0.8191513419151306,24.4140625,7.26318359375,-101.74560546875
2.1874260902404785,-1355874500,0,0.19180828332901,0.4130549430847168,0.8452743887901306,27.2216796875,-1.03759765625,-99.2431640625
2.1990089416503906,-1355874498,1,-0.14721672236919403,0.3986526131629944,0.7767099738121033,130.55419921875,67.56591796875,-2.25830078125
2.2137699127197266,-1355874481,0,0.18668133020401,0.4723811149597168,0.8623642325401306,32.40966796875,-7.50732421875,-98.9990234375
2.236637830734253,-1355874479,1,-0.12109367549419403,0.4714065194129944,0.8160166144371033,124.6337890625,58.04443359375,-16.4794921875
2.236644983291626,-1355874460,1,-0.12207023799419403,0.6127639412879944,0.7706064581871033,103.3935546875,37.4755859375,-21.8505859375
2.244101047515869,-1355874462,0,0.17349773645401,0.5561213493347168,0.8440536856651306,39.48974609375,-6.89697265625,-84.41162109375
2.261504888534546,-1355874441,1,-0.2878417372703552,0.5795608162879944,0.7356943488121033,61.1572265625,15.2587890625,67.32177734375
2.28499698638916,-1355874426,0,0.22965008020401,0.2680354118347168,0.8621200919151306,54.931640625,22.76611328125,-37.53662109375
2.2891080379486084,-1355874422,1,-0.23217765986919403,0.4123244881629944,1.161719799041748,10.55908203125,-20.56884765625,111.63330078125
2.289235830307007,-1355874403,1,-0.2612304091453552,0.3031936287879944,0.9129404425621033,-18.24951171875,-10.7421875,75.0732421875
2.3041908740997314,-1355874407,0,0.10123211145401001,0.3124690055847168,0.8472275137901306,72.81494140625,16.05224609375,-15.625
2.304314136505127,-1355874388,0,0.10757976770401001,0.3957209587097168,0.8342880606651306,88.37890625,14.83154296875,-6.04248046875
2.3186869621276855,-1355874367,1,-0.19506828486919403,0.4584670662879944,0.9158701300621033,32.470703125,36.376953125,-29.96826171875
2.3401999473571777,-1355874369,0,0.18277508020401,0.3652033805847168,0.8220810294151306,101.9287109375,14.7705078125,-6.89697265625
2.340208053588867,-1355874350,0,0.13931804895401,0.3778986930847168,0.8740829825401306,92.59033203125,13.18359375,-32.28759765625
2.3488481044769287,-1355874348,1,-0.20361320674419403,0.6606155037879944,0.9378427863121033,33.0810546875,16.41845703125,-19.287109375
2.363853931427002,-1355874331,0,0.17984539270401,0.3534846305847168,0.9336532950401306,84.228515625,9.33837890625,-56.7626953125
2.385392904281616,-1355874329,1,-0.18505851924419403,0.5400100350379944,0.9446787238121033,16.05224609375,-33.63037109375,3.173828125
2.385399103164673,-1355874310,1,-0.21850578486919403,0.4530959725379944,0.8956064581871033,9.58251953125,-100.341796875,-9.8876953125
2.3940529823303223,-1355874312,0,0.23306804895401,0.4093928337097168,0.9282822012901306,81.48193359375,11.3525390625,-52.06298828125
2.394158124923706,-1355874293,0,0.28799968957901,0.5107111930847168,0.9146103262901306,64.39208984375,-1.28173828125,-25.146484375
2.4088120460510254,-1355874291,1,-0.19213859736919403,0.4054885506629944,0.9703134894371033,8.85009765625,-122.4365234375,-31.982421875
2.4341390132904053,-1355874274,0,0.23160320520401,0.5268244743347168,0.9546493887901306,38.14697265625,9.27734375,-26.611328125
2.44006609916687,-1355874272,1,-0.17163078486919403,0.3991408944129944,1.056983470916748,8.85009765625,-50.23193359375,-22.88818359375
2.4400718212127686,-1355874253,1,-0.06298820674419403,0.3747268319129944,0.9844736456871033,15.7470703125,-31.31103515625,-9.21630859375
2.4555490016937256,-1355874255,0,0.11978679895401001,0.4877619743347168,0.9219345450401306,26.42822265625,17.578125,-20.8740234375
2.4556028842926025,-1355874236,0,0.10611492395401001,0.4819025993347168,0.9251083731651306,34.36279296875,23.0712890625,-9.27734375
2.4704480171203613,-1355874234,1,-0.16162101924419403,0.3334670662879944,1.028174877166748,34.3017578125,-70.49560546875,18.24951171875
2.488079071044922,-1355874217,0,0.16080242395401,0.4755549430847168,0.9067978262901306,50.96435546875,25.93994140625,-4.82177734375
2.499803066253662,-1355874215,1,-0.16381828486919403,0.4731155037879944,1.019141674041748,35.94970703125,-103.94287109375,16.78466796875
2.49992299079895,-1355874196,1,-0.14111320674419403,0.4980178475379944,0.9317392706871033,23.681640625,-113.95263671875,31.79931640625
2.536102056503296,-1355874177,1,0.00903327763080597,0.6073928475379944,0.8580088019371033,-6.103515625,-111.083984375,29.72412109375
2.538578987121582,-1355874158,1,0.18164069950580597,0.5876174569129944,0.8885263800621033,-29.84619140625,-82.21435546875,1.77001953125
2.5442569255828857,-1355874198,0,0.25308758020401,0.6037287712097168,0.8782333731651306,51.1474609375,33.3251953125,-12.0849609375
2.5444138050079346,-1355874162,0,0.24429851770401,0.6320490837097168,0.8162216544151306,29.35791015625,31.79931640625,-23.01025390625
2.544482946395874,-1355874143,0,0.29141765832901,0.6584162712097168,0.8655380606651306,11.1083984375,32.958984375,-32.958984375
2.5589890480041504,-1355874139,1,0.2656250596046448,0.4626174569129944,0.8653330206871033,-35.94970703125,-46.69189453125,-10.1318359375
2.5847270488739014,-1355874124,0,0.32510906457901,0.7358088493347168,0.8633407950401306,-16.2353515625,59.9365234375,-53.1005859375
2.589148998260498,-1355874103,1,0.19750984013080597,0.5263381600379944,0.9803232550621033,-29.052734375,-18.37158203125,4.21142578125
2.605578899383545,-1355874105,0,0.24942547082901,0.7323908805847168,0.8211044669151306,-60.24169921875,85.5712890625,-85.02197265625
2.6056487560272217,-1355874086,0,0.09488445520401001,0.4733576774597168,0.8157333731651306,-83.984375,20.99609375,-60.48583984375
2.620391845703125,-1355874084,1,0.10351569950580597,0.4733596444129944,0.9949716925621033,-51.26953125,-26.79443359375,12.39013671875
2.6396000385284424,-1355874067,0,0.29190593957901,0.4279475212097168,0.9285263419151306,-52.55126953125,3.173828125,-23.86474609375
2.648969888687134,-1355874065,1,0.11767585575580597,0.4164748787879944,0.9952158331871033,-73.30322265625,-28.62548828125,1.5869140625
2.649096965789795,-1355874046,1,0.15380866825580597,0.3446975350379944,0.9539560675621033,-52.8564453125,-59.4482421875,-5.06591796875
2.664055109024048,-1355874048,0,0.39859539270401,0.5390315055847168,0.7656845450401306,-43.64013671875,34.7900390625,-33.69140625
2.6641368865966797,-1355874029,0,0.16470867395401,0.4328303337097168,0.7815536856651306,-29.052734375,83.31298828125,-63.29345703125
2.6858270168304443,-1355874027,1,0.21655280888080597,0.3320022225379944,0.9253916144371033,-18.9208984375,-47.4853515625,-0.1220703125
2.6858339309692383,-1355874008,1,0.19555671513080597,0.3598342537879944,0.9441904425621033,0.1220703125,-39.306640625,-6.40869140625
2.698162794113159,-1355874010,0,0.14786297082901,0.4523615837097168,0.8623642325401306,-0.48828125,39.9169921875,-52.79541015625
2.6981711387634277,-1355873991,0,0.18790203332901,0.4599299430847168,0.9424423575401306,3.72314453125,26.30615234375,-51.513671875
2.71036696434021,-1355873989,1,0.16406257450580597,0.3793655037879944,0.9944834113121033,8.72802734375,-49.62158203125,-6.8359375
2.734651803970337,-1355873972,0,0.13248211145401,0.5199885368347168,0.9651474356651306,-10.43701171875,24.35302734375,-48.27880859375
2.739784002304077,-1355873970,1,0.2651367783546448,0.3810744881629944,0.9888681769371033,6.40869140625,-58.837890625,-5.0048828125
2.73979115486145,-1355873951,1,0.2998047471046448,0.3713088631629944,1.003516674041748,7.14111328125,-31.06689453125,-2.0751953125
2.7546658515930176,-1355873953,0,0.16080242395401,0.4870295524597168,1.0025010108947754,-18.98193359375,28.38134765625,-46.56982421875
2.754741907119751,-1355873934,0,0.17374187707901,0.3700861930847168,0.9988388419151306,-8.23974609375,38.63525390625,-41.8701171875
2.7704570293426514,-1355873932,1,0.22241218388080597,0.3459182381629944,1.051368236541748,16.66259765625,-11.16943359375,-3.0517578125
2.8132059574127197,-1355873898,0,0.14615398645401,0.3815608024597168,0.9832138419151306,58.41064453125,-1.708984375,-9.21630859375
2.8148488998413086,-1355873879,0,0.10172039270401001,0.4714045524597168,0.9937118887901306,80.13916015625,-26.79443359375,-4.39453125
2.8357579708099365,-1355873913,1,0.20166023075580597,0.3258987069129944,1.053321361541748,28.80859375,-17.39501953125,-3.84521484375
2.8357648849487305,-1355873894,1,0.21704109013080597,0.3349319100379944,1.049903392791748,32.77587890625,-34.24072265625,-12.02392578125
2.8357701301574707,-1355873875,1,0.2902832627296448,0.3522658944129944,1.035499095916748,36.7431640625,-42.48046875,-21.54541015625
2.8455967903137207,-1355873860,0,0.19620281457901,0.4228205680847168,1.0112900733947754,106.14013671875,-58.837890625,-0.18310546875
2.845712184906006,-1355873841,0,0.20743328332901,0.4809260368347168,0.9507431387901306,130.43212890625,-65.0634765625,12.20703125
2.8598039150238037,-1355873839,1,0.2902832627296448,0.3490920662879944,0.9483408331871033,55.419921875,-43.27392578125,-51.33056640625
2.8846991062164307,-1355873822,0,0.25821453332901,0.5888361930847168,0.8711532950401306,139.22119140625,-51.8798828125,13.85498046875
2.9032809734344482,-1355873803,0,0.25382000207901,0.6567072868347168,0.8577255606651306,136.3525390625,-29.84619140625,-7.32421875
2.904155969619751,-1355873784,0,0.22305828332901,0.5661311149597168,0.7730087637901306,145.56884765625,-49.25537109375,-24.84130859375
2.9204111099243164,-1355873820,1,0.2502442002296448,0.4211135506629944,0.9141611456871033,63.04931640625,-43.0908203125,-53.16162109375
2.92059588432312,-1355873801,1,0.24340827763080597,0.4657912850379944,0.9068369269371033,68.90869140625,-45.5322265625,-35.15625
2.9206130504608154,-1355873782,1,0.3271484971046448,0.4555373787879944,0.8638681769371033,71.10595703125,-39.306640625,-23.5595703125
2.9394900798797607,-1355873765,0,0.17545086145401,0.6017756462097168,0.6546005606651306,156.73828125,-82.82470703125,-14.58740234375
2.9505550861358643,-1355873763,1,0.3344727158546448,0.4435744881629944,0.8531259894371033,68.05419921875,-27.40478515625,-38.0859375
2.950711965560913,-1355873744,1,0.3068848252296448,0.4675002694129944,0.8643564581871033,60.60791015625,-24.96337890625,-48.40087890625
2.9641127586364746,-1355873746,0,0.31876140832901,0.6852717399597168,0.6143173575401306,148.25439453125,-87.95166015625,-3.60107421875
2.964132070541382,-1355873727,0,0.37686687707901,0.7587580680847168,0.6018661856651306,124.51171875,-60.24169921875,-14.09912109375
2.986704111099243,-1355873725,1,0.3034668564796448,0.5551467537879944,0.8396982550621033,48.9501953125,-13.85498046875,-51.8798828125
2.9939141273498535,-1355873708,0,0.32022625207901,0.7699885368347168,0.5591415762901306,82.09228515625,-4.150390625,-47.2412109375
3.009050130844116,-1355873706,1,0.2868652939796448,0.5756545662879944,0.8567880988121033,38.75732421875,-2.01416015625,-33.5693359375
3.009166955947876,-1355873687,1,0.2624512314796448,0.5011916756629944,0.8379892706871033,37.90283203125,4.45556640625,-26.0009765625
3.034087896347046,-1355873689,0,0.25919109582901,0.6862483024597168,0.496885746717453,55.84716796875,19.95849609375,-58.837890625
3.034095048904419,-1355873670,0,0.22818523645401,0.7126154899597168,0.462950199842453,41.748046875,20.8740234375,-62.31689453125
3.0528509616851807,-1355873634,0,0.21158367395401,0.6637873649597168,0.453672856092453,20.99609375,-8.85009765625,-56.33544921875
3.0689468383789062,-1355873668,1,0.2556152939796448,0.5192580819129944,0.8047861456871033,36.2548828125,5.92041015625,-31.73828125
3.0690197944641113,-1355873649,1,0.24243171513080597,0.5561233162879944,0.7862314581871033,33.203125,3.47900390625,-30.70068359375
3.0699551105499268,-1355873630,1,0.19628913700580597,0.5746780037879944,0.8099130988121033,23.0712890625,2.62451171875,-25.08544921875
3.08791184425354,-1355873615,0,0.28482586145401,0.7272639274597168,0.452940434217453,7.6904296875,-6.28662109375,-59.38720703125
3.0988640785217285,-1355873611,1,0.17529304325580597,0.5705276131629944,0.8350595831871033,9.6435546875,-1.64794921875,-17.63916015625
3.113083839416504,-1355873596,0,0.28726726770401,0.7404475212097168,0.453916996717453,-12.14599609375,0.48828125,-84.41162109375
3.113980770111084,-1355873577,0,0.29703289270401,0.6476740837097168,0.442930668592453,-22.5830078125,-0.9765625,-100.15869140625
3.137967109680176,-1355873575,1,0.17724616825580597,0.5680862069129944,0.7862314581871033,-5.37109375,-7.4462890625,-7.87353515625
3.144197940826416,-1355873558,0,0.29507976770401,0.6440119743347168,0.422178715467453,-20.81298828125,-15.13671875,-101.13525390625
3.1597859859466553,-1355873556,1,0.16284187138080597,0.5575881600379944,0.7769541144371033,-13.7939453125,-6.40869140625,-4.82177734375
3.159917116165161,-1355873537,1,0.15356452763080597,0.5697951912879944,0.7874521613121033,-19.59228515625,-4.82177734375,-1.89208984375
3.1844499111175537,-1355873539,0,0.30606609582901,0.5917658805847168,0.5193466544151306,-13.427734375,-23.25439453125,-100.830078125
3.1844568252563477,-1355873520,0,0.29556804895401,0.5153498649597168,0.5820907950401306,-9.70458984375,-10.1318359375,-99.9755859375
3.203115940093994,-1355873501,0,0.18082195520401,0.6999201774597168,0.6450790762901306,-27.83203125,-11.04736328125,-104.91943359375
3.204080104827881,-1355873482,0,0.33585125207901,0.6615900993347168,0.6985458731651306,-39.36767578125,-12.26806640625,-98.2666015625
3.2194480895996094,-1355873518,1,0.14428718388080597,0.5751662850379944,0.7918466925621033,-29.296875,0.3662109375,9.27734375
3.2197608947753906,-1355873499,1,0.12597663700580597,0.5773635506629944,0.8199228644371033,-35.21728515625,0.0,31.005859375
3.219810962677002,-1355873480,1,0.14331062138080597,0.5153518319129944,0.8570322394371033,-43.45703125,1.8310546875,39.97802734375
3.240902900695801,-1355873463,0,0.40762859582901,0.6769709587097168,0.6926864981651306,-51.3916015625,-10.1318359375,-84.16748046875
3.2497708797454834,-1355873461,1,0.16455085575580597,0.5075393319129944,0.8743662238121033,-42.29736328125,2.86865234375,35.64453125
3.26401686668396,-1355873444,0,0.32632976770401,0.6789240837097168,0.7903427481651306,-59.87548828125,-19.10400390625,-67.87109375
3.264163017272949,-1355873425,0,0.50113445520401,0.7211604118347168,0.8755478262901306,-77.880859375,-23.37646484375,-43.0908203125
3.2860019207000732,-1355873442,1,0.16333015263080597,0.4704299569129944,0.9122080206871033,-38.63525390625,6.53076171875,29.84619140625
3.286547899246216,-1355873423,1,0.17333991825580597,0.4902053475379944,0.9253916144371033,-30.45654296875,4.8828125,32.470703125
3.2983858585357666,-1355873406,0,0.55655437707901,0.7055354118347168,0.8909286856651306,-102.23388671875,-1.3427734375,-26.0009765625
3.3090591430664062,-1355873404,1,0.22167976200580597,0.4626174569129944,0.9129404425621033,-25.146484375,3.0517578125,38.51318359375
3.3091628551483154,-1355873385,1,0.2563477158546448,0.4225783944129944,0.9273447394371033,-20.751953125,1.64794921875,38.330078125
3.3354361057281494,-1355873370,0,0.43716961145401,0.6093440055847168,0.9629501700401306,-124.267578125,22.8271484375,-32.958984375
3.3413889408111572,-1355873366,1,0.3002930283546448,0.3886428475379944,0.9102548956871033,-22.27783203125,-5.79833984375,21.97265625
3.341395854949951,-1355873347,1,0.3332520127296448,0.3949905037879944,0.8836435675621033,-20.5078125,-5.9814453125,-0.54931640625
3.3540918827056885,-1355873351,0,0.43497234582901,0.6003108024597168,1.0274033546447754,-108.88671875,45.2880859375,-64.208984375
3.3541929721832275,-1355873332,0,0.36807781457901,0.5434260368347168,1.0298447608947754,-94.90966796875,86.60888671875,-97.2900390625
3.387493133544922,-1355873313,0,0.27042156457901,0.4682307243347168,1.0239853858947754,-80.810546875,89.41650390625,-111.38916015625
3.3989980220794678,-1355873311,1,0.3525391221046448,0.4067092537879944,0.9400400519371033,-20.81298828125,-9.3994140625,3.96728515625
3.399106979370117,-1355873292,1,0.3869629502296448,0.3835158944129944,0.9654306769371033,-18.4326171875,-7.2021484375,4.57763671875
3.4139649868011475,-1355873294,0,0.12637859582901,0.4335627555847168,0.9282822012901306,-51.8798828125,58.89892578125,-113.09814453125
3.4140548706054688,-1355873275,0,0.03555828705430031,0.4154963493347168,0.9685654044151306,-16.29638671875,0.42724609375,-109.2529296875
3.4382991790771484,-1355873273,1,0.4216309189796448,0.3442092537879944,0.9979013800621033,-15.19775390625,-2.38037109375,-3.47900390625
3.444112777709961,-1355873256,0,0.11807781457901001,0.4137873649597168,1.0674424171447754,7.38525390625,-35.33935546875,-105.46875
3.4588708877563477,-1355873254,1,0.4716797471046448,0.3163772225379944,1.014503002166748,-5.126953125,1.5869140625,-18.5546875
3.458956003189087,-1355873235,1,0.4660645127296448,0.3195510506629944,0.9981455206871033,-1.15966796875,-1.0986328125,-35.21728515625
3.4838809967041016,-1355873237,0,0.07584148645401001,0.4262385368347168,1.1035752296447754,5.4931640625,-37.353515625,-113.83056640625
3.490534782409668,-1355873216,1,0.4382324814796448,0.3407912850379944,1.005713939666748,-1.52587890625,-16.41845703125,-48.40087890625
3.49062180519104,-1355873197,1,0.4172363877296448,0.3676467537879944,1.016211986541748,-6.16455078125,-30.70068359375,-53.89404296875
3.5044190883636475,-1355873218,0,0.05801922455430031,0.4902033805847168,1.1121201515197754,-2.74658203125,-15.625,-118.896484375
3.504592180252075,-1355873199,0,-0.0035042129456996918,0.4142756462097168,1.0496201515197754,-11.41357421875,7.01904296875,-136.16943359375
3.504607915878296,-1355873180,0,-0.05257647857069969,0.3246760368347168,1.0427842140197754,-12.39013671875,2.685546875,-142.9443359375
3.5187530517578125,-1355873178,1,0.3845215439796448,0.4018264412879944,0.9874033331871033,-13.12255859375,-47.36328125,-57.80029296875
3.540893793106079,-1355873161,0,-0.11776202917098999,0.2670588493347168,1.0266709327697754,-5.55419921875,-11.90185546875,-124.81689453125
3.5505120754241943,-1355873159,1,0.3654785752296448,0.4028030037879944,0.9441904425621033,-14.70947265625,-56.57958984375,-57.80029296875
3.550616979598999,-1355873140,1,0.3161621689796448,0.4169631600379944,0.9356455206871033,-14.09912109375,-50.59814453125,-69.580078125
3.5854339599609375,-1355873121,1,0.2609863877296448,0.4648147225379944,0.9661630988121033,-8.544921875,-52.24609375,-71.2890625
3.5939807891845703,-1355873142,0,-0.17611163854599,0.2980647087097168,1.0310654640197754,10.07080078125,-35.46142578125,-91.24755859375
3.6089730262756348,-1355873102,1,0.22631843388080597,0.4889846444129944,0.9917978644371033,-3.662109375,-58.59375,-60.1806640625
3.6091129779815674,-1355873083,1,0.23950202763080597,0.4736037850379944,0.9903330206871033,-3.23486328125,-59.2041015625,-55.17578125
3.636388063430786,-1355873106,0,-0.09847491979598999,0.3630061149597168,1.0874619483947754,7.62939453125,-34.48486328125,-109.4970703125
3.63639497756958,-1355873087,0,-0.10018390417098999,0.2726740837097168,1.0671982765197754,0.79345703125,-21.3623046875,-117.3095703125
3.636399984359741,-1355873068,0,-0.11825031042098999,0.2558283805847168,1.0483994483947754,-2.9296875,-27.03857421875,-89.41650390625
3.6404337882995605,-1355873047,1,0.20751960575580597,0.4738479256629944,1.095069408416748,9.82666015625,-53.52783203125,-49.49951171875
3.6540210247039795,-1355873049,0,-0.13387531042099,0.2392268180847168,1.0379014015197754,-4.57763671875,-46.875,-72.20458984375
3.6541049480438232,-1355873030,0,-0.13558429479599,0.3236994743347168,1.0557236671447754,-5.92041015625,-70.1904296875,-67.81005859375
3.6689839363098145,-1355873028,1,0.16503913700580597,0.4631057381629944,1.133399486541748,19.53125,-55.6640625,-49.01123046875
3.687969923019409,-1355873011,0,-0.022791322320699692,0.2726740837097168,1.0613389015197754,-7.4462890625,-65.4296875,-75.927734375
3.698974847793579,-1355873009,1,0.15527351200580597,0.4667678475379944,1.153174877166748,21.728515625,-66.10107421875,-43.88427734375
3.6991069316864014,-1355872990,1,0.14843757450580597,0.4313674569129944,1.125831127166748,25.0244140625,-72.44873046875,-38.330078125
3.7139840126037598,-1355872992,0,-0.04793780669569969,0.2787775993347168,1.0459580421447754,-3.84521484375,-46.93603515625,-84.5947265625
3.714002847671509,-1355872973,0,-0.03890460357069969,0.2814631462097168,1.0278916358947754,0.48828125,-37.841796875,-73.30322265625
3.7352349758148193,-1355872971,1,0.14599616825580597,0.3835158944129944,1.091163158416748,30.3955078125,-73.91357421875,-37.9638671875
3.7442679405212402,-1355872954,0,-0.05257647857069969,0.2995295524597168,0.9939560294151306,5.2490234375,-35.33935546875,-54.26025390625
3.7590270042419434,-1355872952,1,0.11206062138080597,0.3854690194129944,1.067725658416748,35.2783203125,-71.2890625,-39.1845703125
3.7591311931610107,-1355872933,1,0.09033210575580597,0.3901076912879944,1.018165111541748,41.8701171875,-68.90869140625,-34.3017578125
3.7850160598754883,-1355872935,0,-0.07943195104598999,0.2853693962097168,0.9959091544151306,11.474609375,-38.51318359375,-46.81396484375
3.785022020339966,-1355872916,0,-0.07528156042098999,0.2716975212097168,0.9746689200401306,18.310546875,-44.61669921875,-43.0908203125
3.790395975112915,-1355872914,1,0.06787116825580597,0.3864455819129944,0.9778818488121033,45.59326171875,-69.15283203125,-26.18408203125
3.804835081100464,-1355872897,0,-0.09920734167098999,0.2655940055847168,0.9797958731651306,33.14208984375,-53.77197265625,-37.65869140625
3.8189289569854736,-1355872895,1,0.07763679325580597,0.3717971444129944,0.9354013800621033,44.12841796875,-66.83349609375,-15.380859375
3.8190999031066895,-1355872876,1,0.08129890263080597,0.3608108162879944,0.8990244269371033,38.39111328125,-63.90380859375,-7.8125
3.8398079872131348,-1355872878,0,-0.08700031042098999,0.3009943962097168,0.9939560294151306,40.8935546875,-58.837890625,-35.400390625
3.8504891395568848,-1355872857,1,0.08886726200580597,0.3405471444129944,0.8768076300621033,29.296875,-59.6923828125,-4.21142578125
3.850598096847534,-1355872838,1,0.09008796513080597,0.3466506600379944,0.8650888800621033,25.45166015625,-55.2978515625,-3.72314453125
3.8651840686798096,-1355872842,0,-0.10726398229598999,0.3075861930847168,0.9487900137901306,34.423828125,-55.2978515625,-32.958984375
3.8651959896087646,-1355872823,0,-0.09627765417098999,0.3183283805847168,0.9138779044151306,28.86962890625,-53.7109375,-32.16552734375
3.8929531574249268,-1355872804,0,-0.11727374792098999,0.3202815055847168,0.8862900137901306,27.52685546875,-55.908203125,-32.2265625
3.9090659618377686,-1355872819,1,0.10522468388080597,0.3544631600379944,0.8326181769371033,24.23095703125,-47.54638671875,-1.03759765625
3.909173011779785,-1355872783,1,0.09472663700580597,0.3700881600379944,0.7886728644371033,21.66748046875,-35.888671875,9.765625
3.9346470832824707,-1355872785,0,-0.11849445104598999,0.3246760368347168,0.8733505606651306,29.6630859375,-60.24169921875,-30.21240234375
3.934654951095581,-1355872766,0,-0.12117999792098999,0.3107600212097168,0.8587021231651306,33.935546875,-65.24658203125,-32.8369140625
3.94073486328125,-1355872764,1,0.11059577763080597,0.3708205819129944,0.7657236456871033,12.5732421875,-31.06689453125,16.9677734375
3.955763816833496,-1355872747,0,-0.12996906042099,0.2824397087097168,0.8648056387901306,35.09521484375,-63.4765625,-30.45654296875
3.9706079959869385,-1355872745,1,0.13159187138080597,0.3739944100379944,0.7469248175621033,6.89697265625,-23.98681640625,21.30126953125
3.9707019329071045,-1355872726,1,0.15698249638080597,0.3786330819129944,0.7334970831871033,4.7607421875,-14.22119140625,21.97265625
3.9881980419158936,-1355872728,0,-0.12703937292099,0.2550959587097168,0.8701767325401306,33.75244140625,-60.9130859375,-24.0478515625
3.9882049560546875,-1355872709,0,-0.11287921667098999,0.2467951774597168,0.8638290762901306,33.935546875,-60.1806640625,-7.9345703125
4.000669002532959,-1355872707,1,0.16284187138080597,0.3945022225379944,0.7232431769371033,1.77001953125,-4.08935546875,23.8037109375
4.000810861587524,-1355872688,1,0.16845710575580597,0.4071975350379944,0.7378916144371033,-2.99072265625,5.2490234375,28.564453125
4.0139319896698,-1355872690,0,-0.10848468542098999,0.2646174430847168,0.8189072012901306,31.8603515625,-60.302734375,1.15966796875
4.014023780822754,-1355872671,0,-0.04915850982069969,0.2753596305847168,0.8071884512901306,30.3955078125,-54.26025390625,2.62451171875
4.037374973297119,-1355872669,1,0.18823249638080597,0.4115920662879944,0.7525400519371033,-9.6435546875,10.68115234375,38.0859375
4.0457048416137695,-1355872652,0,-0.027429994195699692,0.2582697868347168,0.7910751700401306,27.83203125,-44.73876953125,4.5166015625
4.062215805053711,-1355872650,1,0.19458015263080597,0.4230666756629944,0.7874521613121033,-14.70947265625,14.83154296875,43.45703125
4.06223201751709,-1355872631,1,0.21777351200580597,0.4211135506629944,0.8482431769371033,-26.30615234375,17.39501953125,53.466796875
4.084629058837891,-1355872633,0,-0.011316712945699692,0.2516779899597168,0.7456650137901306,23.681640625,-35.82763671875,12.87841796875
4.084636926651001,-1355872614,0,-0.0013069473206996918,0.2731623649597168,0.7510361075401306,16.357421875,-29.11376953125,19.04296875
4.119323015213013,-1355872612,1,0.24829109013080597,0.3927932381629944,0.8667978644371033,-31.67724609375,17.15087890625,65.3076171875
4.119526147842407,-1355872593,1,0.2761231064796448,0.3361526131629944,0.8831552863121033,-29.541015625,22.15576171875,66.89453125
4.11954402923584,-1355872574,1,0.2592774033546448,0.3009963631629944,0.9068369269371033,-23.37646484375,26.7333984375,57.861328125
4.140439033508301,-1355872578,0,0.08731609582901001,0.2502131462097168,0.8137802481651306,8.4228515625,2.197265625,23.4375
4.140445947647095,-1355872559,0,0.11270672082901001,0.2792658805847168,0.8484482169151306,-0.6103515625,15.31982421875,22.4609375
4.149291038513184,-1355872555,1,0.2763672471046448,0.3049026131629944,0.9302744269371033,-17.578125,31.55517578125,49.25537109375
4.185400009155273,-1355872519,1,0.2878418564796448,0.3219924569129944,1.026954174041748,-22.27783203125,30.09033203125,53.16162109375
4.198822975158691,-1355872540,0,0.15030437707901,0.2987971305847168,0.8567489981651306,-11.04736328125,22.27783203125,23.13232421875
4.19883394241333,-1355872521,0,0.11661297082901001,0.2687678337097168,0.8623642325401306,-4.638671875,11.474609375,19.22607421875
4.198840141296387,-1355872502,0,0.16275554895401,0.2194514274597168,0.9229111075401306,8.30078125,2.685546875,17.39501953125
4.209155082702637,-1355872500,1,0.3183594346046448,0.2887893319129944,1.035499095916748,-27.4658203125,19.71435546875,56.45751953125
4.209259986877441,-1355872481,1,0.3562012314796448,0.24069362878799438,1.027442455291748,-23.8037109375,4.82177734375,46.32568359375
4.233314037322998,-1355872483,0,0.20718914270401,0.2267756462097168,0.9993271231651306,10.8642578125,4.08935546875,19.4091796875
4.233320951461792,-1355872464,0,0.25186687707901,0.2602229118347168,1.0486435890197754,8.60595703125,14.34326171875,25.81787109375
4.239239931106567,-1355872462,1,0.3439942002296448,0.2529006600379944,1.039649486541748,-16.78466796875,5.18798828125,29.9072265625
4.253829002380371,-1355872445,0,0.29117351770401,0.2836604118347168,1.0745224952697754,2.3193359375,36.43798828125,24.23095703125
4.269021987915039,-1355872443,1,0.3369141221046448,0.3102737069129944,1.056495189666748,-9.33837890625,6.7138671875,29.4189453125
4.2691309452056885,-1355872424,1,0.3510742783546448,0.3405471444129944,1.070899486541748,-5.55419921875,6.16455078125,43.64013671875
4.288388967514038,-1355872426,0,0.27554851770401,0.3110041618347168,1.0518174171447754,0.18310546875,51.45263671875,16.2353515625
4.288395881652832,-1355872407,0,0.26431804895401,0.2817072868347168,1.0332627296447754,3.2958984375,52.001953125,8.9111328125
4.300551891326904,-1355872405,1,0.3652344346046448,0.3280959725379944,1.053809642791748,-2.01416015625,-3.23486328125,58.16650390625
4.315462827682495,-1355872388,0,0.25162273645401,0.2387385368347168,1.0227646827697754,11.16943359375,37.353515625,9.765625
4.336479902267456,-1355872386,1,0.4052734971046448,0.3398147225379944,1.060889720916748,-7.87353515625,-14.5263671875,65.3076171875
4.33648681640625,-1355872367,1,0.4108887314796448,0.3166213631629944,1.054053783416748,-11.1083984375,-19.22607421875,64.453125
4.358360052108765,-1355872348,1,0.4211426377296448,0.3329787850379944,1.045753002166748,-7.14111328125,-12.8173828125,60.4248046875
4.382879972457886,-1355872369,0,0.29288250207901,0.3090510368347168,1.0742783546447754,15.9912109375,21.8505859375,20.32470703125
4.38288688659668,-1355872350,0,0.36270672082901,0.3891291618347168,1.1218857765197754,17.333984375,24.35302734375,14.46533203125
4.382891893386841,-1355872314,0,0.32730633020401,0.3454279899597168,1.1282334327697754,13.0615234375,42.41943359375,-10.55908203125
4.389007091522217,-1355872329,1,0.4338379502296448,0.3537307381629944,1.067969799041748,-4.0283203125,-3.2958984375,63.90380859375
4.389108896255493,-1355872310,1,0.4360352158546448,0.3310256600379944,1.072852611541748,-1.40380859375,6.8359375,69.15283203125
4.404070854187012,-1355872295,0,0.29507976770401,0.2936701774597168,1.1668076515197754,13.48876953125,50.10986328125,-18.1884765625
4.4188830852508545,-1355872291,1,0.4584961533546448,0.2985549569129944,1.079200267791748,0.3662109375,10.498046875,70.9228515625
4.439234972000122,-1355872276,0,0.34317547082901,0.2773127555847168,1.1897568702697754,14.404296875,57.9833984375,-13.18359375
4.439241886138916,-1355872257,0,0.37247234582901,0.2568049430847168,1.2017197608947754,18.98193359375,64.8193359375,-3.2958984375
4.44882607460022,-1355872255,1,0.4648438096046448,0.2555862069129944,1.112647533416748,15.80810546875,14.7705078125,53.77197265625
4.464639902114868,-1355872238,0,0.37784343957901,0.2712092399597168,1.1860947608947754,22.03369140625,66.7724609375,-2.74658203125
4.485495090484619,-1355872236,1,0.4802246689796448,0.2641311287879944,1.094581127166748,16.6015625,7.568359375,53.955078125
4.485502004623413,-1355872217,1,0.4829102158546448,0.2504592537879944,1.063331127166748,18.9208984375,5.615234375,48.583984375
4.494029998779297,-1355872219,0,0.37003093957901,0.2333674430847168,1.1904892921447754,26.123046875,65.85693359375,-7.9345703125
4.494115114212036,-1355872200,0,0.37857586145401,0.1908869743347168,1.1792588233947754,30.57861328125,65.12451171875,-9.94873046875
4.523252010345459,-1355872181,0,0.37540203332901,0.1982111930847168,1.1326279640197754,39.36767578125,65.5517578125,-5.2490234375
4.535473823547363,-1355872162,0,0.35904461145401,0.2043147087097168,1.1267685890197754,42.8466796875,65.91796875,-4.0283203125
4.541474103927612,-1355872198,1,0.4785156846046448,0.23459011316299438,1.022315502166748,23.193359375,5.615234375,38.6962890625
4.541479825973511,-1355872179,1,0.5014649033546448,0.22921901941299438,1.020606517791748,27.4658203125,13.12255859375,28.3203125
4.5414838790893555,-1355872160,1,0.5209961533546448,0.23898464441299438,1.023780345916748,36.19384765625,21.1181640625,20.8740234375
4.553861856460571,-1355872143,0,0.33340984582901,0.1928400993347168,1.0642685890197754,45.83740234375,60.4248046875,-10.3759765625
4.568976879119873,-1355872141,1,0.5034180283546448,0.23141628503799438,1.021827220916748,43.45703125,35.888671875,20.263671875
4.569073915481567,-1355872122,1,0.5095215439796448,0.22751003503799438,1.034522533416748,49.01123046875,46.69189453125,17.4560546875
4.588443040847778,-1355872124,0,0.31070476770401,0.2001643180847168,1.0435166358947754,47.8515625,52.55126953125,-18.06640625
4.588449954986572,-1355872105,0,0.30460125207901,0.1694025993347168,1.0254502296447754,45.5322265625,46.875,-24.84130859375
4.599462985992432,-1355872103,1,0.5314942002296448,0.20187526941299438,1.046241283416748,50.1708984375,53.955078125,14.0380859375
4.635760068893433,-1355872084,1,0.5517578721046448,0.21481472253799438,1.071631908416748,53.16162109375,71.47216796875,3.41796875
4.638430833816528,-1355872065,1,0.4829102158546448,0.21627956628799438,1.051368236541748,54.87060546875,95.76416015625,-6.9580078125
4.644170045852661,-1355872086,0,0.31119304895401,0.1838068962097168,1.0161728858947754,44.37255859375,45.654296875,-26.91650390625
4.6443188190460205,-1355872050,0,0.26334148645401,0.1735529899597168,0.9907822012901306,43.45703125,45.166015625,-34.97314453125
4.659060001373291,-1355872046,1,0.4235840439796448,0.21579128503799438,0.9903330206871033,54.01611328125,97.47314453125,-4.57763671875
4.65916895866394,-1355872027,1,0.3813477158546448,0.20041042566299438,0.9805673956871033,55.35888671875,106.14013671875,-1.46484375
4.68464207649231,-1355872031,0,0.23233562707901,0.1730647087097168,0.9815048575401306,44.3115234375,43.3349609375,-38.75732421875
4.6846489906311035,-1355872012,0,0.21133953332901,0.1857600212097168,0.9841904044151306,45.41015625,39.9169921875,-39.61181640625
4.702878952026367,-1355871993,0,0.18350750207901,0.1899104118347168,0.9583114981651306,42.724609375,37.7197265625,-42.17529296875
4.720570087432861,-1355871991,1,0.3583984971046448,0.18185573816299438,0.9251474738121033,73.6083984375,93.75,-3.2958984375
4.720673084259033,-1355871972,1,0.3210449814796448,0.19748073816299438,0.9520029425621033,84.8388671875,90.51513671875,-12.87841796875
4.741059064865112,-1355871974,0,0.16299968957901,0.2021174430847168,0.9600204825401306,38.14697265625,38.51318359375,-48.2177734375
4.741070985794067,-1355871955,0,0.14957195520401,0.2145686149597168,0.9607529044151306,31.67724609375,50.29296875,-55.23681640625
4.748991012573242,-1355871953,1,0.2526856064796448,0.2577834725379944,0.9463877081871033,90.02685546875,92.041015625,-16.357421875
4.765236854553223,-1355871936,0,0.11832195520401001,0.2070002555847168,0.9297470450401306,26.3671875,59.326171875,-61.4013671875
4.785685062408447,-1355871934,1,0.21801765263080597,0.2946487069129944,0.9144052863121033,79.40673828125,65.85693359375,-7.50732421875
4.785692930221558,-1355871915,1,0.22363288700580597,0.3149123787879944,0.9097666144371033,68.115234375,45.654296875,-7.4462890625
4.79414701461792,-1355871917,0,0.10440593957901001,0.2052912712097168,0.9229111075401306,22.705078125,61.21826171875,-64.208984375
4.79424786567688,-1355871898,0,0.04483563080430031,0.2140803337097168,0.9131454825401306,20.263671875,56.09130859375,-60.791015625
4.810736894607544,-1355871896,1,0.20874030888080597,0.3273635506629944,0.8675302863121033,60.6689453125,37.78076171875,-10.3759765625
4.810793876647949,-1355871877,1,0.20361335575580597,0.3212600350379944,0.8409189581871033,55.2978515625,30.70068359375,-17.08984375
4.834657907485962,-1355871879,0,0.029210630804300308,0.2426447868347168,0.8792099356651306,19.53125,48.9501953125,-56.0302734375
4.834664821624756,-1355871860,0,0.030431333929300308,0.2633967399597168,0.8557724356651306,21.1181640625,41.93115234375,-53.5888671875
4.840636968612671,-1355871858,1,0.18725593388080597,0.3229690194129944,0.8443369269371033,57.4951171875,33.5693359375,-22.8271484375
4.8685009479522705,-1355871839,1,0.16552741825580597,0.3627639412879944,0.8406748175621033,59.814453125,40.771484375,-28.1982421875
4.887470960617065,-1355871841,0,0.03140789642930031,0.2787775993347168,0.8740829825401306,19.47021484375,40.283203125,-53.77197265625
4.887477874755859,-1355871822,0,0.012364927679300308,0.3141779899597168,0.8875107169151306,15.19775390625,49.072265625,-55.84716796875
4.900645017623901,-1355871820,1,0.12670905888080597,0.3837600350379944,0.8646005988121033,61.5234375,44.86083984375,-27.64892578125
4.9007439613342285,-1355871801,1,0.08007819950580597,0.4223342537879944,0.8484873175621033,55.96923828125,36.62109375,-22.3388671875
4.915399789810181,-1355871786,0,-0.018396791070699692,0.2870783805847168,0.8525986075401306,5.37109375,52.1240234375,-59.26513671875
4.937757968902588,-1355871782,1,0.07153327763080597,0.4338088631629944,0.8372568488121033,49.31640625,18.6767578125,-20.32470703125
4.937765121459961,-1355871763,1,0.07299812138080597,0.4313674569129944,0.8333505988121033,44.677734375,7.2021484375,-20.93505859375
4.94427490234375,-1355871767,0,-0.06649249792098999,0.3049006462097168,0.8340439200401306,5.126953125,41.259765625,-58.28857421875
4.944389820098877,-1355871748,0,-0.08382648229598999,0.3117365837097168,0.8611435294151306,7.6904296875,29.23583984375,-57.43408203125
4.959223985671997,-1355871727,1,0.06201179325580597,0.4684768319129944,0.8248056769371033,41.56494140625,5.2490234375,-20.44677734375
4.983809947967529,-1355871729,0,-0.10531085729598999,0.2821955680847168,0.9006943106651306,10.68115234375,22.39990234375,-54.99267578125
4.983816862106323,-1355871710,0,-0.08724445104598999,0.2934260368347168,0.9573349356651306,13.00048828125,22.76611328125,-53.466796875
4.988958835601807,-1355871708,1,0.06127937138080597,0.4916701912879944,0.8221201300621033,38.63525390625,6.34765625,-23.25439453125
5.0056068897247314,-1355871691,0,-0.09676593542098999,0.3014826774597168,0.9602646231651306,5.67626953125,33.99658203125,-59.814453125
5.020593881607056,-1355871689,1,0.04248054325580597,0.5112014412879944,0.8345713019371033,31.79931640625,4.08935546875,-22.03369140625
5.020671844482422,-1355871670,1,0.02075202763080597,0.5268264412879944,0.8470224738121033,20.08056640625,-0.3662109375,-14.2822265625
5.039856910705566,-1355871672,0,-0.12069171667098999,0.2882990837097168,0.9827255606651306,-0.1220703125,31.25,-58.04443359375
5.039865016937256,-1355871653,0,-0.08797687292098999,0.2834162712097168,0.9912704825401306,0.54931640625,22.5830078125,-50.6591796875
5.048969030380249,-1355871651,1,0.006103590130805969,0.4897170662879944,0.8624033331871033,11.1083984375,1.3427734375,-11.71875
5.065442085266113,-1355871634,0,-0.10164874792098999,0.2853693962097168,0.9907822012901306,1.5869140625,19.22607421875,-41.8701171875
5.086597919464111,-1355871632,1,-0.0029296129941940308,0.4892287850379944,0.8738779425621033,8.11767578125,1.77001953125,-9.09423828125
5.086605072021484,-1355871613,1,-0.02490226924419403,0.4758010506629944,0.8936533331871033,5.9814453125,4.8828125,-9.1552734375
5.098217964172363,-1355871615,0,-0.12044757604598999,0.2917170524597168,0.9839462637901306,-0.06103515625,19.04296875,-40.34423828125
5.09822678565979,-1355871596,0,-0.10946124792098999,0.2965998649597168,0.9893173575401306,-3.90625,16.845703125,-38.6962890625
5.110032796859741,-1355871594,1,-0.01928703486919403,0.4645705819129944,0.9200205206871033,6.34765625,3.11279296875,-12.87841796875
5.135666847229004,-1355871577,0,-0.10677570104598999,0.3200373649597168,0.9995712637901306,-3.96728515625,7.26318359375,-30.45654296875
5.153040885925293,-1355871558,0,-0.08504718542098999,0.3107600212097168,1.0471787452697754,-1.708984375,2.197265625,-19.22607421875
5.169465065002441,-1355871575,1,-0.01171867549419403,0.4777541756629944,0.8968271613121033,3.7841796875,-4.33349609375,-18.1884765625
5.1696250438690186,-1355871556,1,0.00952155888080597,0.5131545662879944,0.8499521613121033,6.16455078125,-12.26806640625,-22.0947265625
5.169643878936768,-1355871537,1,0.01635749638080597,0.5234084725379944,0.8187021613121033,2.13623046875,-14.22119140625,-22.27783203125
5.170377969741821,-1355871518,1,0.02636726200580597,0.5370803475379944,0.8016123175621033,-0.42724609375,-14.2822265625,-20.20263671875
5.1876678466796875,-1355871522,0,-0.06844562292098999,0.2975764274597168,1.0554795265197754,-0.79345703125,4.21142578125,-37.4755859375
5.1876749992370605,-1355871503,0,-0.07113116979598999,0.2597346305847168,1.0335068702697754,1.708984375,10.80322265625,-52.1240234375
5.199765920639038,-1355871499,1,0.03540046513080597,0.5385451912879944,0.7894052863121033,-5.37109375,-7.080078125,-17.4560546875
5.214030981063843,-1355871484,0,-0.05672686919569969,0.2541193962097168,1.0034775733947754,3.7841796875,9.33837890625,-53.89404296875
5.237604141235352,-1355871463,1,0.004638746380805969,0.5331740975379944,0.8428720831871033,-14.892578125,1.03759765625,-14.892578125
5.244080066680908,-1355871465,0,-0.07039874792098999,0.2616877555847168,0.9663681387901306,4.8828125,0.42724609375,-50.23193359375
5.2441840171813965,-1355871446,0,-0.10457843542098999,0.2499690055847168,0.9541611075401306,2.25830078125,-9.09423828125,-52.42919921875
5.259176969528198,-1355871444,1,0.01416023075580597,0.5287795662879944,0.8477548956871033,-16.4794921875,-0.1220703125,-14.5263671875
5.283706188201904,-1355871427,0,-0.12972491979599,0.2455744743347168,0.9937118887901306,-4.39453125,-21.240234375,-63.65966796875
5.289178133010864,-1355871425,1,0.01196296513080597,0.5285354256629944,0.8663095831871033,-21.3623046875,-5.31005859375,-12.51220703125
5.289376974105835,-1355871406,1,0.03247077763080597,0.5031448006629944,0.8851084113121033,-31.3720703125,-8.4228515625,-11.5966796875
5.304137945175171,-1355871408,0,-0.12264484167098999,0.2126154899597168,1.0493760108947754,-11.8408203125,-32.470703125,-70.9228515625
5.304220914840698,-1355871389,0,-0.12557452917099,0.1745295524597168,1.1116318702697754,-16.66259765625,-39.1845703125,-65.36865234375
5.3190598487854,-1355871387,1,0.01416023075580597,0.4767776131629944,0.9195322394371033,-39.55078125,-9.6435546875,-14.83154296875
5.319173812866211,-1355871368,1,-0.02392570674419403,0.4596877694129944,0.9346689581871033,-38.0859375,-7.080078125,-25.69580078125
5.341040849685669,-1355871370,0,-0.11507648229598999,0.1335139274597168,1.1201767921447754,-13.12255859375,-44.189453125,-55.7861328125
5.341048955917358,-1355871351,0,-0.10775226354598999,0.1410822868347168,1.0501084327697754,0.3662109375,-46.5087890625,-49.13330078125
5.34894585609436,-1355871349,1,-0.04394523799419403,0.4672561287879944,0.9163584113121033,-33.69140625,-9.521484375,-30.76171875
5.3659749031066895,-1355871332,0,-0.09945148229598999,0.1764826774597168,1.0549912452697754,6.40869140625,-53.52783203125,-48.9501953125
5.38627290725708,-1355871330,1,-0.06665031611919403,0.4662795662879944,0.9200205206871033,-28.1982421875,-22.705078125,-32.28759765625
5.386841058731079,-1355871311,1,-0.03369133174419403,0.4548049569129944,0.9078134894371033,-30.8837890625,-38.39111328125,-32.2265625
5.395678997039795,-1355871313,0,-0.07796710729598999,0.2074885368347168,1.0652451515197754,6.103515625,-66.95556640625,-51.45263671875
5.395798921585083,-1355871294,0,-0.07918781042098999,0.2072443962097168,1.0813584327697754,-0.244140625,-78.30810546875,-62.01171875
5.4089860916137695,-1355871292,1,0.00830085575580597,0.4374709725379944,0.9151377081871033,-33.447265625,-41.19873046875,-34.11865234375
5.43979287147522,-1355871273,1,-0.01293937861919403,0.4284377694129944,0.9390634894371033,-34.85107421875,-36.2548828125,-39.1845703125
5.440423965454102,-1355871254,1,-0.04565422236919403,0.4499221444129944,0.9930185675621033,-34.0576171875,-32.16552734375,-45.71533203125
5.454025030136108,-1355871258,0,-0.10653156042098999,0.1869807243347168,1.1511826515197754,-13.5498046875,-92.8955078125,-81.6650390625
5.4541120529174805,-1355871239,0,-0.11849445104598999,0.2038264274597168,1.1921982765197754,-18.4326171875,-99.42626953125,-84.53369140625
5.468951940536499,-1355871235,1,-0.07983390986919403,0.4406448006629944,1.021827220916748,-34.97314453125,-32.3486328125,-44.5556640625
5.488187074661255,-1355871220,0,-0.10140460729598999,0.1469416618347168,1.1841416358947754,-20.1416015625,-108.45947265625,-81.787109375
5.488193988800049,-1355871201,0,-0.07015460729598999,0.1501154899597168,1.2090439796447754,-16.41845703125,-121.39892578125,-72.57080078125
5.498960971832275,-1355871199,1,-0.13500969111919403,0.3876662850379944,1.077735424041748,-42.8466796875,-44.677734375,-40.46630859375
5.515542030334473,-1355871182,0,-0.04744952544569969,0.1903986930847168,1.2097764015197754,-9.8876953125,-134.521484375,-67.9931640625
5.5392210483551025,-1355871180,1,-0.15209953486919403,0.3776565194129944,1.120948314666748,-44.86083984375,-52.30712890625,-46.38671875
5.53922700881958,-1355871161,1,-0.17114250361919403,0.3871780037879944,1.142432689666748,-41.6259765625,-55.2978515625,-48.828125
5.545680046081543,-1355871163,0,-0.03914874419569969,0.1906428337097168,1.2647080421447754,-6.89697265625,-142.76123046875,-74.21875
5.545744180679321,-1355871144,0,-0.04867022857069969,0.1786799430847168,1.3123154640197754,-7.26318359375,-137.20703125,-81.72607421875
5.559109926223755,-1355871142,1,-0.21435539424419403,0.3522658944129944,1.152198314666748,-37.353515625,-68.42041015625,-44.677734375
5.584789037704468,-1355871125,0,-0.03939288482069969,0.1388850212097168,1.2732529640197754,-7.14111328125,-119.62890625,-73.3642578125
5.590701103210449,-1355871123,1,-0.21972648799419403,0.3244338631629944,1.136085033416748,-32.89794921875,-82.51953125,-39.9169921875
5.590733051300049,-1355871104,1,-0.18896476924419403,0.3193069100379944,1.130958080291748,-28.564453125,-89.111328125,-42.78564453125
5.604315757751465,-1355871106,0,-0.03988116607069969,0.1144709587097168,1.2371201515197754,-2.86865234375,-105.5908203125,-54.443359375
5.60439395904541,-1355871087,0,-0.04476397857069969,0.1689143180847168,1.1961045265197754,-0.54931640625,-103.3935546875,-49.37744140625
5.622066974639893,-1355871085,1,-0.18408195674419403,0.2934280037879944,1.117042064666748,-25.32958984375,-89.4775390625,-44.86083984375
5.6390509605407715,-1355871068,0,-0.03426593169569969,0.1520686149597168,1.2144150733947754,0.8544921875,-108.45947265625,-53.3447265625
5.649861812591553,-1355871066,1,-0.17382805049419403,0.2780471444129944,1.108985424041748,-23.49853515625,-89.9658203125,-43.88427734375
5.649979829788208,-1355871047,1,-0.15307609736919403,0.2790237069129944,1.109961986541748,-24.59716796875,-92.10205078125,-38.4521484375
5.685714960098267,-1355871028,1,-0.16528312861919403,0.2631545662879944,1.101905345916748,-24.23095703125,-94.6044921875,-32.40966796875
5.686384916305542,-1355871009,1,-0.13378898799419403,0.24728542566299438,1.078711986541748,-28.076171875,-109.0087890625,-27.52685546875
5.69406795501709,-1355871049,0,-0.013269837945699692,0.0978693962097168,1.2087998390197754,1.28173828125,-105.224609375,-59.75341796875
5.6942079067230225,-1355871030,0,0.03482586517930031,-0.009064197540283203,1.1123642921447754,9.765625,-94.42138671875,-53.03955078125
5.708943128585815,-1355870990,1,-0.08496086299419403,0.21188503503799438,1.048682689666748,-29.4189453125,-115.1123046875,-26.4892578125
5.734242916107178,-1355870994,0,0.07095867395401001,-0.009796619415283203,0.9587997794151306,36.92626953125,-72.08251953125,-28.076171875
5.734248876571655,-1355870975,0,0.09000164270401001,0.026336193084716797,0.9212021231651306,49.37744140625,-84.16748046875,-18.61572265625
5.740077972412109,-1355870971,1,-0.05834953486919403,0.20382839441299438,1.016211986541748,-31.18896484375,-117.73681640625,-17.9443359375
5.754063129425049,-1355870956,0,0.14810711145401,0.0734553337097168,0.8784775137901306,55.23681640625,-89.17236328125,-27.77099609375
5.754141807556152,-1355870937,0,0.17740398645401,0.0419611930847168,0.8311142325401306,53.955078125,-89.84375,-29.11376953125
5.77053689956665,-1355870935,1,0.07446296513080597,0.13986355066299438,0.9888681769371033,-38.2080078125,-114.2578125,-9.27734375
5.800656080245972,-1355870916,1,0.11157234013080597,0.11227565258741379,0.9776377081871033,-37.7197265625,-106.75048828125,-13.00048828125
5.800666093826294,-1355870897,1,0.09570319950580597,0.10275416821241379,0.9588388800621033,-32.53173828125,-96.61865234375,-20.6298828125
5.8140549659729,-1355870918,0,0.17886883020401,0.030242443084716797,0.7896103262901306,46.32568359375,-86.97509765625,-23.62060546875
5.814173936843872,-1355870899,0,0.18204265832901,0.0800471305847168,0.7571396231651306,36.56005859375,-82.58056640625,-11.04736328125
5.814978122711182,-1355870880,0,0.16934734582901,0.0588068962097168,0.7229599356651306,25.20751953125,-81.60400390625,-0.48828125
5.836864948272705,-1355870878,1,0.09204109013080597,0.11813502758741379,0.9273447394371033,-25.08544921875,-89.78271484375,-19.22607421875
5.836871862411499,-1355870859,1,0.11499030888080597,0.12863308191299438,0.8929209113121033,-19.53125,-85.38818359375,-9.033203125
5.844274997711182,-1355870861,0,0.18204265832901,0.0634455680847168,0.7302841544151306,17.88330078125,-86.7919921875,5.2490234375
5.844362020492554,-1355870842,0,0.17471843957901,0.1112971305847168,0.6841415762901306,13.00048828125,-85.9375,-2.01416015625
5.859238147735596,-1355870840,1,0.15551765263080597,0.12545925378799438,0.8833994269371033,-20.08056640625,-79.1015625,-1.15966796875
5.885180950164795,-1355870823,0,0.16007000207901,0.0903010368347168,0.6807236075401306,7.87353515625,-86.9140625,-9.033203125
5.890676021575928,-1355870821,1,0.16577155888080597,0.13668972253799438,0.8804697394371033,-22.27783203125,-74.15771484375,2.685546875
5.890763998031616,-1355870802,1,0.15722663700580597,0.13766628503799438,0.8672861456871033,-26.0009765625,-74.5849609375,5.2490234375
5.904990911483765,-1355870804,0,0.15787273645401,0.0873713493347168,0.6631454825401306,3.23486328125,-83.3740234375,-3.35693359375
5.905071020126343,-1355870785,0,0.20621258020401,0.0795588493347168,0.6360458731651306,-3.23486328125,-81.0546875,10.498046875
5.920431137084961,-1355870783,1,0.18676765263080597,0.13107448816299438,0.8279795050621033,-26.67236328125,-72.69287109375,12.0849609375
5.939461946487427,-1355870766,0,0.24210125207901,0.0946955680847168,0.6216415762901306,-5.31005859375,-77.5146484375,17.76123046875
5.950651168823242,-1355870764,1,0.17846687138080597,0.12423854321241379,0.8045420050621033,-23.3154296875,-64.02587890625,20.5078125
5.950753927230835,-1355870745,1,0.18750007450580597,0.12228541821241379,0.8123545050621033,-23.74267578125,-53.955078125,35.09521484375
5.965792894363403,-1355870730,0,0.23209148645401,0.0907893180847168,0.6775497794151306,-6.4697265625,-56.0302734375,11.71875
5.98623514175415,-1355870726,1,0.19604499638080597,0.11837916821241379,0.8243173956871033,-26.3671875,-50.29296875,47.42431640625
5.986240863800049,-1355870707,1,0.19702155888080597,0.10006862133741379,0.8638681769371033,-30.09033203125,-45.0439453125,57.2509765625
5.995858907699585,-1355870711,0,0.22720867395401,0.1088557243347168,0.7122177481651306,-10.986328125,-41.44287109375,8.36181640625
5.995998859405518,-1355870692,0,0.21890789270401,0.0995783805847168,0.7522568106651306,-15.56396484375,-31.79931640625,7.38525390625
6.036329030990601,-1355870673,0,0.23648601770401,0.0517268180847168,0.7429794669151306,-7.26318359375,-26.7333984375,7.080078125
6.040756940841675,-1355870671,1,0.20800788700580597,0.05539088696241379,0.9070810675621033,-49.6826171875,-56.640625,80.50537109375
6.040832996368408,-1355870652,1,0.24438484013080597,-0.003691144287586212,0.9097666144371033,-47.607421875,-50.35400390625,88.19580078125
6.055600166320801,-1355870654,0,0.26334148645401,0.008269786834716797,0.7390732169151306,7.50732421875,-23.01025390625,4.94384765625
6.055681943893433,-1355870635,0,0.28629070520401,0.009490489959716797,0.8137802481651306,20.69091796875,-22.27783203125,-7.4462890625
6.0692222118377686,-1355870633,1,0.2819824814796448,-0.015654034912586212,0.9383310675621033,-37.4755859375,-32.958984375,92.529296875
6.088053941726685,-1355870616,0,0.31412273645401,-0.009552478790283203,0.9004501700401306,26.7333984375,-15.19775390625,-15.56396484375
6.100713014602661,-1355870614,1,0.2910156846046448,-0.002470441162586212,0.9966806769371033,-29.78515625,-15.44189453125,94.78759765625
6.100780963897705,-1355870595,1,0.2878418564796448,-0.001982159912586212,1.038428783416748,-19.775390625,1.77001953125,97.900390625
6.114256858825684,-1355870597,0,0.32803875207901,0.010711193084716797,0.8728622794151306,31.1279296875,-0.06103515625,-4.7607421875
6.1143410205841064,-1355870578,0,0.38321453332901,0.030242443084716797,0.8313583731651306,42.90771484375,6.8359375,14.2822265625
6.1438889503479,-1355870559,0,0.51187664270401,0.0788264274597168,0.8306259512901306,66.10107421875,12.75634765625,25.2685546875
6.145576000213623,-1355870540,0,0.54703289270401,0.1383967399597168,1.0020127296447754,63.41552734375,40.283203125,-3.173828125
6.159224033355713,-1355870576,1,0.2749024033546448,-0.025663800537586212,1.046241283416748,-6.77490234375,12.39013671875,102.23388671875
6.15933895111084,-1355870557,1,0.2714844346046448,-0.007353253662586212,1.067725658416748,6.89697265625,30.2734375,113.22021484375
6.1606340408325195,-1355870538,1,0.2854004502296448,-0.04275364428758621,1.152930736541748,12.87841796875,48.88916015625,132.26318359375
6.184135913848877,-1355870521,0,0.53946453332901,0.1325373649597168,1.0842881202697754,42.48046875,58.10546875,-16.90673828125
6.202969074249268,-1355870502,0,0.58170086145401,0.0588068962097168,1.0684189796447754,30.1513671875,68.42041015625,-8.11767578125
6.2195351123809814,-1355870519,1,0.2990723252296448,-0.17117160558700562,1.257911205291748,18.85986328125,62.744140625,136.962890625
6.219681024551392,-1355870500,1,0.3381348252296448,-0.2793259024620056,1.310889720916748,41.68701171875,64.697265625,115.66162109375
6.219803094863892,-1355870481,1,0.3898926377296448,-0.13406223058700562,1.390723705291748,54.931640625,79.89501953125,85.38818359375
6.2400360107421875,-1355870466,0,0.82364422082901,0.0597834587097168,1.3372178077697754,52.3681640625,65.185546875,3.662109375
6.265509128570557,-1355870447,0,0.87076336145401,0.0658869743347168,1.4663681983947754,44.00634765625,71.59423828125,-31.982421875
6.265521764755249,-1355870428,0,0.90103679895401,-0.1242985725402832,1.4238877296447754,49.1943359375,62.255859375,-36.62109375
6.284487962722778,-1355870462,1,0.3530274033546448,0.007051043212413788,1.473487377166748,54.13818359375,115.66162109375,90.14892578125
6.285109043121338,-1355870443,1,0.3125000596046448,0.03927760571241379,1.534522533416748,52.06298828125,142.63916015625,103.1494140625
6.295983076095581,-1355870409,0,1.0245720148086548,-0.1472477912902832,1.4646592140197754,79.1015625,28.6865234375,-12.451171875
6.2960569858551025,-1355870390,0,1.3749138116836548,-0.0539860725402832,1.6338486671447754,158.02001953125,-26.123046875,-19.34814453125
6.30921483039856,-1355870407,1,0.24804694950580597,0.13107448816299438,1.669288158416748,24.59716796875,127.13623046875,110.65673828125
6.309283971786499,-1355870388,1,0.2761231064796448,0.13717800378799438,1.721534252166748,3.41796875,101.37939453125,119.873046875
6.334965944290161,-1355870371,0,1.5904899835586548,-0.0620427131652832,1.8311142921447754,201.72119140625,-62.744140625,-63.53759765625
6.340642929077148,-1355870369,1,0.3344727158546448,-0.024443097412586212,1.782325267791748,-0.91552734375,103.45458984375,153.9306640625
6.340651035308838,-1355870350,1,0.4074707627296448,-0.2524704337120056,1.849219799041748,27.83203125,126.64794921875,183.2275390625
6.3541340827941895,-1355870352,0,1.6608024835586548,-0.0803532600402832,1.7839951515197754,194.580078125,-8.72802734375,-53.22265625
6.354235887527466,-1355870333,0,1.5753532648086548,-0.0346989631652832,1.4866318702697754,182.67822265625,55.6640625,-22.0947265625
6.368934869766235,-1355870331,1,0.4831543564796448,-0.3860153555870056,1.915870189666748,62.19482421875,139.83154296875,186.4013671875
6.387844085693359,-1355870314,0,1.6703239679336548,0.0590510368347168,1.1558213233947754,168.0908203125,97.10693359375,13.12255859375
6.4009850025177,-1355870312,1,0.7368164658546448,-0.3825973868370056,1.938819408416748,103.759765625,135.19287109375,179.6875
6.401089906692505,-1355870293,1,0.8901367783546448,-0.4284958243370056,1.987403392791748,132.75146484375,119.7509765625,170.22705078125
6.415794849395752,-1355870295,0,1.5582634210586548,0.1632990837097168,0.9502548575401306,151.91650390625,117.7978515625,5.18798828125
6.41586709022522,-1355870276,0,1.4108024835586548,0.0773615837097168,0.7839950919151306,128.5400390625,112.24365234375,-27.16064453125
6.437682867050171,-1355870274,1,0.8552246689796448,-0.6433395743370056,2.066260814666748,140.0146484375,97.0458984375,142.76123046875
6.445192813873291,-1355870257,0,1.2704216241836548,0.009246349334716797,0.7263779044151306,122.49755859375,101.6845703125,-30.029296875
6.460699796676636,-1355870255,1,0.7763672471046448,-0.8037399649620056,2.104346752166748,151.30615234375,87.34130859375,99.7314453125
6.4608540534973145,-1355870236,1,0.5656738877296448,-0.9311813712120056,2.109717845916748,181.82373046875,66.34521484375,46.875
6.485148906707764,-1355870238,0,1.1578727960586548,-0.0408024787902832,0.7102646231651306,120.05615234375,92.1630859375,-21.1181640625
6.490640163421631,-1355870217,1,0.24829109013080597,-1.0720505714416504,2.028174877166748,219.3603515625,36.07177734375,22.64404296875
6.4907472133636475,-1355870198,1,0.07739265263080597,-1.1513962745666504,1.871680736541748,261.5966796875,-0.30517578125,23.25439453125
6.504035949707031,-1355870202,0,1.0218864679336548,-0.1396794319152832,0.6975693106651306,105.52978515625,90.6982421875,-25.146484375
6.520457983016968,-1355870179,1,-0.02441398799419403,-1.1633591651916504,1.731544017791748,286.80419921875,-21.728515625,15.44189453125
6.540377140045166,-1355870183,0,0.88272625207901,-0.2451481819152832,0.6758407950401306,101.9287109375,99.4873046875,-39.36767578125
6.540385007858276,-1355870164,0,0.73331218957901,-0.3247380256652832,0.6726669669151306,107.48291015625,102.783203125,-50.84228515625
6.548978805541992,-1355870143,1,-0.24853508174419403,-1.0581345558166504,1.265479564666748,313.8427734375,-85.02197265625,-17.9443359375
6.566171169281006,-1355870145,0,0.63736492395401,-0.2981266975402832,0.5950302481651306,114.6240234375,93.26171875,-71.59423828125
6.566179037094116,-1355870126,0,0.44034343957901,-0.3347477912902832,0.5093368887901306,117.73681640625,73.8525390625,-105.8349609375
6.586287975311279,-1355870124,1,-0.2792968153953552,-0.9621872305870056,0.9522470831871033,314.75830078125,-107.36083984375,-31.3720703125
6.6083598136901855,-1355870105,1,-0.3688964247703552,-0.8718551993370056,0.6868662238121033,312.56103515625,-119.5068359375,-40.1611328125
6.609029054641724,-1355870086,1,-0.4138182997703552,-0.7800583243370056,0.5076670050621033,298.2177734375,-132.87353515625,-45.5322265625
6.633742094039917,-1355870107,0,0.29654461145401,-0.3269352912902832,0.407286137342453,126.46484375,44.189453125,-127.01416015625
6.633749008178711,-1355870088,0,0.22305828332901,-0.3078923225402832,0.381407231092453,137.87841796875,17.2119140625,-126.52587890625
6.633754014968872,-1355870069,0,0.16739422082901,-0.2009587287902832,0.302793949842453,142.02880859375,-17.27294921875,-129.33349609375
6.638981103897095,-1355870067,1,-0.4082030653953552,-0.6662887930870056,0.37363380193710327,279.4189453125,-153.6865234375,-50.35400390625
6.639068841934204,-1355870048,1,-0.3945311903953552,-0.5759567618370056,0.26474708318710327,271.17919921875,-165.46630859375,-57.80029296875
6.654043912887573,-1355870050,0,0.05484539642930031,-0.1296696662902832,0.242979496717453,131.53076171875,-45.0439453125,-149.0478515625
6.654138088226318,-1355870031,0,-0.06405109167098999,-0.1103825569152832,0.200499027967453,111.63330078125,-73.54736328125,-166.44287109375
6.668933868408203,-1355870029,1,-0.3837890028953552,-0.4839157462120056,0.14731544256210327,266.9677734375,-169.98291015625,-68.9697265625
6.688298940658569,-1355870012,0,-0.12240070104598999,-0.0925602912902832,0.161680668592453,101.318359375,-101.318359375,-162.841796875
6.699260950088501,-1355870010,1,-0.3974608778953552,-0.3982223868370056,0.06430763006210327,265.93017578125,-159.423828125,-70.61767578125
6.699293851852417,-1355869991,1,-0.4194335341453552,-0.3252243399620056,-0.01747947931289673,265.9912109375,-143.798828125,-68.17626953125
6.734976053237915,-1355869972,1,-0.4421386122703552,-0.2505173087120056,-0.07534080743789673,264.58740234375,-124.6337890625,-64.208984375
6.7444610595703125,-1355869993,0,-0.19784015417099,-0.017853260040283203,0.117979496717453,96.49658203125,-144.34814453125,-142.63916015625
6.744604825973511,-1355869974,0,-0.24471515417099,0.0844416618347168,0.099913090467453,99.365234375,-193.2373046875,-123.96240234375
6.745832920074463,-1355869938,0,-0.39559406042099,0.1840510368347168,0.137754887342453,86.97509765625,-276.2451171875,-94.23828125
6.759031057357788,-1355869953,1,-0.4560546278953552,-0.13088840246200562,-0.14077049493789673,262.63427734375,-106.689453125,-64.51416015625
6.7591259479522705,-1355869934,1,-0.4946288466453552,-0.017363019287586212,-0.20278221368789673,263.916015625,-99.12109375,-69.9462890625
6.783728122711182,-1355869919,0,-0.42782062292099,0.3363947868347168,0.164122074842453,89.17236328125,-334.16748046875,-77.94189453125
6.788955211639404,-1355869915,1,-0.5895995497703552,0.10592799633741379,-0.25600486993789673,258.36181640625,-109.130859375,-75.439453125
6.805811882019043,-1355869900,0,-0.36873859167099,0.4499201774597168,0.149717777967453,99.06005859375,-384.521484375,-61.8896484375
6.805893898010254,-1355869881,0,-0.32625812292099,0.5851740837097168,0.101133793592453,118.408203125,-446.4111328125,-59.63134765625
6.838312864303589,-1355869862,0,-0.24080890417099,0.6894221305847168,0.141416996717453,129.2724609375,-479.1259765625,-62.01171875
6.849045038223267,-1355869879,1,-0.7001952528953552,0.2819533944129944,-0.33950096368789673,205.01708984375,-176.025390625,-76.7822265625
6.849151849746704,-1355869860,1,-0.7556151747703552,0.3429885506629944,-0.43032127618789673,182.80029296875,-195.556640625,-90.2099609375
6.849997043609619,-1355869841,1,-0.7636718153953552,0.3664260506629944,-0.6085439324378967,152.587890625,-195.9228515625,-120.66650390625
6.8643670082092285,-1355869843,0,-0.12630695104599,0.7738947868347168,0.225401371717453,108.45947265625,-448.8525390625,-60.9130859375
6.864375114440918,-1355869824,0,-0.030847962945699692,1.0065608024597168,0.346739262342453,19.287109375,-331.0546875,-65.00244140625
6.885715007781982,-1355869822,1,-0.7131347060203552,0.4562698006629944,-0.6339345574378967,107.421875,-163.9404296875,-160.15625
6.893932104110718,-1355869805,0,-0.05135577544569969,1.0363459587097168,0.413145512342453,-135.68115234375,-190.7958984375,-105.40771484375
6.910704851150513,-1355869803,1,-0.7929686903953552,0.4860549569129944,-0.5372548699378967,55.7861328125,-137.26806640625,-177.18505859375
6.910780906677246,-1355869784,1,-0.9460448622703552,0.4447951912879944,-0.46938377618789673,41.9921875,-140.19775390625,-188.29345703125
6.934638023376465,-1355869786,0,-0.12874835729599,0.9526057243347168,0.490538090467453,-239.2578125,-98.57177734375,-147.4609375
6.934644937515259,-1355869767,0,-0.09188312292098999,0.8232111930847168,0.6008896231651306,-274.5361328125,-69.091796875,-172.119140625
6.953058958053589,-1355869748,0,-0.016443666070699692,0.8590998649597168,0.8230575919151306,-268.24951171875,-89.53857421875,-125.06103515625
6.969943046569824,-1355869765,1,-1.1877440214157104,0.5158401131629944,-0.36464744806289673,21.05712890625,-163.0859375,-209.65576171875
6.970085144042969,-1355869746,1,-1.3298338651657104,0.5492873787879944,-0.33754783868789673,-26.55029296875,-188.8427734375,-210.3271484375
6.970098972320557,-1355869727,1,-1.3403319120407104,0.6464553475379944,-0.34926658868789673,-84.8388671875,-182.373046875,-187.6220703125
6.988052845001221,-1355869729,0,0.20084148645401,0.9682307243347168,1.1187119483947754,-242.67578125,-130.7373046875,-59.9365234375
6.988059043884277,-1355869710,0,0.29361492395401,1.0541682243347168,1.3608994483947754,-229.00390625,-142.27294921875,-48.03466796875
7.00088906288147,-1355869708,1,-1.4099119901657104,0.5654006600379944,-0.29067283868789673,-114.19677734375,-158.69140625,-169.98291015625
7.000900030136108,-1355869689,1,-1.4421385526657104,0.5536819100379944,-0.22841697931289673,-122.86376953125,-129.57763671875,-158.8134765625
7.015625953674316,-1355869674,0,0.16544109582901,0.7543635368347168,1.5161728858947754,-201.7822265625,-72.20458984375,-83.251953125
7.038352012634277,-1355869670,1,-1.6157225370407104,0.6093459725379944,-0.08876854181289673,-132.26318359375,-110.41259765625,-151.0009765625
7.045877933502197,-1355869655,0,0.16837078332901,0.7253108024597168,1.6836533546447754,-181.2744140625,-59.6923828125,-59.02099609375
7.0849831104278564,-1355869636,0,0.29923015832901,0.7555842399597168,1.8699326515197754,-163.2080078125,-57.43408203125,-3.35693359375
7.08499002456665,-1355869617,0,0.47672039270401,0.7062678337097168,2.0159287452697754,-166.259765625,-35.2783203125,15.93017578125
7.08913779258728,-1355869651,1,-1.6879881620407104,0.7309280037879944,0.06162208318710327,-146.8505859375,-109.130859375,-133.544921875
7.08930778503418,-1355869615,1,-1.6037596464157104,0.8747268319129944,0.19321388006210327,-178.1005859375,-109.31396484375,-71.83837890625
7.089998960494995,-1355869596,1,-1.5546873807907104,0.8500686287879944,0.25254005193710327,-184.26513671875,-98.5107421875,-44.677734375
7.104495048522949,-1355869598,0,0.51651531457901,0.5800471305847168,2.0169053077697754,-192.44384765625,28.01513671875,14.09912109375
7.118044853210449,-1355869577,1,-1.4897459745407104,0.8559280037879944,0.30185645818710327,-181.396484375,-88.623046875,-27.587890625
7.140082836151123,-1355869579,0,0.53165203332901,0.4074397087097168,1.9946885108947754,-217.1630859375,75.439453125,16.29638671875
7.140089988708496,-1355869560,0,0.54483562707901,0.1742854118347168,1.9739365577697754,-214.599609375,103.82080078125,37.353515625
7.150125026702881,-1355869558,1,-1.4094237089157104,0.8542190194129944,0.36826270818710327,-166.50390625,-63.720703125,-6.16455078125
7.15018105506897,-1355869539,1,-1.3051756620407104,0.7709670662879944,0.44077247381210327,-143.5546875,-28.13720703125,18.12744140625
7.16629695892334,-1355869541,0,0.62051922082901,0.004607677459716797,1.9605088233947754,-162.109375,98.2666015625,52.91748046875
7.166308164596558,-1355869522,0,0.66080242395401,-0.1426091194152832,1.8652939796447754,-118.71337890625,94.8486328125,59.9365234375
7.1865739822387695,-1355869520,1,-1.1459959745407104,0.6633010506629944,0.5586923956871033,-120.361328125,-2.8076171875,26.9775390625
7.19434380531311,-1355869503,0,0.65591961145401,-0.2441716194152832,1.7153916358947754,-99.2431640625,111.2060546875,81.48193359375
7.21077299118042,-1355869501,1,-1.0471190214157104,0.5470901131629944,0.6590341925621033,-107.48291015625,3.90625,27.64892578125
7.210896968841553,-1355869482,1,-0.8859862685203552,0.5224319100379944,0.6592783331871033,-107.177734375,-2.74658203125,18.24951171875
7.235696792602539,-1355869484,0,0.68277508020401,-0.4367985725402832,1.5784287452697754,-116.5771484375,140.5029296875,114.3798828125
7.235703945159912,-1355869465,0,0.75772625207901,-0.6767888069152832,1.5403428077697754,-115.6005859375,155.09033203125,151.0009765625
7.253026008605957,-1355869446,0,0.97769695520401,-0.9079899787902832,1.5391221046447754,-95.21484375,149.658203125,182.92236328125
7.269188165664673,-1355869463,1,-1.2409666776657104,0.5173049569129944,-0.06752830743789673,-197.021484375,15.7470703125,82.09228515625
7.269361972808838,-1355869444,1,-1.1389158964157104,0.05319362133741379,0.22641700506210327,-224.91455078125,56.7626953125,119.68994140625
7.27003288269043,-1355869425,1,-0.9611815810203552,-0.23147433996200562,0.7444834113121033,-185.791015625,70.80078125,83.19091796875
7.287941932678223,-1355869410,0,1.1185661554336548,-1.1511540412902832,1.5691514015197754,-37.41455078125,202.69775390625,294.12841796875
7.299666881561279,-1355869406,1,-1.0129393339157104,0.04513698071241379,1.033790111541748,-148.193359375,58.41064453125,31.494140625
7.315714120864868,-1355869391,0,1.1835075616836548,-1.3325505256652832,1.5156846046447754,1.40380859375,254.33349609375,349.06005859375
7.315794944763184,-1355869372,0,1.2648063898086548,-1.4079899787902832,1.4417099952697754,35.5224609375,272.03369140625,407.40966796875
7.336668968200684,-1355869387,1,-0.9572753310203552,0.19626003503799438,1.141944408416748,-133.48388671875,64.27001953125,42.41943359375
7.344421148300171,-1355869353,0,1.2801872491836548,-1.3921208381652832,1.4473252296447754,62.255859375,276.3671875,453.79638671875
7.359184741973877,-1355869351,1,-0.5610350966453552,0.04709010571241379,1.028907299041748,-110.41259765625,122.4365234375,40.0390625
7.35926079750061,-1355869332,1,-0.5622557997703552,0.06491237133741379,0.8829111456871033,-107.91015625,134.3994140625,32.89794921875
7.383997917175293,-1355869334,0,1.2726188898086548,-1.2883610725402832,1.4605088233947754,75.37841796875,307.861328125,469.23828125
7.384005784988403,-1355869315,0,1.0089470148086548,-1.1540837287902832,1.3152451515197754,74.64599609375,368.408203125,510.7421875
7.388916015625,-1355869313,1,-0.7868651747703552,0.3993850350379944,0.8580088019371033,-102.96630859375,123.35205078125,67.81005859375
7.404175043106079,-1355869296,0,0.99161297082901,-1.1284489631652832,0.9790634512901306,64.88037109375,383.85009765625,538.9404296875
7.4191179275512695,-1355869294,1,-0.5529784560203552,0.09298854321241379,0.5342783331871033,-119.0185546875,108.0322265625,30.1513671875
7.440035104751587,-1355869277,0,1.0411735773086548,-0.9758610725402832,0.8474716544151306,72.75390625,330.74951171875,563.720703125
7.440042972564697,-1355869258,0,1.0277458429336548,-0.7302556037902832,0.7730087637901306,86.3037109375,266.9677734375,566.162109375
7.449927806854248,-1355869275,1,-0.7248534560203552,0.2531448006629944,0.38437598943710327,-139.22119140625,124.3896484375,37.17041015625
7.4500861167907715,-1355869256,1,-0.9648436903953552,0.3686233162879944,0.5030283331871033,-133.11767578125,111.26708984375,87.7685546875
7.4501659870147705,-1355869237,1,-1.0480955839157104,0.2941604256629944,0.45078223943710327,-159.0576171875,80.322265625,116.0888671875
7.46494197845459,-1355869239,0,1.0467888116836548,-0.4338688850402832,0.7300400137901306,78.2470703125,226.1962890625,534.60693359375
7.4650468826293945,-1355869220,0,1.0287224054336548,-0.2031559944152832,0.6797470450401306,64.27001953125,197.8759765625,514.46533203125
7.486690044403076,-1355869218,1,-0.9929198622703552,0.24557644128799438,0.30087989568710327,-196.59423828125,54.8095703125,148.62060546875
7.494030952453613,-1355869201,0,1.0746208429336548,0.020965099334716797,0.429502934217453,63.8427734375,166.50390625,495.17822265625
7.509251117706299,-1355869199,1,-1.0200194120407104,0.2548537850379944,0.31113380193710327,-189.02587890625,72.6318359375,168.701171875
7.50931191444397,-1355869180,1,-1.1855467557907104,0.18039089441299438,0.23593848943710327,-195.12939453125,113.1591796875,227.4169921875
7.539995908737183,-1355869161,1,-1.0053709745407104,0.2568069100379944,0.35337013006210327,-171.38671875,137.51220703125,216.9189453125
7.555795907974243,-1355869182,0,1.0616813898086548,0.2072443962097168,0.242979496717453,56.0302734375,128.41796875,456.4208984375
7.5559117794036865,-1355869146,0,0.95279461145401,0.3827815055847168,0.273008793592453,45.5322265625,75.3173828125,348.5107421875
7.5693700313568115,-1355869142,1,-0.9057616591453552,0.2748733162879944,0.27988380193710327,-150.87890625,166.32080078125,200.13427734375
7.569442987442017,-1355869123,1,-0.8278807997703552,0.2978225350379944,0.18833106756210327,-114.07470703125,207.51953125,199.5849609375
7.588030815124512,-1355869127,0,0.79874187707901,0.4091486930847168,0.410459965467453,51.20849609375,54.6875,325.68359375
7.588037014007568,-1355869108,0,0.67105633020401,0.4176936149597168,0.5845322012901306,32.89794921875,23.74267578125,306.45751953125
7.602144002914429,-1355869087,1,-0.6049804091453552,0.17721706628799438,0.19004005193710327,-93.75,237.9150390625,185.72998046875
7.614417791366577,-1355869089,0,0.65298992395401,0.3976740837097168,0.5757431387901306,7.4462890625,19.34814453125,279.1748046875
7.614551067352295,-1355869070,0,0.68008953332901,0.4670100212097168,0.5083603262901306,-27.03857421875,21.42333984375,227.11181640625
7.636218070983887,-1355869068,1,-0.6213378310203552,0.3371291756629944,0.32236427068710327,-65.85693359375,237.6708984375,151.06201171875
7.646131992340088,-1355869051,0,0.70767742395401,0.5910334587097168,0.5679306387901306,-43.8232421875,26.7333984375,159.3017578125
7.660554885864258,-1355869049,1,-0.5930175185203552,-0.016630597412586212,0.11850684881210327,-54.99267578125,204.65087890625,152.34375
7.660653114318848,-1355869030,1,-0.6936034560203552,0.6122756600379944,0.26572364568710327,-39.48974609375,209.8388671875,151.79443359375
7.686952829360962,-1355869032,0,0.71256023645401,0.6574397087097168,0.6853622794151306,-19.10400390625,20.81298828125,106.0791015625
7.686959981918335,-1355869013,0,0.66397625207901,0.5710139274597168,0.7805771231651306,3.90625,23.13232421875,68.54248046875
7.6909990310668945,-1355869011,1,-0.8869628310203552,0.5129104256629944,0.31308692693710327,-107.36083984375,178.89404296875,159.423828125
7.704358816146851,-1355868994,0,0.53214031457901,0.5312190055847168,0.8533310294151306,11.41357421875,59.9365234375,61.4013671875
7.720747947692871,-1355868992,1,-0.7636718153953552,0.5290237069129944,0.35922950506210327,-126.953125,141.6015625,171.2646484375
7.720850944519043,-1355868973,1,-0.7534179091453552,0.5597854256629944,0.32480567693710327,-124.3896484375,124.32861328125,169.00634765625
7.739991903305054,-1355868975,0,0.35806804895401,0.4633479118347168,0.8594345450401306,-38.75732421875,99.365234375,84.16748046875
7.739998817443848,-1355868956,0,0.23990398645401,0.4560236930847168,0.8184189200401306,-90.4541015625,92.59033203125,101.98974609375
7.785456895828247,-1355868954,1,-0.7177733778953552,0.6298537850379944,0.29428809881210327,-133.48388671875,115.53955078125,167.96875
7.78546404838562,-1355868935,1,-0.7133788466453552,0.6686721444129944,0.23569434881210327,-154.541015625,110.9619140625,178.28369140625
7.785467863082886,-1355868916,1,-0.6513671278953552,0.6379104256629944,0.21079200506210327,-158.935546875,126.77001953125,197.75390625
7.794149160385132,-1355868937,0,0.22061687707901,0.4718928337097168,0.7715439200401306,-96.0693359375,44.98291015625,97.47314453125
7.794251918792725,-1355868918,0,0.32755047082901,0.4528498649597168,0.8320907950401306,-79.1015625,-22.15576171875,75.0732421875
7.809299945831299,-1355868897,1,-0.5556640028953552,0.5939651131629944,0.29062598943710327,-151.611328125,149.5361328125,202.69775390625
7.80939793586731,-1355868878,1,-0.5170897841453552,0.6296096444129944,0.39267677068710327,-139.58740234375,147.03369140625,178.1005859375
7.835160970687866,-1355868882,0,0.60635906457901,0.4008479118347168,0.9978622794151306,-141.2353515625,50.6591796875,51.1474609375
7.835169076919556,-1355868863,0,0.66226726770401,0.4486994743347168,0.9224228262901306,-181.15234375,115.1123046875,17.88330078125
7.8406898975372314,-1355868859,1,-0.5292968153953552,0.7419143319129944,0.35459083318710327,-149.5361328125,121.15478515625,148.13232421875
7.854779005050659,-1355868844,0,0.60342937707901,0.4533381462097168,0.9734482169151306,-199.70703125,126.52587890625,-26.79443359375
7.870622873306274,-1355868823,1,-0.4348143935203552,0.7973342537879944,0.25327247381210327,-213.8671875,74.89013671875,151.0009765625
7.888076066970825,-1355868825,0,0.46085125207901,0.3927912712097168,1.0210556983947754,-185.302734375,96.0693359375,-56.94580078125
7.8880839347839355,-1355868806,0,0.47476726770401,0.3644709587097168,1.1226181983947754,-162.90283203125,46.142578125,-77.1484375
7.9006640911102295,-1355868804,1,-0.3698729872703552,0.7184768319129944,0.28208106756210327,-233.09326171875,66.83349609375,149.4140625
7.914207935333252,-1355868787,0,0.42154461145401,0.4045100212097168,1.3103623390197754,-180.908203125,47.42431640625,-104.248046875
7.936599969863892,-1355868785,1,-0.3364257216453552,0.7441115975379944,0.35190528631210327,-240.78369140625,59.50927734375,120.78857421875
7.9366090297698975,-1355868766,1,-0.3242186903953552,0.7809768319129944,0.38364356756210327,-264.5263671875,37.04833984375,100.64697265625
7.944247007369995,-1355868768,0,0.38882976770401,0.3844904899597168,1.4070420265197754,-203.67431640625,73.73046875,-134.27734375
7.944350004196167,-1355868749,0,0.24893718957901,0.2485041618347168,1.5369248390197754,-210.44921875,83.43505859375,-190.3076171875
7.959115028381348,-1355868747,1,-0.3317870497703552,0.7821975350379944,0.46274513006210327,-302.06298828125,11.474609375,84.3505859375
7.959216117858887,-1355868728,1,-0.3928222060203552,0.7616897225379944,0.6346201300621033,-349.4873046875,-22.52197265625,57.4951171875
7.986236810684204,-1355868730,0,0.08560711145401001,0.0321955680847168,1.7468857765197754,-190.4296875,64.75830078125,-202.57568359375
7.986243963241577,-1355868711,0,-0.04036944732069969,-0.025177478790283203,1.9392685890197754,-147.5830078125,87.70751953125,-223.6328125
7.990293979644775,-1355868709,1,-0.4577636122703552,0.6962600350379944,0.9017099738121033,-401.3671875,-67.44384765625,18.37158203125
8.004151105880737,-1355868692,0,-0.27987140417099,-0.2082829475402832,1.8892197608947754,-117.5537109375,109.130859375,-245.17822265625
8.019129991531372,-1355868690,1,-0.5637206435203552,0.6303420662879944,1.172706127166748,-443.54248046875,-120.2392578125,-17.7001953125
8.019219875335693,-1355868671,1,-0.7150878310203552,0.4032912850379944,1.534766674041748,-499.45068359375,-206.787109375,-56.15234375
8.040353059768677,-1355868673,0,-0.43465656042099,-0.3581852912902832,1.7927842140197754,-79.9560546875,94.54345703125,-270.56884765625
8.04035997390747,-1355868654,0,-0.54232257604599,-0.7112126350402832,1.7664170265197754,-45.5322265625,64.453125,-315.24658203125
8.049407958984375,-1355868652,1,-0.8054198622703552,0.13913112878799438,1.962745189666748,-514.83154296875,-284.97314453125,-59.326171875
8.08626413345337,-1355868633,1,-0.6914061903953552,-0.2563766837120056,2.172461986541748,-395.93505859375,-295.2880859375,-9.3994140625
8.086271047592163,-1355868614,1,-0.4670409560203552,-0.5591110587120056,1.990088939666748,-196.59423828125,-239.92919921875,16.6015625
8.094177961349487,-1355868618,0,-0.67318195104599,-1.2480778694152832,1.5857529640197754,66.83349609375,55.7861328125,-193.2373046875
8.094306945800781,-1355868599,0,-0.58040851354599,-0.9853825569152832,1.0872178077697754,105.224609375,46.20361328125,-114.92919921875
8.109062910079956,-1355868595,1,-0.3242186903953552,-0.5207809805870056,1.706885814666748,39.24560546875,-144.83642578125,-22.76611328125
8.135078191757202,-1355868580,0,-0.21981281042099,-1.0412907600402832,0.9050888419151306,125.79345703125,39.24560546875,-126.5869140625
8.135086059570312,-1355868561,0,-0.26424640417099,-0.9502263069152832,0.8872665762901306,243.896484375,42.66357421875,-114.501953125
8.140775918960571,-1355868559,1,-0.7829589247703552,0.11447291821241379,1.346534252166748,81.11572265625,-183.2275390625,-43.88427734375
8.154124021530151,-1355868542,0,-0.12435382604598999,-0.7556462287902832,0.5103134512901306,315.12451171875,-32.40966796875,-1.708984375
8.169158935546875,-1355868540,1,-0.5878905653953552,0.09127955883741379,0.9537119269371033,64.0869140625,-221.435546875,9.09423828125
8.169263124465942,-1355868521,1,-0.3325194716453552,0.013642840087413788,0.5914072394371033,120.91064453125,-177.6123046875,22.52197265625
8.189179182052612,-1355868523,0,0.06168133392930031,-0.4731755256652832,0.453428715467453,351.6845703125,-69.88525390625,39.85595703125
8.19024109840393,-1355868504,0,0.04507977142930031,-0.3410954475402832,0.369932621717453,370.849609375,-78.79638671875,40.71044921875
8.199068784713745,-1355868502,1,-0.2846679091453552,0.04562526196241379,0.32138770818710327,182.18994140625,-114.56298828125,44.677734375
8.23737907409668,-1355868483,1,-0.11962883174419403,0.015840105712413788,0.16245216131210327,191.34521484375,-83.0078125,81.48193359375
8.237385988235474,-1355868464,1,0.15600593388080597,-0.14236301183700562,0.06748145818710327,177.79541015625,-44.43359375,120.60546875
8.244361877441406,-1355868485,0,0.14590984582901,-0.1308903694152832,0.083555668592453,339.05029296875,-79.77294921875,63.78173828125
8.244499921798706,-1355868466,0,0.13443523645401,0.1310725212097168,0.011290039867162704,295.8984375,-48.03466796875,84.47265625
8.245285034179688,-1355868447,0,0.20621258020401,0.2807307243347168,-0.086122065782547,247.74169921875,-37.7197265625,96.435546875
8.259240865707397,-1355868445,1,0.4565430283546448,-0.2976364493370056,-0.02529197931289673,193.05419921875,27.587890625,129.8828125
8.284198760986328,-1355868428,0,0.38174968957901,0.4972834587097168,-0.078797847032547,188.90380859375,-41.015625,91.00341796875
8.303177833557129,-1355868409,0,0.42471843957901,0.6222834587097168,0.101377934217453,153.1982421875,-48.03466796875,61.03515625
8.304182052612305,-1355868390,0,0.45352703332901,0.7358088493347168,0.181211918592453,143.37158203125,-27.099609375,27.4658203125
8.319447040557861,-1355868426,1,0.3256836533546448,-0.3088669180870056,0.48862403631210327,245.78857421875,122.9248046875,146.6064453125
8.319561004638672,-1355868407,1,0.9758301377296448,-1.1601853370666504,-0.5672841668128967,251.953125,250.8544921875,-0.3662109375
8.319586038589478,-1355868388,1,0.5969238877296448,0.2675490975379944,0.21860450506210327,252.25830078125,197.509765625,72.1435546875
8.348191976547241,-1355868369,1,0.9108887314796448,-0.5110153555870056,0.22568458318710327,199.70703125,168.88427734375,57.12890625
8.364037036895752,-1355868354,0,0.41470867395401,0.9237971305847168,0.409239262342453,95.27587890625,-67.32177734375,10.009765625
8.364164113998413,-1355868335,0,0.41129070520401,0.9186701774597168,0.5252060294151306,113.58642578125,-75.8056640625,27.28271484375
8.387233972549438,-1355868350,1,0.9025879502296448,-0.2532028555870056,0.31064552068710327,213.07373046875,209.65576171875,29.1748046875
8.387902975082397,-1355868331,1,0.8662109971046448,-0.2783493399620056,0.30307716131210327,240.8447265625,293.5791015625,-2.685546875
8.394211053848267,-1355868316,0,0.39615398645401,1.0050959587097168,0.5493759512901306,109.9853515625,-82.82470703125,37.04833984375
8.394284963607788,-1355868297,0,0.40811687707901,0.9831233024597168,0.5496200919151306,78.18603515625,-64.51416015625,33.50830078125
8.409065008163452,-1355868295,1,0.4914551377296448,-0.06667942553758621,0.43125098943710327,374.57275390625,535.46142578125,-118.34716796875
8.424192905426025,-1355868278,0,0.44083172082901,0.9318537712097168,0.5618271231651306,37.41455078125,-33.3251953125,28.01513671875
8.441137790679932,-1355868276,1,0.03833015263080597,0.5097365975379944,0.7500986456871033,342.8955078125,466.064453125,-157.40966796875
8.441591024398804,-1355868257,1,-0.10717765986919403,0.7660842537879944,0.7281259894371033,164.00146484375,291.3818359375,-85.205078125
8.454203128814697,-1355868259,0,0.40616375207901,0.8505549430847168,0.6060165762901306,15.13671875,-24.10888671875,22.15576171875
8.45432186126709,-1355868240,0,0.38590008020401,0.7939143180847168,0.6575302481651306,17.08984375,-45.0439453125,28.01513671875
8.46917200088501,-1355868238,1,0.08251960575580597,0.6650100350379944,0.6243662238121033,2.685546875,172.7294921875,-20.20263671875
8.469300985336304,-1355868219,1,0.20605476200580597,0.5165725350379944,0.5799326300621033,-72.93701171875,166.32080078125,-0.244140625
8.489092111587524,-1355868221,0,0.41934734582901,0.7399592399597168,0.7844833731651306,42.96875,-82.51953125,51.26953125
8.489099025726318,-1355868202,0,0.48477703332901,0.7536311149597168,0.8279404044151306,66.58935546875,-105.04150390625,75.13427734375
8.500673055648804,-1355868200,1,0.02636726200580597,0.4323440194129944,0.6741709113121033,-118.896484375,185.9130859375,30.1513671875
8.514113903045654,-1355868183,0,0.54849773645401,0.8183283805847168,0.8411239981651306,68.2373046875,-105.46875,73.54736328125
8.536827802658081,-1355868181,1,-0.08129875361919403,0.3464065194129944,0.8436045050621033,-202.08740234375,232.11669921875,14.2822265625
8.53683614730835,-1355868162,1,-0.3972167372703552,0.23092800378799438,1.100928783416748,-309.63134765625,283.447265625,-17.333984375
8.544291019439697,-1355868164,0,0.60440593957901,0.8268733024597168,0.8235458731651306,41.748046875,-83.06884765625,44.7998046875
8.54440689086914,-1355868145,0,0.60074383020401,0.7455744743347168,0.7979111075401306,14.95361328125,-51.20849609375,13.12255859375
8.559254884719849,-1355868143,1,-0.8315429091453552,-0.020292706787586212,1.412452220916748,-435.11962890625,297.30224609375,-25.634765625
8.586639165878296,-1355868126,0,0.54971843957901,0.7052912712097168,0.7302841544151306,15.13671875,-45.0439453125,1.220703125
8.590842008590698,-1355868124,1,-1.3293455839157104,-0.5478805899620056,1.789893627166748,-623.35205078125,212.70751953125,18.6767578125
8.590848922729492,-1355868105,1,-1.0876463651657104,-1.5971970558166504,2.406592845916748,-685.48583984375,119.56787109375,41.8701171875
8.604079008102417,-1355868090,0,0.60953289270401,0.5881037712097168,0.7058700919151306,22.76611328125,-102.84423828125,-20.751953125
8.61896800994873,-1355868086,1,-1.2285155057907104,-2.3137497901916504,3.043067455291748,-376.8310546875,184.38720703125,-35.58349609375
8.64127516746521,-1355868071,0,0.61758953332901,0.5253596305847168,0.7090439200401306,31.55517578125,-117.67578125,7.01904296875
8.641282081604004,-1355868052,0,0.79874187707901,0.5839533805847168,0.6484970450401306,31.1279296875,-117.12646484375,29.296875
8.649046897888184,-1355868067,1,-2.23388671875,-1.8733201026916504,2.931739330291748,-16.54052734375,229.79736328125,-57.67822265625
8.694308996200562,-1355868033,0,1.0209099054336548,0.9325861930847168,0.7161239981651306,35.2783203125,-86.3037109375,-2.25830078125
8.694418907165527,-1355868014,0,1.0187126398086548,0.5514826774597168,0.356749027967453,-74.70703125,-70.80078125,-91.4306640625
8.709457874298096,-1355868031,1,-2.33642578125,-1.7680954933166504,2.480811595916748,-3.5400390625,-12.75634765625,-221.3134765625
8.709558010101318,-1355868012,1,-2.3115234375,-1.6494431495666504,2.100684642791748,-69.091796875,-260.986328125,-414.9169921875
8.709573745727539,-1355867993,1,-2.86572265625,-1.6152634620666504,1.684913158416748,-60.302734375,-340.63720703125,-522.27783203125
8.734792947769165,-1355867995,0,0.75015789270401,0.2458186149597168,0.5039657950401306,-31.31103515625,-140.380859375,-49.13330078125
8.734800100326538,-1355867976,0,0.79434734582901,0.3210139274597168,0.5491318106651306,12.8173828125,-200.927734375,7.99560546875
8.74120807647705,-1355867974,1,-3.443115234375,-1.5754685401916504,1.578223705291748,39.0625,-267.02880859375,-532.65380859375
8.741215944290161,-1355867955,1,-3.6748046875,-1.3418259620666504,1.597022533416748,150.146484375,-201.2939453125,-503.96728515625
8.754163980484009,-1355867957,0,0.47134929895401,0.4093928337097168,1.0086045265197754,104.00390625,-224.91455078125,109.43603515625
8.754248857498169,-1355867938,0,0.84073406457901,0.7577815055847168,0.8511337637901306,67.87109375,-194.51904296875,81.54296875
8.769006967544556,-1355867936,1,-3.558837890625,-1.2766404151916504,1.672461986541748,184.9365234375,-219.1162109375,-491.02783203125
8.790215969085693,-1355867919,0,0.75601726770401,0.3674006462097168,0.6834091544151306,-26.79443359375,-151.9775390625,-36.68212890625
8.79022479057312,-1355867900,0,0.48795086145401,0.0944514274597168,0.270567387342453,5.0048828125,-201.7822265625,49.560546875
8.80263900756836,-1355867917,1,-3.365966796875,-1.2851853370666504,1.584327220916748,196.83837890625,-324.76806640625,-554.3212890625
8.802649021148682,-1355867898,1,-3.33349609375,-1.2549118995666504,1.086280345916748,217.1630859375,-404.60205078125,-574.462890625
8.83617615699768,-1355867879,1,-3.296630859375,-1.0871872901916504,0.6595224738121033,234.130859375,-380.06591796875,-555.72509765625
8.836849927902222,-1355867860,1,-3.0087890625,-0.8576950430870056,0.5176767706871033,228.759765625,-353.515625,-527.77099609375
8.844272136688232,-1355867881,0,0.41397625207901,-0.1990056037902832,-0.253358393907547,16.357421875,-311.279296875,164.85595703125
8.844357013702393,-1355867862,0,1.3570915460586548,0.6069025993347168,-0.481141597032547,-10.8642578125,-332.1533203125,97.10693359375
8.85917592048645,-1355867841,1,-2.292724609375,-0.8562301993370056,0.43003028631210327,251.46484375,-325.50048828125,-529.11376953125
8.885030031204224,-1355867826,0,1.4598747491836548,0.0395197868347168,-0.366151362657547,-180.5419921875,-182.92236328125,-103.1494140625
8.889189004898071,-1355867822,1,-2.167724609375,-0.6645798087120056,0.29257911443710327,298.52294921875,-333.80126953125,-557.12890625
8.889266967773438,-1355867803,1,-2.189453125,-0.3305954337120056,0.02573341131210327,322.93701171875,-329.7119140625,-529.84619140625
8.9041268825531,-1355867807,0,1.2308708429336548,-0.1001286506652832,-0.480653315782547,-255.4931640625,-185.72998046875,-91.12548828125
8.904262781143188,-1355867788,0,1.1605583429336548,-0.011505603790283203,-0.275331050157547,-269.4091796875,-217.6513671875,-160.46142578125
8.91885495185852,-1355867767,1,-1.5200194120407104,0.3644729256629944,-0.43007713556289673,283.26416015625,-193.05419921875,-362.79296875
8.940546989440918,-1355867769,0,0.95645672082901,0.1183772087097168,-0.078309565782547,-283.0810546875,-235.2294921875,-201.47705078125
8.940554857254028,-1355867750,0,0.87711101770401,0.3293147087097168,0.0017685554921627045,-294.00634765625,-245.849609375,-199.8291015625
8.949336051940918,-1355867748,1,-1.2370604276657104,0.5346389412879944,-0.36489158868789673,234.92431640625,-154.052734375,-310.546875
8.96434497833252,-1355867731,0,0.89200359582901,0.2409358024597168,0.194883793592453,-278.80859375,-260.6201171875,-266.9677734375
8.987201929092407,-1355867729,1,-0.9956054091453552,0.6623244881629944,-0.28139549493789673,196.47216796875,-140.7470703125,-271.91162109375
8.987208843231201,-1355867710,1,-0.7158202528953552,0.7719436287879944,-0.33754783868789673,169.43359375,-124.45068359375,-251.28173828125
8.994205951690674,-1355867712,0,0.52774578332901,0.1730647087097168,0.408995121717453,-207.21435546875,-259.765625,-268.6767578125
8.994299173355103,-1355867693,0,0.52994304895401,0.3478693962097168,0.391172856092453,-160.2783203125,-256.591796875,-212.158203125
9.009119033813477,-1355867691,1,-0.5004882216453552,0.8735061287879944,-0.37148338556289673,142.15087890625,-83.984375,-229.30908203125
9.040358781814575,-1355867672,1,-0.3994140028953552,0.9145217537879944,-0.29360252618789673,116.02783203125,-36.0107421875,-198.8525390625
9.054507970809937,-1355867674,0,0.63419109582901,0.5458674430847168,0.264708012342453,-126.46484375,-247.49755859375,-203.79638671875
