sync_time,timestamp_ms,device_id,ax,ay,az,gx,gy,gz
0.007296085357666016,-1269743276,1,-0.42662152647972107,0.5522364377975464,0.32250669598579407,75.74462890625,-125.42724609375,60.4248046875
0.0073070526123046875,-1269743257,1,-0.29625043272972107,0.5541895627975464,0.28246763348579407,55.96923828125,-107.2998046875,52.6123046875
0.02257823944091797,-1269743238,0,0.5133434534072876,0.2530757486820221,-0.3546866476535797,-69.39697265625,-12.87841796875,-62.68310546875
0.03489112854003906,-1269743238,1,-0.22374068200588226,0.5783594846725464,0.28344419598579407,34.97314453125,-80.13916015625,43.8232421875
0.034995317459106445,-1269743219,1,-0.21983443200588226,0.5534571409225464,0.29125669598579407,20.44677734375,-60.11962890625,42.96875
0.049999237060546875,-1269743219,0,0.4632946252822876,0.2997066080570221,-0.3131827414035797,-63.3544921875,-28.50341796875,-50.96435546875
0.050092220306396484,-1269743200,0,0.4491344690322876,0.3404780924320221,-0.3122061789035797,-57.18994140625,-38.63525390625,-28.86962890625
0.06631135940551758,-1269743200,1,-0.22520552575588226,0.5212305784225464,0.31396177411079407,1.77001953125,-47.18017578125,41.32080078125
0.09386920928955078,-1269743181,1,-0.19542036950588226,0.4619044065475464,0.33984068036079407,-7.2021484375,-33.447265625,36.56005859375
0.09470415115356445,-1269743162,1,-0.18736372888088226,0.4272364377975464,0.36791685223579407,-15.13671875,-20.263671875,24.169921875
0.11377310752868652,-1269743164,0,0.4767223596572876,0.3600093424320221,-0.3007315695285797,-46.81396484375,-24.7802734375,19.53125
0.11378121376037598,-1269743145,0,0.4513317346572876,0.3333980143070221,-0.2558096945285797,-39.24560546875,-20.81298828125,31.8603515625
0.12468528747558594,-1269743143,1,-0.16563521325588226,0.4313868284225464,0.42089536786079407,-23.193359375,-10.7421875,15.0146484375
0.1399250030517578,-1269743126,0,0.4171520471572876,0.3453609049320221,-0.2348136007785797,-27.587890625,-20.08056640625,32.65380859375
0.13999629020690918,-1269743107,0,0.3697887659072876,0.3583003580570221,-0.1906241476535797,-20.99609375,-27.587890625,31.494140625
0.16378426551818848,-1269743124,1,-0.18418990075588226,0.4533594846725464,0.49560239911079407,-27.2216796875,10.80322265625,2.197265625
0.16948819160461426,-1269743088,0,0.3277965784072876,0.3346187174320221,-0.1493643820285797,-17.7001953125,-39.12353515625,29.96826171875
0.18462419509887695,-1269743088,1,-0.28721722960472107,0.5329493284225464,0.5908172130584717,-31.1279296875,22.64404296875,0.18310546875
0.18471407890319824,-1269743069,1,-0.27403363585472107,0.5468653440475464,0.6455047130584717,-47.7294921875,16.54052734375,13.36669921875
0.20092415809631348,-1269743069,0,0.3375622034072876,0.3307124674320221,-0.1393546164035797,-13.12255859375,-50.96435546875,29.47998046875
0.20093321800231934,-1269743050,0,0.3866344690322876,0.3204585611820221,-0.1376456320285797,-1.953125,-65.185546875,37.53662109375
0.2180471420288086,-1269743050,1,-0.26133832335472107,0.5060938596725464,0.6857879161834717,-56.33544921875,15.80810546875,18.310546875
0.22996211051940918,-1269743031,0,0.4462047815322876,0.2811519205570221,-0.1386221945285797,15.68603515625,-70.3125,51.69677734375
0.2450273036956787,-1269743031,1,-0.25816449522972107,0.4826563596725464,0.6970183849334717,-55.2978515625,15.5029296875,18.1884765625
0.24503612518310547,-1269743012,1,-0.25352582335472107,0.5063380002975464,0.7019011974334717,-50.96435546875,22.0947265625,12.0849609375
0.2684211730957031,-1269743012,0,0.4266735315322876,0.2271968424320221,-0.1615714132785797,33.0810546875,-61.82861328125,55.5419921875
0.2684292793273926,-1269742993,0,0.4249645471572876,0.2269527018070221,-0.1950186789035797,50.537109375,-61.279296875,61.58447265625
0.273665189743042,-1269742993,1,-0.25938519835472107,0.5585840940475464,0.7248504161834717,-49.072265625,26.2451171875,6.103515625
0.28910326957702637,-1269742974,0,0.3658825159072876,0.2796870768070221,-0.2213858664035797,63.5986328125,-70.80078125,69.27490234375
0.3124401569366455,-1269742974,1,-0.26182660460472107,0.5917872190475464,0.7394988536834717,-61.8896484375,30.3955078125,3.41796875
0.31244802474975586,-1269742955,1,-0.28111371397972107,0.5908106565475464,0.7531707286834717,-77.392578125,28.86962890625,6.53076171875
0.3352382183074951,-1269742936,1,-0.30357465147972107,0.5007227659225464,0.7597625255584717,-93.32275390625,27.34375,4.8828125
0.33535003662109375,-1269742917,1,-0.35435590147972107,0.4291895627975464,0.7897918224334717,-89.84375,30.70068359375,-5.37109375
0.3498821258544922,-1269742955,0,0.4183727502822876,0.2567378580570221,-0.3007315695285797,64.27001953125,-89.4775390625,75.74462890625
0.34999513626098633,-1269742936,0,0.5350719690322876,0.2445308268070221,-0.3954581320285797,76.904296875,-99.42626953125,89.05029296875
0.362213134765625,-1269742900,0,0.6805797815322876,0.1678706705570221,-0.5302237272262573,101.25732421875,-90.27099609375,119.140625
0.3664541244506836,-1269742898,1,-0.39952191710472107,0.3803614377975464,0.7807586193084717,-68.7255859375,39.24560546875,-19.59228515625
0.3795812129974365,-1269742881,0,0.7589489221572876,0.1173335611820221,-0.6088370084762573,122.25341796875,-75.1953125,133.9111328125
0.3947172164916992,-1269742879,1,-0.42784222960472107,0.3513087034225464,0.7851531505584717,-41.19873046875,47.54638671875,-30.517578125
0.39480137825012207,-1269742860,1,-0.47715863585472107,0.4116114377975464,0.7590301036834717,-14.2822265625,52.3681640625,-33.75244140625
0.4160182476043701,-1269742862,0,0.7909313440322876,0.035302311182022095,-0.7340811491012573,129.82177734375,-56.640625,134.09423828125
0.416027307510376,-1269742843,0,0.8583141565322876,0.025292545557022095,-0.8400381803512573,135.498046875,-48.88916015625,116.51611328125
0.43866825103759766,-1269742824,0,0.9254528284072876,0.045556217432022095,-0.9098623991012573,141.17431640625,-43.9453125,91.064453125
0.4623444080352783,-1269742824,1,-0.48277387022972107,0.5717676877975464,0.7492644786834717,-26.4892578125,59.5703125,-17.9443359375
0.46235227584838867,-1269742805,1,-0.49327191710472107,0.5722559690475464,0.7853972911834717,-52.91748046875,66.22314453125,-2.9296875
0.46975111961364746,-1269742805,0,0.9281383752822876,0.011620670557022095,-0.9364737272262573,137.8173828125,-35.888671875,43.27392578125
0.4698140621185303,-1269742786,0,0.9281383752822876,-0.053564876317977905,-0.9655264616012573,127.62451171875,-26.18408203125,-8.1787109375
0.4846172332763672,-1269742786,1,-0.5189067125320435,0.5478419065475464,0.8561980724334717,-77.2705078125,72.265625,9.765625
0.4847123622894287,-1269742767,1,-0.5694438219070435,0.4892481565475464,0.8727996349334717,-83.43505859375,68.66455078125,15.13671875
0.4998362064361572,-1269742767,0,0.9410778284072876,-0.060400813817977905,-0.9965323209762573,123.291015625,-24.7802734375,-42.3583984375
0.49994421005249023,-1269742748,0,0.9481579065322876,-0.058935970067977905,-1.0504873991012573,126.8310546875,-22.03369140625,-58.837890625
0.5199933052062988,-1269742748,1,-0.5735942125320435,0.4841212034225464,0.8554656505584717,-73.79150390625,64.0869140625,18.310546875
0.5295472145080566,-1269742729,0,0.9598766565322876,-0.054297298192977905,-1.1068838834762573,131.40869140625,-9.46044921875,-77.5146484375
0.5478782653808594,-1269742729,1,-0.5381938219070435,0.5175684690475464,0.8759734630584717,-49.25537109375,72.021484375,30.45654296875
0.5478882789611816,-1269742710,1,-0.5489360094070435,0.5832422971725464,0.8771941661834717,-34.7900390625,83.0078125,44.73876953125
0.5653781890869141,-1269742710,0,0.9396129846572876,-0.057226985692977905,-1.1486319303512573,142.9443359375,8.9111328125,-97.412109375
0.5653870105743408,-1269742691,0,0.8824840784072876,-0.0650394856929779,-1.1681631803512573,153.3203125,25.69580078125,-119.9951171875
0.574695348739624,-1269742691,1,-0.5399028062820435,0.6435450315475464,0.8586394786834717,-41.93115234375,85.38818359375,53.77197265625
0.5895082950592041,-1269742672,0,0.8566051721572876,-0.0765140950679779,-1.1686514616012573,158.69140625,38.26904296875,-142.63916015625
0.6143531799316406,-1269742672,1,-0.5047465562820435,0.6474512815475464,0.8718230724334717,-52.001953125,92.7734375,59.326171875
0.6143622398376465,-1269742653,1,-0.5421000719070435,0.5961817502975464,0.9382293224334717,-52.1240234375,104.43115234375,67.19970703125
0.619922399520874,-1269742636,0,0.7782360315322876,-0.034277766942977905,-1.2692373991012573,164.36767578125,74.52392578125,-193.29833984375
0.6372511386871338,-1269742634,1,-0.5240336656570435,0.5507715940475464,0.9892547130584717,-34.36279296875,114.013671875,66.2841796875
0.6607050895690918,-1269742617,0,0.6376110315322876,0.0843745768070221,-1.3695791959762573,136.16943359375,88.2568359375,-205.810546875
0.6607151031494141,-1269742598,0,0.5272594690322876,0.1122066080570221,-1.3021963834762573,95.39794921875,85.38818359375,-210.8154296875
0.6649632453918457,-1269742615,1,-0.47813519835472107,0.5554102659225464,1.0593230724334717,-0.79345703125,126.953125,62.92724609375
0.6649701595306396,-1269742596,1,-0.46421918272972107,0.6000880002975464,1.0783660411834717,20.56884765625,131.04248046875,63.232421875
0.6796801090240479,-1269742579,0,0.4632946252822876,0.050439029932022095,-1.1811026334762573,65.97900390625,76.84326171875,-215.9423828125
0.694791316986084,-1269742560,1,-0.43834027647972107,0.6628321409225464,1.0883758068084717,37.59765625,121.826171875,60.6689453125
0.7155342102050781,-1269742560,0,0.4337536096572876,0.0797359049320221,-1.1388663053512573,54.62646484375,76.11083984375,-221.0693359375
0.7161903381347656,-1269742541,0,0.3404918909072876,0.0953609049320221,-1.0822256803512573,31.55517578125,82.6416015625,-218.07861328125
0.7249011993408203,-1269742541,1,-0.38121137022972107,0.6655176877975464,1.0373504161834717,39.794921875,98.20556640625,64.697265625
0.7399523258209229,-1269742522,0,0.2154918909072876,0.048485904932022095,-1.0448721647262573,11.1083984375,83.92333984375,-209.89990234375
0.7630021572113037,-1269742522,1,-0.26646527647972107,0.6577051877975464,0.9724090099334717,34.0576171875,79.345703125,71.47216796875
0.7630112171173096,-1269742503,1,-0.22374068200588226,0.6616114377975464,0.9460418224334717,29.541015625,77.94189453125,77.0263671875
0.7695801258087158,-1269742503,0,0.1232067421078682,0.0873042643070221,-1.0658682584762573,-2.13623046875,72.998046875,-203.43017578125
0.7697012424468994,-1269742484,0,0.1529918909072876,0.1327144205570221,-1.0373038053512573,-22.94921875,50.9033203125,-188.53759765625
0.784858226776123,-1269742484,1,-0.22325240075588226,0.6367090940475464,0.9543426036834717,24.84130859375,79.1015625,78.43017578125
0.7994651794433594,-1269742465,0,0.2286754846572876,0.1429683268070221,-0.9914053678512573,-33.26416015625,40.8935546875,-162.353515625
0.8193573951721191,-1269742465,1,-0.23619185388088226,0.5783594846725464,0.9990203380584717,30.517578125,77.69775390625,77.81982421875
0.8193671703338623,-1269742446,1,-0.33140668272972107,0.5912989377975464,0.9606902599334717,52.490234375,73.66943359375,68.90869140625
0.829815149307251,-1269742446,0,0.3141247034072876,0.1629878580570221,-1.0084952116012573,-38.87939453125,46.5087890625,-127.3193359375
0.829963207244873,-1269742427,0,0.3754040002822876,0.1678706705570221,-0.9838370084762573,-41.56494140625,54.87060546875,-94.7265625
0.8655910491943359,-1269742408,0,0.4774547815322876,0.1903316080570221,-0.9245108366012573,-43.212890625,68.2373046875,-63.4765625
0.8889501094818115,-1269742372,0,0.5111461877822876,0.1959468424320221,-0.8795889616012573,-26.0009765625,76.7822265625,-41.9921875
0.9124581813812256,-1269742427,1,-0.33946332335472107,0.7421778440475464,0.8828094005584717,55.419921875,57.12890625,68.78662109375
0.912466287612915,-1269742408,1,-0.30772504210472107,0.8068751096725464,0.8640105724334717,49.560546875,56.94580078125,74.70703125
0.9196822643280029,-1269742353,0,0.4982067346572876,0.2374507486820221,-0.8402823209762573,-19.83642578125,68.7255859375,-36.4990234375
0.919816255569458,-1269742334,0,0.5380016565322876,0.1910640299320221,-0.8024405241012573,-20.3857421875,68.84765625,-22.3388671875
0.9359362125396729,-1269742389,1,-0.33799847960472107,0.7961329221725464,0.8278777599334717,38.818359375,64.8193359375,84.89990234375
0.935945987701416,-1269742370,1,-0.35435590147972107,0.7487696409225464,0.8447234630584717,34.66796875,66.89453125,87.646484375
0.9498021602630615,-1269742315,0,0.5297008752822876,0.2711421549320221,-0.8026846647262573,-30.76171875,66.58935546875,-22.64404296875
0.9667420387268066,-1269742351,1,-0.34190472960472107,0.6838282346725464,0.8286101818084717,44.5556640625,63.29345703125,77.94189453125
0.9667532444000244,-1269742332,1,-0.32603558897972107,0.6640528440475464,0.7751433849334717,55.7861328125,59.4482421875,67.07763671875
0.9672331809997559,-1269742296,1,-0.25889691710472107,0.7495020627975464,0.6762664318084717,76.66015625,40.83251953125,58.16650390625
0.9796631336212158,-1269742296,0,0.5836559534072876,0.2520991861820221,-0.7440909147262573,-46.93603515625,56.7626953125,-35.5224609375
0.9797623157501221,-1269742277,0,0.5494762659072876,0.2391597330570221,-0.6747549772262573,-46.630859375,49.31640625,-48.9501953125
0.9946281909942627,-1269742277,1,-0.21714888513088226,0.8034571409225464,0.6279265880584717,70.3125,28.74755859375,73.2421875
0.9947431087493896,-1269742258,1,-0.18492232263088226,0.7194727659225464,0.5192840099334717,42.96875,17.63916015625,69.27490234375
1.0148801803588867,-1269742258,0,0.5145641565322876,0.1834956705570221,-0.5460928678512573,-46.56982421875,45.0439453125,-72.021484375
1.014890193939209,-1269742239,0,0.4291149377822876,0.2179194986820221,-0.4865225851535797,-35.58349609375,43.45703125,-75.439453125
1.0245661735534668,-1269742239,1,-0.15489302575588226,0.6245020627975464,0.43896177411079407,28.38134765625,9.765625,59.02099609375
1.0396101474761963,-1269742220,0,0.3883434534072876,0.2867671549320221,-0.4542960226535797,-24.2919921875,30.33447265625,-61.8896484375
1.0636873245239258,-1269742220,1,-0.08702193200588226,0.5400294065475464,0.37524107098579407,31.1279296875,10.986328125,40.52734375
1.0636951923370361,-1269742201,1,-0.021836381405591965,0.5417383909225464,0.31396177411079407,41.32080078125,17.51708984375,31.25
1.0695621967315674,-1269742201,0,0.4186168909072876,0.2979976236820221,-0.4003409445285797,-12.5732421875,21.97265625,-39.61181640625
1.0696771144866943,-1269742182,0,0.4354625940322876,0.2232905924320221,-0.3598136007785797,9.033203125,27.7099609375,-13.427734375
1.0847461223602295,-1269742182,1,0.010390181094408035,0.6098536252975464,0.25536802411079407,37.7197265625,26.30615234375,31.982421875
1.0995824337005615,-1269742163,0,0.4493786096572876,0.1939937174320221,-0.3056143820285797,24.7802734375,37.17041015625,-6.04248046875
1.1184053421020508,-1269742163,1,0.016249556094408035,0.6391505002975464,0.25487974286079407,13.97705078125,33.3251953125,35.2783203125
1.1184163093566895,-1269742144,1,0.019179243594408035,0.5617579221725464,0.33837583661079407,-5.43212890625,36.9873046875,27.2216796875
1.1296272277832031,-1269742144,0,0.4833141565322876,0.1590816080570221,-0.2934073507785797,34.5458984375,46.44775390625,-13.00048828125
1.1445591449737549,-1269742125,1,0.010146040469408035,0.5026758909225464,0.34350278973579407,-10.3759765625,35.888671875,12.14599609375
1.1670920848846436,-1269742108,0,0.5004040002822876,0.3167964518070221,-0.3087882101535797,38.330078125,24.2919921875,-42.1142578125
1.167100191116333,-1269742089,0,0.5965954065322876,0.3333980143070221,-0.3646964132785797,41.07666015625,1.52587890625,-41.32080078125
1.17482328414917,-1269742106,1,-0.004258256405591965,0.4279688596725464,0.29736021161079407,-3.47900390625,35.82763671875,-5.18798828125
1.1895272731781006,-1269742070,0,0.6407848596572876,0.3563472330570221,-0.4086417257785797,50.84228515625,3.35693359375,-31.92138671875
1.2191240787506104,-1269742051,0,0.6634899377822876,0.3812495768070221,-0.4743155539035797,59.99755859375,28.3203125,-16.78466796875
1.219994306564331,-1269742032,0,0.5655895471572876,0.4259273111820221,-0.5041006803512573,58.41064453125,49.1943359375,-4.57763671875
1.2348463535308838,-1269742087,1,-0.056260209530591965,0.4785059690475464,0.23583675920963287,5.0048828125,39.0625,-16.41845703125
1.2348711490631104,-1269742068,1,-0.10289107263088226,0.6193751096725464,0.28271177411079407,7.8125,60.1806640625,-20.99609375
1.240227222442627,-1269742032,1,-0.25694379210472107,0.7382715940475464,0.36986997723579407,-5.615234375,108.94775390625,-22.64404296875
1.2497930526733398,-1269742013,0,0.5582653284072876,0.4632808268070221,-0.5480459928512573,47.36328125,36.43798828125,9.33837890625
1.2669262886047363,-1269742013,1,-0.27989301085472107,0.6801661252975464,0.42162778973579407,-15.869140625,117.24853515625,-25.7568359375
1.2669382095336914,-1269741994,1,-0.35191449522972107,0.6747950315475464,0.47045591473579407,-19.287109375,126.28173828125,-35.5224609375
1.2816650867462158,-1269741994,0,0.6195446252822876,0.4449702799320221,-0.6266592741012573,38.39111328125,14.16015625,16.05224609375
1.2816734313964844,-1269741975,0,0.7362438440322876,0.3932124674320221,-0.7384756803512573,27.4658203125,4.21142578125,13.916015625
1.2948081493377686,-1269741975,1,-0.42027387022972107,0.6872462034225464,0.48339536786079407,-20.56884765625,127.685546875,-45.2880859375
1.3156673908233643,-1269741956,0,0.7823864221572876,0.3416987955570221,-0.7926748991012573,27.77099609375,22.52197265625,6.53076171875
1.3156774044036865,-1269741937,0,0.7362438440322876,0.3529292643070221,-0.8383291959762573,29.47998046875,39.73388671875,0.91552734375
1.3248870372772217,-1269741956,1,-0.49595746397972107,0.7670801877975464,0.5290496349334717,-22.4609375,121.39892578125,-38.75732421875
1.324925184249878,-1269741937,1,-0.5447856187820435,0.7719630002975464,0.5532195568084717,-26.79443359375,109.80224609375,-32.2265625
1.3395912647247314,-1269741918,0,0.6879040002822876,0.3346187174320221,-0.8107413053512573,21.1181640625,43.5791015625,-4.45556640625
1.3636062145233154,-1269741918,1,-0.5128031969070435,0.7175196409225464,0.5864226818084717,-32.89794921875,87.82958984375,-29.35791015625
1.3636143207550049,-1269741899,1,-0.49253949522972107,0.6694239377975464,0.6193816661834717,-35.888671875,82.70263671875,-35.94970703125
1.3835701942443848,-1269741880,1,-0.5076762437820435,0.6572169065475464,0.6391570568084717,-30.21240234375,84.65576171875,-48.583984375
1.3997001647949219,-1269741899,0,0.6415172815322876,0.2735835611820221,-0.8014639616012573,15.19775390625,35.58349609375,-12.14599609375
1.3997533321380615,-1269741880,0,0.6263805627822876,0.2391597330570221,-0.8261221647262573,18.85986328125,21.54541015625,-15.869140625
1.4174273014068604,-1269741861,1,-0.5259867906570435,0.6245020627975464,0.6733367443084717,-26.30615234375,86.9140625,-56.15234375
1.4174351692199707,-1269741842,1,-0.5699321031570435,0.5754297971725464,0.7082488536834717,-23.681640625,78.125,-65.24658203125
1.4298503398895264,-1269741844,0,0.5970836877822876,0.1607905924320221,-0.8864248991012573,22.27783203125,6.53076171875,-22.52197265625
1.429901123046875,-1269741825,0,0.5524059534072876,0.1234370768070221,-0.8888663053512573,27.34375,4.39453125,-17.822265625
1.4444680213928223,-1269741823,1,-0.6082621812820435,0.5595606565475464,0.7451140880584717,-24.4140625,62.6220703125,-80.13916015625
1.468522071838379,-1269741806,0,0.5436168909072876,0.1534663736820221,-0.8729971647262573,25.146484375,-1.15966796875,-11.8408203125
1.4685313701629639,-1269741787,0,0.5372692346572876,0.1720210611820221,-0.8449209928512573,22.64404296875,-2.685546875,-2.62451171875
1.4745311737060547,-1269741804,1,-0.6160746812820435,0.5405176877975464,0.7534148693084717,-28.1982421875,44.0673828125,-89.29443359375
1.4895291328430176,-1269741768,0,0.5050426721572876,0.1939937174320221,-0.8324698209762573,10.80322265625,2.44140625,2.99072265625
1.514742136001587,-1269741768,1,-0.6993266344070435,0.5085352659225464,0.7900359630584717,-32.958984375,8.4228515625,-97.83935546875
1.5147502422332764,-1269741749,1,-0.6900492906570435,0.4592188596725464,0.7946746349334717,-36.92626953125,-18.9208984375,-101.806640625
1.519773244857788,-1269741749,0,0.4396129846572876,0.1874019205570221,-0.7780264616012573,-2.01416015625,2.3193359375,6.28662109375
1.5198473930358887,-1269741730,0,0.3949352502822876,0.1908198893070221,-0.7279776334762573,-13.5498046875,-3.84521484375,13.00048828125
1.5346801280975342,-1269741730,1,-0.6883403062820435,0.3925684690475464,0.7817351818084717,-29.35791015625,-38.39111328125,-102.84423828125
1.549992322921753,-1269741711,0,0.4239879846572876,0.1742183268070221,-0.6901358366012573,-23.5595703125,-17.39501953125,27.587890625
1.5660371780395508,-1269741711,1,-0.7108012437820435,0.3200587034225464,0.7595183849334717,-9.82666015625,-59.99755859375,-105.95703125
1.5660462379455566,-1269741692,1,-0.7657328844070435,0.2714747190475464,0.7539031505584717,16.05224609375,-78.9794921875,-116.455078125
1.579634189605713,-1269741692,0,0.4935680627822876,0.1688472330570221,-0.7257803678512573,-35.888671875,-35.09521484375,56.640625
1.5797152519226074,-1269741673,0,0.5682750940322876,0.1346675455570221,-0.7255362272262573,-43.51806640625,-46.2646484375,81.6650390625
1.594557285308838,-1269741673,1,-0.8079692125320435,0.2717188596725464,0.7578094005584717,34.912109375,-93.75,-128.23486328125
1.6151342391967773,-1269741654,0,0.6886364221572876,0.1246577799320221,-0.7677725553512573,-48.33984375,-58.65478515625,113.28125
1.6389262676239014,-1269741635,0,0.8043590784072876,0.1139155924320221,-0.8178213834762573,-50.59814453125,-70.12939453125,136.474609375
1.6397252082824707,-1269741616,0,0.8866344690322876,0.0999995768070221,-0.8231924772262573,-53.16162109375,-79.58984375,141.7236328125
1.6623022556304932,-1269741654,1,-0.8729106187820435,0.2973536252975464,0.7492644786834717,40.58837890625,-105.28564453125,-142.4560546875
1.6623103618621826,-1269741635,1,-1.0052348375320435,0.3034571409225464,0.7326629161834717,39.12353515625,-119.32373046875,-159.60693359375
1.6728153228759766,-1269741580,0,0.9225231409072876,0.1727534830570221,-0.8207510709762573,-63.04931640625,-101.13525390625,112.97607421875
1.6852033138275146,-1269741616,1,-1.1085063219070435,0.2846583127975464,0.6904265880584717,45.95947265625,-129.21142578125,-171.93603515625
1.6853103637695312,-1269741597,1,-1.1873637437820435,0.3063868284225464,0.6394011974334717,70.9228515625,-132.32421875,-175.84228515625
1.6995251178741455,-1269741561,0,0.9286266565322876,0.2159663736820221,-0.8058584928512573,-82.45849609375,-112.4267578125,85.9375
1.7163691520690918,-1269741578,1,-1.2449809312820435,0.3034571409225464,0.6213347911834717,91.73583984375,-138.12255859375,-167.96875
1.7163782119750977,-1269741559,1,-1.3072367906570435,0.3283594846725464,0.5969207286834717,119.9951171875,-151.79443359375,-153.74755859375
1.7163841724395752,-1269741540,1,-1.2918559312820435,0.3566797971725464,0.6071746349334717,151.3671875,-168.02978515625,-135.6201171875
1.766242265701294,-1269741542,0,0.9093395471572876,0.2364741861820221,-0.7797354459762573,-96.25244140625,-122.1923828125,75.927734375
1.7662510871887207,-1269741523,0,0.9591442346572876,0.2591792643070221,-0.7738760709762573,-99.4873046875,-133.72802734375,72.44873046875
1.7673630714416504,-1269741504,0,1.0411754846572876,0.3219234049320221,-0.7829092741012573,-101.07421875,-133.544921875,62.07275390625
1.7673721313476562,-1269741485,0,1.0277477502822876,0.2977534830570221,-0.7250479459762573,-102.1728515625,-118.0419921875,56.15234375
1.7746341228485107,-1269741504,1,-1.2906352281570435,0.3046778440475464,0.5036590099334717,190.49072265625,-214.90478515625,-95.88623046875
1.789675235748291,-1269741466,0,1.0001598596572876,0.3373042643070221,-0.7218741178512573,-93.32275390625,-94.1162109375,50.9033203125
1.813230276107788,-1269741485,1,-1.2549906969070435,0.3056544065475464,0.39208677411079407,196.2890625,-238.76953125,-88.56201171875
1.8132381439208984,-1269741466,1,-1.2034770250320435,0.3168848752975464,0.31762388348579407,204.65087890625,-252.13623046875,-87.158203125
1.8132431507110596,-1269741447,1,-1.1509867906570435,0.4194239377975464,0.26391294598579407,205.4443359375,-254.45556640625,-79.77294921875
1.8196353912353516,-1269741447,0,0.9205700159072876,0.3475581705570221,-0.6254385709762573,-83.0078125,-85.44921875,44.25048828125
1.8197672367095947,-1269741428,0,0.8348766565322876,0.3741694986820221,-0.5617178678512573,-79.2236328125,-84.1064453125,39.9169921875
1.835050106048584,-1269741428,1,-1.0369731187820435,0.5263575315475464,0.27904966473579407,190.4296875,-244.07958984375,-64.0869140625
1.8499162197113037,-1269741409,0,0.7284313440322876,0.3294917643070221,-0.4813956320285797,-78.9794921875,-87.0361328125,33.14208984375
1.868138074874878,-1269741409,1,-0.9227153062820435,0.5244044065475464,0.33422544598579407,168.15185546875,-222.96142578125,-48.9501953125
1.8681480884552002,-1269741390,1,-0.8746196031570435,0.5161036252975464,0.37548521161079407,136.3525390625,-204.52880859375,-45.166015625
1.8799512386322021,-1269741390,0,0.6649547815322876,0.3675777018070221,-0.4499014914035797,-71.533203125,-92.83447265625,30.8837890625
1.8800311088562012,-1269741371,0,0.6114879846572876,0.3470698893070221,-0.4994620382785797,-62.98828125,-94.6044921875,41.44287109375
1.9146912097930908,-1269741352,0,0.6471325159072876,0.4488765299320221,-0.5290030241012573,-64.5751953125,-100.76904296875,49.072265625
1.9247312545776367,-1269741371,1,-0.8597270250320435,0.4311426877975464,0.49706724286079407,107.91015625,-184.6923828125,-40.71044921875
1.9247963428497314,-1269741352,1,-0.6959086656570435,0.4228419065475464,0.5339324474334717,108.7646484375,-175.6591796875,-30.45654296875
1.925532341003418,-1269741333,1,-0.6099711656570435,0.3810938596725464,0.5541961193084717,109.31396484375,-144.95849609375,-22.76611328125
1.9396700859069824,-1269741316,0,0.5411754846572876,0.4012691080570221,-0.4987296164035797,-47.66845703125,-96.86279296875,51.3916015625
1.962895154953003,-1269741314,1,-0.5596781969070435,0.4255274534225464,0.5419890880584717,111.4501953125,-126.3427734375,-22.3388671875
1.9696671962738037,-1269741297,0,0.4628063440322876,0.4354487955570221,-0.5375479459762573,-40.1611328125,-86.181640625,48.40087890625
1.9697551727294922,-1269741278,0,0.4054332971572876,0.4693843424320221,-0.5858877897262573,-47.7294921875,-85.9375,34.912109375
1.9848601818084717,-1269741295,1,-0.5101176500320435,0.5034083127975464,0.5222136974334717,101.318359375,-105.04150390625,-23.92578125
1.9849331378936768,-1269741276,1,-0.42735394835472107,0.5810450315475464,0.5046355724334717,80.810546875,-85.205078125,-21.78955078125
1.9998862743377686,-1269741259,0,0.3148571252822876,0.4964839518070221,-0.6054190397262573,-47.18017578125,-91.552734375,30.517578125
2.0162031650543213,-1269741240,1,-0.34800824522972107,0.6413477659225464,0.48998716473579407,60.05859375,-41.9921875,-11.41357421875
2.030012369155884,-1269741240,0,0.2457653284072876,0.5272456407546997,-0.6432608366012573,-46.630859375,-100.52490234375,36.2548828125
2.0300862789154053,-1269741221,0,0.1849743127822876,0.5814448595046997,-0.6867178678512573,-55.0537109375,-124.93896484375,50.10986328125
2.0445539951324463,-1269741221,1,-0.34703168272972107,0.6611231565475464,0.5075652599334717,54.62646484375,-15.07568359375,4.08935546875
2.0665290355682373,-1269741202,0,0.1588512659072876,0.5492182970046997,-0.7892569303512573,-63.3544921875,-151.30615234375,67.2607421875
2.0746853351593018,-1269741202,1,-0.36949262022972107,0.6313380002975464,0.5771453380584717,54.62646484375,0.244140625,17.333984375
2.0748260021209717,-1269741183,1,-0.37217816710472107,0.6301172971725464,0.6081511974334717,48.27880859375,3.35693359375,23.8037109375
2.0895962715148926,-1269741183,0,0.1854625940322876,0.4984370768070221,-0.8449209928512573,-74.64599609375,-159.97314453125,77.392578125
2.0896880626678467,-1269741164,0,0.2272106409072876,0.4942866861820221,-0.8717764616012573,-77.33154296875,-155.3955078125,85.9375
2.1192431449890137,-1269741164,1,-0.34727582335472107,0.6435450315475464,0.6433074474334717,31.67724609375,9.8876953125,29.35791015625
2.123300313949585,-1269741145,0,0.3068004846572876,0.4579097330570221,-0.8532217741012573,-68.05419921875,-151.30615234375,99.18212890625
2.1353352069854736,-1269741145,1,-0.36290082335472107,0.5847071409225464,0.6735808849334717,12.39013671875,16.7236328125,29.60205078125
2.1354660987854004,-1269741126,1,-0.37291058897972107,0.5141505002975464,0.6640594005584717,-7.2021484375,16.54052734375,28.6865234375
2.149867057800293,-1269741126,0,0.3556286096572876,0.4073726236820221,-0.8217276334762573,-56.2744140625,-138.61083984375,104.6142578125
2.1500422954559326,-1269741107,0,0.3990856409072876,0.3370601236820221,-0.7770498991012573,-52.30712890625,-122.802734375,106.62841796875
2.1671512126922607,-1269741107,1,-0.37144574522972107,0.4521387815475464,0.6860320568084717,-21.30126953125,20.56884765625,25.69580078125
2.1671602725982666,-1269741088,1,-0.44883832335472107,0.3581446409225464,0.7048308849334717,-23.62060546875,33.50830078125,16.2353515625
2.1797292232513428,-1269741088,0,0.4154430627822876,0.2789546549320221,-0.7187002897262573,-34.97314453125,-102.84423828125,98.2666015625
2.1945841312408447,-1269741069,1,-0.5159770250320435,0.3137110471725464,0.7072722911834717,-10.25390625,33.63037109375,11.71875
2.215400218963623,-1269741052,0,0.3937145471572876,0.3019038736820221,-0.7160147428512573,-26.06201171875,-84.53369140625,77.81982421875
2.2249321937561035,-1269741050,1,-0.5843364000320435,0.3061426877975464,0.6704070568084717,-1.15966796875,20.5078125,13.671875
2.22499418258667,-1269741031,1,-0.6072856187820435,0.3561915159225464,0.6398894786834717,-4.7607421875,7.568359375,11.90185546875
2.239847183227539,-1269741033,0,0.4430309534072876,0.3194819986820221,-0.6894034147262573,-38.14697265625,-88.134765625,71.044921875
2.239915132522583,-1269741014,0,0.5043102502822876,0.2965327799320221,-0.6588858366012573,-46.630859375,-88.7451171875,62.43896484375
2.2634973526000977,-1269741012,1,-0.5879985094070435,0.4470118284225464,0.6227996349334717,-28.13720703125,-2.74658203125,18.5546875
2.2695722579956055,-1269740995,0,0.4794079065322876,0.2337886393070221,-0.5824698209762573,-47.66845703125,-82.94677734375,50.9033203125
2.2845382690429688,-1269740976,1,-0.5980082750320435,0.3959864377975464,0.6081511974334717,-77.33154296875,-5.43212890625,37.17041015625
2.299673318862915,-1269740976,0,0.4274059534072876,0.1971675455570221,-0.4806632101535797,-44.7998046875,-82.82470703125,29.052734375
2.2997822761535645,-1269740957,0,0.3583141565322876,0.1664058268070221,-0.4457511007785797,-30.8837890625,-97.47314453125,10.68115234375
2.315523147583008,-1269740957,1,-0.6243754625320435,0.2907618284225464,0.5971648693084717,-90.9423828125,-13.24462890625,33.38623046875
2.31553316116333,-1269740938,1,-0.5879985094070435,0.2155665010213852,0.5881316661834717,-83.06884765625,-24.169921875,22.8271484375
2.3298981189727783,-1269740938,0,0.3680797815322876,0.1888667643070221,-0.4528311789035797,-13.48876953125,-112.1826171875,-5.4931640625
2.3299672603607178,-1269740919,0,0.3817516565322876,0.2567378580570221,-0.5204581022262573,-3.84521484375,-123.046875,-0.67138671875
2.3446640968322754,-1269740919,1,-0.5501567125320435,0.2150782197713852,0.5864226818084717,-75.86669921875,-21.97265625,15.07568359375
2.3675031661987305,-1269740900,0,0.4286266565322876,0.2389155924320221,-0.6159170866012573,8.9111328125,-120.30029296875,15.380859375
2.3746471405029297,-1269740900,1,-0.5494242906570435,0.2551172971725464,0.5837371349334717,-74.27978515625,-5.43212890625,4.150390625
2.374709129333496,-1269740881,1,-0.6497660875320435,0.2663477659225464,0.6005828380584717,-74.52392578125,17.39501953125,-0.9765625
2.3897364139556885,-1269740881,0,0.4420543909072876,0.2333003580570221,-0.6151846647262573,33.50830078125,-118.22509765625,16.9677734375
2.3898491859436035,-1269740862,0,0.4015270471572876,0.1578609049320221,-0.5473135709762573,49.25537109375,-85.3271484375,14.58740234375
2.413985252380371,-1269740862,1,-0.7867289781570435,0.2397364228963852,0.6411101818084717,-74.52392578125,15.31982421875,1.5869140625
2.434054374694824,-1269740843,1,-0.7925883531570435,0.2014063447713852,0.6491668224334717,-80.6884765625,1.708984375,3.96728515625
2.434950351715088,-1269740824,1,-0.7447367906570435,0.1428125947713852,0.6340301036834717,-86.48681640625,-12.451171875,7.75146484375
2.4502100944519043,-1269740843,0,0.3146129846572876,0.0868159830570221,-0.4936026632785797,57.55615234375,-64.27001953125,6.77490234375
2.4503333568573,-1269740824,0,0.2757946252822876,0.0753413736820221,-0.4950675070285797,65.36865234375,-47.18017578125,-0.18310546875
2.4663124084472656,-1269740805,1,-0.7195903062820435,0.11961923539638519,0.6166961193084717,-91.9189453125,-7.87353515625,8.11767578125
2.4801201820373535,-1269740788,0,0.4476696252822876,0.1668941080570221,-0.7655752897262573,91.36962890625,-52.734375,12.87841796875
2.480231285095215,-1269740769,0,0.5431286096572876,0.1764155924320221,-0.9135245084762573,123.47412109375,-37.53662109375,27.89306640625
2.494647264480591,-1269740786,1,-0.7396098375320435,0.11644540727138519,0.5991179943084717,-99.853515625,5.67626953125,7.99560546875
2.4947562217712402,-1269740767,1,-0.7874614000320435,0.1274317353963852,0.6345183849334717,-110.83984375,16.29638671875,13.00048828125
2.5166730880737305,-1269740750,0,0.5753551721572876,0.1336909830570221,-0.9997061491012573,139.892578125,-12.0849609375,40.283203125
2.5246992111206055,-1269740748,1,-0.8453227281570435,0.09105478227138519,0.7019011974334717,-128.47900390625,29.9072265625,27.28271484375
2.5397891998291016,-1269740731,0,0.5660778284072876,-0.027197688817977905,-1.0333975553512573,156.494140625,26.9775390625,45.654296875
2.539891242980957,-1269740712,0,0.5963512659072876,-0.1204594075679779,-1.0336416959762573,173.7060546875,44.12841796875,29.72412109375
2.5630831718444824,-1269740712,1,-0.9105082750320435,-0.08252920210361481,0.7360808849334717,-146.17919921875,52.79541015625,52.490234375
2.569514036178589,-1269740693,0,0.6815563440322876,-0.1871097981929779,-1.0912588834762573,194.4580078125,38.26904296875,0.67138671875
2.5848031044006348,-1269740693,1,-0.9854594469070435,-0.08472646772861481,0.7360808849334717,-141.17431640625,71.77734375,66.10107421875
2.5848772525787354,-1269740674,1,-1.0733500719070435,-0.01758779212832451,0.7893035411834717,-160.888671875,93.93310546875,80.9326171875
2.599809169769287,-1269740674,0,0.6986461877822876,-0.2208012044429779,-1.1732901334762573,200.98876953125,16.17431640625,-30.94482421875
2.5998642444610596,-1269740655,0,0.7933727502822876,-0.3289555013179779,-1.4201163053512573,195.98388671875,0.9765625,-78.61328125
2.616349220275879,-1269740655,1,-1.1116801500320435,-0.06739248335361481,0.9184539318084717,-197.69287109375,108.82568359375,94.05517578125
2.6298770904541016,-1269740636,0,0.8585582971572876,-0.4383305013179779,-1.6022452116012573,189.8193359375,15.44189453125,-152.64892578125
2.629951000213623,-1269740617,0,0.8758922815322876,-0.5733402967453003,-1.6676748991012573,191.2841796875,49.86572265625,-246.337890625
2.6446173191070557,-1269740636,1,-1.1785746812820435,-0.11768545210361481,1.0031707286834717,-217.1630859375,110.9619140625,102.96630859375
2.6447203159332275,-1269740617,1,-1.2486430406570435,-0.09498037397861481,1.0561492443084717,-220.703125,108.58154296875,111.02294921875
2.665753126144409,-1269740598,0,0.7894665002822876,-0.6124027967453003,-1.5478018522262573,189.63623046875,72.75390625,-325.50048828125
2.6746933460235596,-1269740598,1,-1.2828227281570435,-0.05127919837832451,1.0473601818084717,-216.24755859375,100.03662109375,138.18359375
2.6896302700042725,-1269740579,0,0.7005993127822876,-0.6946781873703003,-1.5622061491012573,182.55615234375,82.33642578125,-391.78466796875
2.689751148223877,-1269740560,0,0.5511852502822876,-0.7481449842453003,-1.6457022428512573,177.6123046875,103.515625,-423.88916015625
2.7348222732543945,-1269740579,1,-1.2830668687820435,-0.006113182753324509,1.0827605724334717,-216.1865234375,101.13525390625,174.560546875
2.7349462509155273,-1269740560,1,-1.3235942125320435,0.005605567246675491,1.0959441661834717,-217.34619140625,104.1259765625,200.0732421875
2.736077070236206,-1269740541,1,-1.3172465562820435,0.07811532914638519,1.1337859630584717,-213.68408203125,111.63330078125,226.5625
2.7362303733825684,-1269740522,1,-1.3060160875320435,0.1704004853963852,1.2536590099334717,-217.8955078125,124.69482421875,259.6435546875
2.753256320953369,-1269740524,0,0.2438122034072876,-0.7103031873703003,-1.6469229459762573,172.79052734375,123.1689453125,-434.9365234375
2.753267288208008,-1269740505,0,-0.006431929767131805,-0.5130375623703003,-1.9083975553512573,160.94970703125,104.67529296875,-430.2978515625
2.769498109817505,-1269740503,1,-1.2818461656570435,0.2289942353963852,1.4426238536834717,-253.662109375,132.4462890625,289.9169921875
2.779855251312256,-1269740486,0,-0.1272815465927124,-0.3252933919429779,-1.9967764616012573,113.95263671875,70.25146484375,-419.677734375
2.779951333999634,-1269740467,0,-0.055504195392131805,-0.2513187825679779,-2.154003143310547,34.423828125,5.18798828125,-384.94873046875
2.795703172683716,-1269740484,1,-1.2388774156570435,0.1484278291463852,1.6267058849334717,-281.55517578125,131.8359375,312.98828125
2.8161652088165283,-1269740448,0,0.0631481483578682,-0.3892582356929779,-2.243846893310547,-37.17041015625,-29.78515625,-350.52490234375
2.8247554302215576,-1269740448,1,-1.1470805406570435,-0.3847752809524536,2.1025359630584717,-203.79638671875,180.7861328125,402.9541015625
2.8248822689056396,-1269740429,1,-1.5206156969070435,-0.5693455934524536,2.3583953380584717,-114.19677734375,228.08837890625,419.12841796875
2.839661121368408,-1269740429,0,0.0970836952328682,-0.5560063123703003,-2.267772674560547,-78.43017578125,-32.28759765625,-327.69775390625
2.839742422103882,-1269740410,0,0.033851273357868195,-0.6827152967453003,-2.123241424560547,-107.7880859375,-41.19873046875,-300.72021484375
2.8641481399536133,-1269740410,1,-1.8707133531570435,-0.8635350465774536,2.5949676036834717,-29.47998046875,163.9404296875,417.29736328125
2.869497299194336,-1269740391,0,-0.059410445392131805,-0.6595219373703003,-1.8742178678512573,-152.34375,-70.73974609375,-283.02001953125
2.8847482204437256,-1269740391,1,-1.7100688219070435,-0.8237401247024536,2.5305144786834717,47.7294921875,7.32421875,413.26904296875
2.884911298751831,-1269740372,1,-1.3445903062820435,-0.8120213747024536,2.2961394786834717,79.28466796875,-102.9052734375,389.34326171875
2.912795305252075,-1269740372,0,-0.0022815391421318054,-0.7134770154953003,-1.5312002897262573,-200.98876953125,-96.86279296875,-257.26318359375
2.912804126739502,-1269740353,0,0.0873180702328682,-0.8418949842453003,-1.3219717741012573,-220.52001953125,-87.46337890625,-221.8017578125
2.9172112941741943,-1269740353,1,-1.1241313219070435,-0.8884373903274536,1.8832976818084717,97.22900390625,-155.3955078125,352.1728515625
2.9296982288360596,-1269740334,0,0.0665661171078682,-0.8763188123703003,-1.0824698209762573,-193.78662109375,-53.8330078125,-162.4755859375
2.9641263484954834,-1269740315,0,-0.028404586017131805,-0.8204106092453003,-0.6984366178512573,-163.0859375,-25.57373046875,-101.1962890625
2.9647653102874756,-1269740296,0,-0.049156539142131805,-0.8013676404953003,-0.4328116476535797,-150.634765625,-28.62548828125,-70.556640625
2.9747841358184814,-1269740334,1,-0.8475199937820435,-0.9253026247024536,1.5793426036834717,117.24853515625,-177.24609375,307.92236328125
2.974874258041382,-1269740315,1,-0.6617289781570435,-0.9016209840774536,1.3312957286834717,144.53125,-174.31640625,287.29248046875
2.975982189178467,-1269740296,1,-0.5865336656570435,-0.8059178590774536,1.1386687755584717,160.70556640625,-183.28857421875,281.8603515625
2.9760591983795166,-1269740277,1,-0.5816508531570435,-0.6779881715774536,0.9660613536834717,156.31103515625,-200.86669921875,267.15087890625
2.9900143146514893,-1269740260,0,0.0907360389828682,-0.6390141248703003,-0.2235831320285797,-142.76123046875,-129.33349609375,-99.7314453125
3.0134952068328857,-1269740258,1,-0.45372113585472107,-0.5608006715774536,0.7692840099334717,142.08984375,-235.2294921875,253.47900390625
3.019719362258911,-1269740241,0,0.2110973596572876,-0.5652836561203003,-0.1769522726535797,-120.1171875,-160.0341796875,-118.22509765625
3.0347092151641846,-1269740239,1,-0.32359418272972107,-0.5185643434524536,0.5222136974334717,131.28662109375,-258.72802734375,244.20166015625
3.034841299057007,-1269740220,1,-0.19639693200588226,-0.4675389528274536,0.36938169598579407,119.7509765625,-260.7421875,224.42626953125
3.0500380992889404,-1269740222,0,0.2403942346572876,-0.4051273763179779,-0.10883703082799911,-75.8056640625,-177.06298828125,-141.78466796875
3.0501492023468018,-1269740203,0,0.1630016565322876,-0.2408207356929779,0.015186406672000885,-40.10009765625,-210.26611328125,-167.17529296875
3.0785531997680664,-1269740184,0,0.1188122108578682,-0.0655277669429779,-0.015819452702999115,-20.8740234375,-268.5546875,-214.2333984375
3.094637155532837,-1269740184,1,0.10096634924411774,-0.3076268434524536,0.07812191545963287,69.51904296875,-240.478515625,180.419921875
3.094773054122925,-1269740165,1,0.23792923986911774,-0.2668553590774536,0.022701997309923172,28.076171875,-222.900390625,152.16064453125
3.116441249847412,-1269740165,0,0.0748668983578682,0.0809566080570221,-0.09272374957799911,-13.24462890625,-300.23193359375,-254.33349609375
3.116450071334839,-1269740146,0,-0.025230757892131805,0.2660152018070221,-0.2916983664035797,-33.26416015625,-310.60791015625,-286.19384765625
3.124617338180542,-1269740146,1,0.29652300477027893,-0.1914159208536148,-0.03125308081507683,-9.33837890625,-211.42578125,114.56298828125
3.1247172355651855,-1269740127,1,0.39295855164527893,-0.05982412025332451,-0.12988589704036713,-39.85595703125,-204.58984375,85.0830078125
3.143139123916626,-1269740127,0,-0.1494983434677124,0.4208003580570221,-0.4535636007785797,-56.82373046875,-276.3671875,-273.25439453125
3.1431570053100586,-1269740108,0,-0.3706897497177124,0.3558589518070221,-0.3795889914035797,-65.4296875,-198.73046875,-228.759765625
3.164544105529785,-1269740108,1,0.49183550477027893,-0.10035146772861481,0.030270356684923172,-48.76708984375,-198.18115234375,63.17138671875
3.169567108154297,-1269740089,0,-0.6245959997177124,0.3016597330570221,-0.3229483664035797,-57.0068359375,-140.869140625,-161.7431640625
3.185786247253418,-1269740089,1,0.6129292249679565,-0.06983388960361481,0.09862972795963287,-44.921875,-189.94140625,27.7099609375
3.1857950687408447,-1269740070,1,0.5970600843429565,-0.05103505775332451,0.12328793108463287,-40.58837890625,-177.24609375,-13.73291015625
3.2001752853393555,-1269740070,0,-0.8435901403427124,0.2975093424320221,-0.2594718039035797,-20.56884765625,-96.435546875,-58.59375
3.2003941535949707,-1269740051,0,-0.9744495153427124,0.2943355143070221,-0.1559561789035797,-20.69091796875,-84.9609375,-13.7939453125
3.217475175857544,-1269740051,1,0.6368550062179565,-0.08130849897861481,0.11791683733463287,-21.42333984375,-170.654296875,-51.513671875
3.229649305343628,-1269740032,0,-0.9829944372177124,0.2340327799320221,-0.12031164020299911,-42.90771484375,-91.30859375,9.033203125
3.2446181774139404,-1269740032,1,0.6292866468429565,0.006093848496675491,0.13451839983463287,2.86865234375,-159.1796875,-73.3642578125
3.2447471618652344,-1269740013,1,0.5501850843429565,0.1442774385213852,0.14867855608463287,-4.2724609375,-145.20263671875,-95.947265625
3.2643001079559326,-1269739996,0,-0.8338245153427124,0.048730045557022095,0.048145391047000885,-117.7978515625,-70.25146484375,45.41015625
3.2746002674102783,-1269739994,1,0.40394487977027893,0.2392481416463852,0.19433285295963287,-52.30712890625,-143.06640625,-132.87353515625
3.289628267288208,-1269739977,0,-0.7264026403427124,0.013817936182022095,0.11137781292200089,-125.1220703125,-75.25634765625,75.1953125
3.2897562980651855,-1269739958,0,-0.6077502965927124,0.0909663736820221,0.10722742229700089,-128.72314453125,-80.322265625,96.435546875
3.313218116760254,-1269739975,1,0.36537066102027893,0.2260645478963852,0.24535824358463287,-97.47314453125,-174.1943359375,-161.865234375
3.3132259845733643,-1269739956,1,0.34583941102027893,0.11400400102138519,0.17431332170963287,-112.48779296875,-192.68798828125,-192.7490234375
3.3213512897491455,-1269739939,0,-0.5938342809677124,0.0768062174320221,0.1360360085964203,-122.55859375,-99.2431640625,124.57275390625
3.334991216659546,-1269739920,1,0.19789017736911774,0.1257227510213852,0.10278011858463287,-138.24462890625,-172.79052734375,-303.22265625
3.349668264389038,-1269739920,0,-0.5410999059677124,0.060692936182022095,0.1541024148464203,-89.4775390625,-108.642578125,156.25
3.349778175354004,-1269739901,0,-0.3758167028427124,-0.038184016942977905,0.06889734417200089,-19.287109375,-120.30029296875,209.716796875
3.367366313934326,-1269739901,1,0.012831587344408035,0.1330469697713852,0.19823910295963287,-136.04736328125,-125.0,-350.28076171875
3.3799281120300293,-1269739882,0,-0.042320601642131805,-0.2020023763179779,-0.025340937077999115,49.1943359375,-158.5693359375,267.4560546875
3.3945794105529785,-1269739882,1,-0.41734418272972107,0.2604883909225464,0.27221372723579407,-86.7919921875,-59.5703125,-361.9384765625
3.394700050354004,-1269739863,1,-0.7352153062820435,0.7243555784225464,0.21239925920963287,-43.15185546875,-0.8544921875,-314.88037109375
3.417633056640625,-1269739863,0,0.5585094690322876,-0.3033207356929779,-0.3688468039035797,127.8076171875,-212.58544921875,329.89501953125
3.4176411628723145,-1269739844,0,0.9820934534072876,-0.1990726888179779,-0.6217764616012573,226.5625,-210.14404296875,352.96630859375
3.4245312213897705,-1269739844,1,-1.2303324937820435,1.2443751096725464,0.25219419598579407,-85.9375,67.626953125,-248.779296875
3.4395503997802734,-1269739825,0,1.3138805627822876,0.1744624674320221,-0.9706534147262573,361.38916015625,-208.55712890625,386.65771484375
3.464653253555298,-1269739825,1,-1.7447367906570435,1.5004786252975464,0.17577816545963287,-135.25390625,86.73095703125,-210.0830078125
3.4646620750427246,-1269739806,1,-2.090195655822754,1.7153223752975464,0.11474300920963287,-166.32080078125,62.3779296875,-160.94970703125
3.4838411808013916,-1269739787,1,-1.9546977281570435,1.8300684690475464,0.15356136858463287,-161.56005859375,65.4296875,-74.64599609375
3.484908103942871,-1269739768,1,-1.8182231187820435,1.7526758909225464,0.25072935223579407,-166.80908203125,106.689453125,11.3525390625
3.4998042583465576,-1269739806,0,1.5592418909072876,0.3617183268070221,-2.009960174560547,462.70751953125,-238.95263671875,479.67529296875
3.499904155731201,-1269739787,0,2.441810369491577,0.7118159532546997,-2.974315643310547,527.4658203125,-120.361328125,481.99462890625
3.500946283340454,-1269739768,0,2.991126775741577,1.4715815782546997,-3.165233612060547,523.13232421875,115.234375,447.8759765625
3.5161871910095215,-1269739749,1,-1.5894633531570435,1.5859278440475464,0.43676450848579407,-180.5419921875,141.7236328125,69.82421875
3.5311312675476074,-1269739732,0,1.6036754846572876,1.4745112657546997,-3.160839080810547,378.72314453125,530.8837890625,352.84423828125
3.5450613498687744,-1269739730,1,-1.3353129625320435,1.3937891721725464,0.7131316661834717,-210.75439453125,177.490234375,113.4033203125
3.5451841354370117,-1269739711,1,-1.1380473375320435,1.3005274534225464,0.9514129161834717,-199.40185546875,194.76318359375,148.62060546875
3.5649800300598145,-1269739713,0,0.6324840784072876,0.8451167345046997,-2.992382049560547,346.98486328125,464.599609375,132.2021484375
3.5649893283843994,-1269739694,0,0.034583695232868195,1.0426265001296997,-2.607860565185547,328.67431640625,267.88330078125,-183.4716796875
3.5747482776641846,-1269739692,1,-0.8939067125320435,1.2065333127975464,1.3037078380584717,-158.203125,207.09228515625,175.048828125
3.5895183086395264,-1269739675,0,-0.0740588828921318,1.1961909532546997,-2.677440643310547,282.1044921875,210.26611328125,-312.744140625
3.612750291824341,-1269739656,1,-0.46885785460472107,0.9160059690475464,2.2702605724334717,-22.39990234375,231.3232421875,219.7265625
3.62080717086792,-1269739656,0,-0.4917834997177124,1.2921382188796997,-2.857372283935547,260.31494140625,283.14208984375,-325.50048828125
3.620817184448242,-1269739637,0,-0.7498401403427124,1.4757319688796997,-2.542430877685547,220.27587890625,306.45751953125,-189.27001953125
3.6348531246185303,-1269739637,1,-0.46055707335472107,0.8246973752975464,2.8164031505584717,97.0458984375,203.125,247.0703125
3.6350231170654297,-1269739618,1,-0.36119183897972107,0.6337794065475464,2.9436004161834717,161.43798828125,125.30517578125,236.6943359375
3.6501882076263428,-1269739618,0,-0.6775745153427124,1.2655268907546997,-2.162303924560547,195.86181640625,274.59716796875,-33.38623046875
3.6502952575683594,-1269739599,0,-0.3919299840927124,0.9522944688796997,-1.8981436491012573,174.37744140625,255.37109375,43.45703125
3.668443202972412,-1269739599,1,0.11854447424411774,0.1999415010213852,2.5915496349334717,190.5517578125,8.97216796875,177.55126953125
3.6797211170196533,-1269739580,0,-0.2471545934677124,0.4857417643070221,-1.2870596647262573,130.0048828125,180.23681640625,7.568359375
3.6944851875305176,-1269739580,1,0.42103472352027893,-0.1826268583536148,1.9396941661834717,237.1826171875,-31.25,106.75048828125
3.694596290588379,-1269739561,1,0.43861284852027893,-0.013681542128324509,1.4255340099334717,273.193359375,-23.86474609375,80.56640625
3.7234013080596924,-1269739542,1,0.31800737977027893,-0.009042870253324509,1.1127898693084717,252.38037109375,-23.74267578125,63.17138671875
3.739659070968628,-1269739561,0,-0.014244429767131805,0.1358882486820221,-0.7772940397262573,59.75341796875,54.443359375,-64.02587890625
3.7398312091827393,-1269739542,0,0.2740856409072876,-0.1121586263179779,-0.4152335226535797,1.77001953125,-52.79541015625,-81.35986328125
3.7651872634887695,-1269739523,1,0.26454058289527893,-0.03785146400332451,0.6481902599334717,192.0166015625,-42.6025390625,47.607421875
3.7651960849761963,-1269739504,1,0.19227494299411774,0.10448251664638519,0.26488950848579407,142.88330078125,-35.82763671875,66.46728515625
3.7696492671966553,-1269739523,0,0.3976207971572876,-0.1524418294429779,-0.2379874289035797,-25.81787109375,-104.98046875,-55.5419921875
3.7697432041168213,-1269739504,0,0.4974743127822876,-0.5118168592453003,0.058155156672000885,-28.6865234375,-167.48046875,-65.4296875
3.7845351696014404,-1269739485,1,-0.0010844282805919647,0.2514551877975464,-0.05200503394007683,69.091796875,-19.95849609375,76.11083984375
3.7997381687164307,-1269739468,0,1.1815563440322876,-0.1407230794429779,0.3564949929714203,10.3759765625,-455.56640625,-320.9228515625
3.799842119216919,-1269739449,0,0.7015758752822876,-0.2911137044429779,-0.4269522726535797,-18.00537109375,-572.3876953125,-525.390625
3.8167901039123535,-1269739466,1,-0.13658247888088226,0.4123438596725464,-0.29077455401420593,3.35693359375,-11.1083984375,66.162109375
3.8168132305145264,-1269739447,1,-0.15806685388088226,0.5004786252975464,-0.35644838213920593,-89.599609375,-9.58251953125,60.302734375
3.829632043838501,-1269739430,0,0.4296032190322876,0.6385737657546997,-0.5221670866012573,-58.4716796875,-604.00390625,-550.96435546875
3.8453803062438965,-1269739428,1,-0.23326216638088226,0.3869532346725464,0.06664730608463287,-117.00439453125,-49.49951171875,69.39697265625
3.8650972843170166,-1269739411,0,0.1778942346572876,0.4771968424320221,-0.6583975553512573,-43.212890625,-594.970703125,-464.29443359375
3.865105152130127,-1269739392,0,0.1625133752822876,0.7037593126296997,-0.8422354459762573,-45.166015625,-534.36279296875,-315.24658203125
3.8761003017425537,-1269739392,1,0.10096634924411774,1.0410059690475464,-0.49463197588920593,-55.5419921875,-124.1455078125,24.5361328125
3.8897032737731934,-1269739373,0,0.2311168909072876,0.6751948595046997,-0.7118643522262573,-55.60302734375,-394.4091796875,-190.61279296875
3.913438320159912,-1269739373,1,0.16322220861911774,0.05882822349667549,0.020504731684923172,-92.529296875,-32.8369140625,45.8984375
3.913450002670288,-1269739354,1,0.23158158361911774,-0.05982412025332451,0.14867855608463287,42.8466796875,4.150390625,13.5498046875
3.921494245529175,-1269739354,0,0.1727672815322876,0.6180659532546997,-0.5531729459762573,-83.06884765625,-290.4052734375,-97.96142578125
3.9348082542419434,-1269739335,1,0.13905228674411774,0.4216212034225464,0.11059261858463287,140.56396484375,0.54931640625,-43.51806640625
3.949738025665283,-1269739335,0,0.011634476482868195,0.5370112657546997,-0.3532218039035797,-121.7041015625,-181.09130859375,-5.2490234375
3.9498322010040283,-1269739316,0,-0.3274768590927124,0.4288569986820221,-0.08954992145299911,-161.07177734375,-115.478515625,83.984375
3.962181329727173,-1269739297,0,-0.5017932653427124,0.2787105143070221,0.07158289104700089,-181.57958984375,-130.67626953125,161.865234375
3.966754198074341,-1269739316,1,0.08631791174411774,0.5104883909225464,0.15624691545963287,77.880859375,-47.42431640625,-102.4169921875
3.966762065887451,-1269739297,1,-0.033555131405591965,0.4506739377975464,0.39819028973579407,49.86572265625,-110.2294921875,-169.677734375
3.9797263145446777,-1269739278,0,-0.4429553747177124,0.2152339518070221,0.10698328167200089,-179.5654296875,-163.87939453125,168.45703125
4.0171191692352295,-1269739259,0,-0.2432483434677124,0.2660152018070221,0.07573328167200089,-193.78662109375,-211.12060546875,125.42724609375
4.017693281173706,-1269739240,0,-0.0664905235171318,0.2174312174320221,0.1299324929714203,-230.8349609375,-238.8916015625,82.45849609375
4.024965286254883,-1269739278,1,-0.32896527647972107,0.4770411252975464,0.48803403973579407,68.115234375,-149.90234375,-206.97021484375
4.025154113769531,-1269739259,1,-0.6417094469070435,0.5461329221725464,0.43578794598579407,107.2998046875,-190.91796875,-244.93408203125
4.025205135345459,-1269739240,1,-0.8941508531570435,1.2006739377975464,0.09814144670963287,81.0546875,-240.72265625,-245.54443359375
4.063878297805786,-1269739221,1,-0.8716899156570435,1.1848047971725464,-0.07690738141536713,-1.89208984375,-266.66259765625,-226.1962890625
4.063887119293213,-1269739202,1,-0.6915141344070435,0.7702540159225464,-0.027102690190076828,-22.216796875,-268.4326171875,-226.98974609375
4.06977105140686,-1269739204,0,0.5919567346572876,0.052880436182022095,0.09184656292200089,-213.7451171875,-209.228515625,80.26123046875
4.069880247116089,-1269739185,0,0.5255504846572876,-0.1343754231929779,0.2905770242214203,-123.9013671875,-170.2880859375,126.3427734375
4.084632158279419,-1269739183,1,-0.5928813219070435,0.5297755002975464,-0.08008120954036713,8.60595703125,-224.79248046875,-253.2958984375
4.099643230438232,-1269739166,0,0.7579723596572876,-0.0672367513179779,0.09257898479700089,-59.26513671875,-163.0859375,144.83642578125
4.099703073501587,-1269739147,0,1.0738903284072876,0.3915034830570221,-0.12421789020299911,-21.30126953125,-112.97607421875,116.14990234375
4.1178882122039795,-1269739164,1,-0.6124125719070435,0.5705469846725464,-0.15918277204036713,55.2978515625,-158.935546875,-264.83154296875
4.129522323608398,-1269739128,0,1.3121715784072876,1.1139155626296997,-0.3844718039035797,32.53173828125,-118.46923828125,128.5400390625
4.144617080688477,-1269739128,1,-0.9925395250320435,0.9509180784225464,-0.09790347516536713,66.34521484375,-31.67724609375,-203.9794921875
4.14477014541626,-1269739109,1,-1.1797953844070435,0.8920801877975464,0.11523129045963287,24.71923828125,12.20703125,-154.47998046875
4.165671348571777,-1269739109,0,1.5301891565322876,1.4896479845046997,-0.3864249289035797,98.876953125,-75.62255859375,191.89453125
4.166280269622803,-1269739090,0,1.7489391565322876,1.7662593126296997,-0.5773428678512573,166.748046875,-43.9453125,309.99755859375
4.174589395523071,-1269739090,1,-1.4063578844070435,0.7683008909225464,0.21728207170963287,-3.7841796875,28.80859375,-118.0419921875
4.189566373825073,-1269739071,0,1.7965465784072876,2.5968258380889893,-1.2580069303512573,232.84912109375,45.0439453125,381.65283203125
4.212968349456787,-1269739071,1,-1.5962992906570435,0.7878321409225464,0.26586607098579407,-5.79833984375,19.4091796875,-91.73583984375
4.212977170944214,-1269739052,1,-1.5325785875320435,1.0202540159225464,0.17651058733463287,-14.892578125,-3.72314453125,-45.654296875
4.2199060916900635,-1269739052,0,1.6720348596572876,3.4728024005889893,-1.8102530241012573,206.84814453125,161.31591796875,302.978515625
4.219991207122803,-1269739033,0,1.1654430627822876,3.6756832599639893,-1.8737295866012573,138.916015625,261.23046875,167.05322265625
4.23476505279541,-1269739033,1,-1.3253031969070435,0.9738672971725464,0.09521175920963287,-68.54248046875,-13.00048828125,7.9345703125
4.249912261962891,-1269739014,0,0.7289196252822876,4.28261661529541,-1.8473623991012573,67.19970703125,330.87158203125,78.18603515625
4.2671873569488525,-1269739014,1,-1.0120707750320435,0.6589258909225464,0.13305355608463287,-101.74560546875,17.15087890625,45.8984375
4.267195224761963,-1269738995,1,-0.8929301500320435,0.4316309690475464,0.30297544598579407,-78.91845703125,46.20361328125,46.142578125
4.279900312423706,-1269738995,0,0.4886852502822876,3.8187496662139893,-1.7472647428512573,-27.03857421875,375.79345703125,81.84814453125
4.280011177062988,-1269738976,0,0.2047497034072876,3.0213863849639893,-1.5502432584762573,-83.67919921875,389.34326171875,157.5927734375
4.294731140136719,-1269738976,1,-0.7181254625320435,0.5563868284225464,0.48193052411079407,-39.48974609375,83.8623046875,24.84130859375
4.2948150634765625,-1269738957,1,-0.7095805406570435,0.7089747190475464,0.6479461193084717,-23.98681640625,120.78857421875,22.27783203125
4.316076040267944,-1269738940,0,0.2967907190322876,2.2796871662139893,-1.6249502897262573,-103.45458984375,388.7939453125,196.77734375
4.324711322784424,-1269738938,1,-0.7320414781570435,0.6533106565475464,0.6091277599334717,-42.724609375,135.43701171875,14.6484375
4.3396382331848145,-1269738921,0,0.3702770471572876,1.9874507188796997,-1.5751456022262573,-129.7607421875,410.21728515625,124.267578125
4.36701226234436,-1269738919,1,-0.6968852281570435,0.5278223752975464,0.5351531505584717,-53.16162109375,119.81201171875,2.8076171875
4.367020130157471,-1269738900,1,-0.39732465147972107,0.09618173539638519,0.32226255536079407,-28.38134765625,114.07470703125,-52.67333984375
4.371038436889648,-1269738902,0,0.3832165002822876,1.6410151720046997,-1.3825186491012573,-134.21630859375,422.91259765625,95.8251953125
4.371503114700317,-1269738883,0,0.5736461877822876,1.2389155626296997,-1.2377432584762573,-119.32373046875,429.3212890625,100.4638671875
4.398545265197754,-1269738864,0,0.6595836877822876,0.9520503282546997,-0.9269522428512573,-109.55810546875,430.0537109375,45.34912109375
4.41743016242981,-1269738864,1,-0.8816996812820435,0.6926172971725464,-0.30249330401420593,14.09912109375,243.83544921875,-45.0439453125
4.417438268661499,-1269738845,1,-1.4478617906570435,1.4033106565475464,-0.5300323963165283,-53.1005859375,270.93505859375,26.79443359375
4.429775238037109,-1269738845,0,0.7775036096572876,0.7232905626296997,-0.8634756803512573,-108.2763671875,428.8330078125,-7.9345703125
4.4298622608184814,-1269738826,0,0.9462047815322876,0.4791499674320221,-0.7326163053512573,-113.22021484375,423.40087890625,-54.931640625
4.444713115692139,-1269738826,1,-1.9161235094070435,1.3408106565475464,-0.5424835681915283,-163.02490234375,204.28466796875,90.02685546875
4.4448442459106445,-1269738807,1,-1.6849223375320435,1.1308497190475464,-0.5793488025665283,-202.392578125,180.11474609375,90.9423828125
4.465238094329834,-1269738807,0,0.8641735315322876,0.5455561876296997,-0.6645010709762573,-107.91015625,444.9462890625,-76.59912109375
4.46524715423584,-1269738788,0,0.6063610315322876,0.5995112657546997,-0.3874014914035797,-125.1220703125,428.03955078125,-53.3447265625
4.47487211227417,-1269738788,1,-1.3948832750320435,0.8259180784225464,-0.6135284900665283,-145.01953125,213.9892578125,145.01953125
4.489744186401367,-1269738769,0,0.4801403284072876,0.4681636393070221,-0.2997550070285797,-138.3056640625,391.29638671875,-38.818359375
4.533838272094727,-1269738769,1,-1.2147074937820435,0.8085840940475464,-0.45215150713920593,-59.814453125,262.75634765625,204.52880859375
4.535009145736694,-1269738750,1,-1.0789653062820435,0.8276270627975464,-0.43945619463920593,-45.34912109375,308.04443359375,196.6552734375
4.535071134567261,-1269738731,1,-0.9781352281570435,0.7866114377975464,-0.34179994463920593,-81.298828125,322.1435546875,176.69677734375
4.549840211868286,-1269738750,0,0.3675915002822876,0.2862788736820221,-0.2782706320285797,-135.009765625,353.45458984375,-47.7294921875
4.549962043762207,-1269738731,0,0.2047497034072876,0.2230464518070221,-0.2799796164035797,-117.12646484375,328.9794921875,-49.01123046875
4.5617921352386475,-1269738712,0,0.1341930627822876,0.2064448893070221,-0.2853507101535797,-101.62353515625,303.77197265625,-28.6865234375
4.5659613609313965,-1269738712,1,-0.8504496812820435,0.8102930784225464,-0.28735658526420593,-112.73193359375,346.8017578125,182.7392578125
4.56596827507019,-1269738693,1,-0.9268656969070435,0.6242579221725464,-0.22705386579036713,-114.3798828125,408.203125,210.02197265625
4.580020189285278,-1269738676,0,-0.0703967735171318,0.0912105143070221,-0.08491124957799911,-61.21826171875,300.4150390625,86.181640625
4.594835996627808,-1269738674,1,-1.0079203844070435,0.4335840940475464,0.03661801293492317,-47.66845703125,440.36865234375,224.2431640625
4.617565393447876,-1269738657,0,-0.1289905309677124,0.0667964518070221,-0.008006952702999115,-22.5830078125,270.32470703125,144.4091796875
4.617574214935303,-1269738638,0,-0.2146838903427124,0.1629878580570221,-0.034374140202999115,21.6064453125,243.34716796875,162.29248046875
4.62466835975647,-1269738655,1,-0.7654887437820435,0.8769434690475464,-0.012454252690076828,38.6962890625,408.63037109375,240.1123046875
4.624743223190308,-1269738636,1,-1.0911723375320435,0.2316797822713852,0.37035825848579407,10.92529296875,384.70458984375,159.36279296875
4.639655351638794,-1269738619,0,-0.0965198203921318,-0.1753910481929779,0.1826668679714203,85.693359375,186.767578125,177.8564453125
4.664866209030151,-1269738600,1,-0.21983443200588226,0.3471583127975464,0.6718719005584717,90.63720703125,269.6533203125,51.025390625
4.669709205627441,-1269738600,0,0.026771195232868195,-0.0735844075679779,0.002491094172000885,123.046875,185.9130859375,116.27197265625
4.669861316680908,-1269738581,0,0.1166149452328682,0.036767154932022095,0.07915125042200089,127.5634765625,202.33154296875,13.18359375
4.684743165969849,-1269738581,1,-0.19737349450588226,0.4384669065475464,0.5913054943084717,107.0556640625,248.779296875,43.3349609375
4.699634313583374,-1269738562,0,0.1805797815322876,0.1393062174320221,0.003467656672000885,129.5166015625,201.7822265625,-63.29345703125
4.718597173690796,-1269738562,1,-0.19615279138088226,0.6921290159225464,0.47582700848579407,115.53955078125,232.36083984375,54.931640625
4.718606233596802,-1269738543,1,-0.29087933897972107,0.6923731565475464,0.36523130536079407,91.73583984375,212.646484375,81.97021484375
4.729815244674683,-1269738543,0,0.2023082971572876,0.2384273111820221,0.06938562542200089,137.87841796875,188.65966796875,-81.298828125
4.729920148849487,-1269738524,0,0.1488415002822876,0.3517085611820221,0.021534062922000885,135.986328125,188.4765625,-70.3125
4.74454140663147,-1269738524,1,-0.29527387022972107,0.7883204221725464,0.25365903973579407,47.18017578125,191.22314453125,98.876953125
4.765619277954102,-1269738505,0,0.0875622108578682,0.3729487955570221,-0.046092890202999115,121.2158203125,181.82373046875,-29.11376953125
4.765627145767212,-1269738486,0,0.1029430702328682,0.3773433268070221,-0.1588858664035797,96.37451171875,184.75341796875,-1.0986328125
4.774691104888916,-1269738505,1,-0.30137738585472107,0.5912989377975464,0.14941097795963287,-31.1279296875,168.64013671875,86.181640625
4.7747962474823,-1269738486,1,-0.20982466638088226,0.4416407346725464,0.13671566545963287,-75.68359375,153.62548828125,62.80517578125
4.789699077606201,-1269738467,0,0.1232067421078682,0.2843257486820221,-0.2133292257785797,88.623046875,208.3740234375,25.87890625
4.812604188919067,-1269738467,1,-0.048203568905591965,0.4399317502975464,0.13940121233463287,-65.3076171875,167.96875,76.11083984375
4.812612295150757,-1269738448,1,-0.14219771325588226,0.2311915010213852,0.18456722795963287,-39.85595703125,190.12451171875,102.35595703125
4.819848299026489,-1269738448,0,0.0716930702328682,0.2254878580570221,-0.1310538351535797,107.97119140625,227.23388671875,49.9267578125
4.834854364395142,-1269738429,1,-0.26719769835472107,0.01903330162167549,0.28979185223579407,9.521484375,181.884765625,83.49609375
4.850227355957031,-1269738412,0,-0.1692737340927124,0.2743159830570221,-0.09247960895299911,190.0634765625,287.41455078125,142.39501953125
4.865876197814941,-1269738410,1,0.027724165469408035,0.04735361412167549,0.22778011858463287,40.95458984375,141.41845703125,25.146484375
4.880058288574219,-1269738393,0,-0.1888049840927124,0.1891109049320221,-0.1452139914035797,214.41650390625,298.15673828125,171.0205078125
4.880144357681274,-1269738374,0,-0.7317737340927124,0.5240718126296997,0.1992684304714203,216.49169921875,191.95556640625,212.95166015625
4.894793272018433,-1269738391,1,0.20374955236911774,0.09203134477138519,0.05004574730992317,20.01953125,164.85595703125,-40.283203125
4.894849061965942,-1269738372,1,-0.07408247888088226,0.0036524422466754913,0.5451629161834717,-0.91552734375,130.18798828125,-123.6572265625
4.916095018386841,-1269738355,0,-0.7935413122177124,0.041161686182022095,-0.3361319601535797,205.50537109375,99.609375,179.8095703125
4.917416334152222,-1269738336,0,-0.4392932653427124,-0.4117191731929779,-0.2587393820285797,233.154296875,41.32080078125,91.97998046875
4.924646377563477,-1269738336,1,0.09095658361911774,0.2482813447713852,0.27514341473579407,-247.74169921875,115.05126953125,-214.53857421875
4.939584016799927,-1269738317,0,-0.3145374059677124,-0.4957035481929779,-0.3769034445285797,334.47265625,10.31494140625,21.728515625
4.965195178985596,-1269738317,1,0.18958939611911774,0.2910059690475464,0.30346372723579407,-320.00732421875,112.73193359375,-276.0009765625
4.965203285217285,-1269738298,1,0.11366166174411774,0.5129297971725464,0.39062193036079407,-377.13623046875,147.705078125,-330.4443359375
4.969642162322998,-1269738298,0,-0.4502795934677124,-0.4900883138179779,-0.8410147428512573,424.072265625,14.70947265625,-46.2646484375
4.969726324081421,-1269738279,0,-0.4456409215927124,-0.2940433919429779,-1.2001456022262573,450.8056640625,18.310546875,-91.49169921875
4.984650135040283,-1269738279,1,-0.06578169763088226,0.7685450315475464,0.41576841473579407,-436.09619140625,159.48486328125,-384.521484375
5.001520156860352,-1269738260,0,-0.1846545934677124,-0.2103031575679779,-1.7602041959762573,440.00244140625,103.515625,-30.517578125
5.019405126571655,-1269738260,1,-0.47862347960472107,0.6486719846725464,0.7233855724334717,-501.03759765625,145.56884765625,-412.2314453125
5.019414186477661,-1269738241,1,-0.8929301500320435,0.7292383909225464,1.3405730724334717,-520.20263671875,101.50146484375,-444.15283203125
5.029712200164795,-1269738241,0,-0.3289417028427124,-0.2562015950679779,-2.266307830810547,440.97900390625,211.0595703125,40.34423828125
5.029795169830322,-1269738222,0,-0.6443713903427124,0.1371089518070221,-2.918651580810547,422.05810546875,146.3623046875,44.921875
5.064645290374756,-1269738203,0,-0.5923694372177124,0.4251948893070221,-3.382274627685547,390.93017578125,6.34765625,-12.3291015625
5.075055122375488,-1269738222,1,-1.0189067125320435,0.9206446409225464,2.1774871349334717,-414.9169921875,29.96826171875,-421.93603515625
5.075220108032227,-1269738203,1,-1.2327739000320435,1.3351954221725464,2.4050261974334717,-218.3837890625,-53.8330078125,-290.6494140625
5.075301170349121,-1269738184,1,-1.1461039781570435,1.8085840940475464,1.9604461193084717,-107.48291015625,-65.24658203125,-182.12890625
5.089680194854736,-1269738184,0,-0.014488570392131805,0.8512202501296997,-3.806102752685547,340.14892578125,-96.3134765625,-41.6259765625
5.112913370132446,-1269738165,1,-1.2169047594070435,1.2954005002975464,1.6030242443084717,-153.3203125,-34.72900390625,-88.19580078125
5.119832277297974,-1269738148,0,0.4303356409072876,1.3927241563796997,-3.303173065185547,143.00537109375,42.54150390625,47.36328125
5.1199140548706055,-1269738129,0,0.0731579139828682,1.0978022813796997,-2.607128143310547,69.580078125,75.927734375,83.6181640625
5.134867429733276,-1269738146,1,-0.9844828844070435,0.6274317502975464,2.2665984630584717,-4.33349609375,-74.951171875,-95.52001953125
5.135008096694946,-1269738127,1,-0.9644633531570435,0.9399317502975464,1.6938445568084717,154.96826171875,-50.59814453125,-83.55712890625
5.150021314620972,-1269738110,0,-0.0933459922671318,0.7591792345046997,-1.9665030241012573,50.23193359375,-14.22119140625,67.138671875
5.167392015457153,-1269738108,1,-0.8487406969070435,1.1977442502975464,1.2673308849334717,190.5517578125,-24.71923828125,-54.5654296875
5.1798341274261475,-1269738091,0,0.010657913982868195,0.7074214220046997,-1.6874502897262573,26.30615234375,-108.5205078125,28.62548828125
5.179932355880737,-1269738072,0,0.2237926721572876,0.6212397813796997,-1.5468252897262573,-3.2958984375,-176.7578125,-1.46484375
5.194602012634277,-1269738072,1,-1.0306254625320435,1.1039942502975464,0.9267547130584717,156.92138671875,0.91552734375,34.423828125
5.216024160385132,-1269738053,0,0.2714000940322876,0.5677729845046997,-1.3810538053512573,-30.6396484375,-190.673828125,-12.51220703125
5.224791049957275,-1269738053,1,-1.1224223375320435,0.8889063596725464,1.0346648693084717,165.10009765625,-30.029296875,97.47314453125
5.2248992919921875,-1269738034,1,-0.8843852281570435,0.6108301877975464,0.7641570568084717,206.72607421875,-31.18896484375,134.6435546875
5.23964524269104,-1269738034,0,0.2135387659072876,0.5008784532546997,-1.2506827116012573,-79.28466796875,-171.2646484375,-15.13671875
5.239735126495361,-1269738015,0,0.2093883752822876,0.2367183268070221,-1.0172842741012573,-83.3740234375,-160.21728515625,5.67626953125
5.263517379760742,-1269738015,1,-0.6409770250320435,0.5646876096725464,0.37597349286079407,189.0869140625,2.8076171875,113.95263671875
5.269488334655762,-1269737996,0,0.023353226482868195,0.1849605143070221,-0.7206534147262573,-85.99853515625,-161.9873046875,18.24951171875
5.269595146179199,-1269737977,0,-0.0725940391421318,0.1036616861820221,-0.6503409147262573,-106.93359375,-180.60302734375,14.58740234375
5.29859733581543,-1269737958,0,-0.1656116247177124,0.1256343424320221,-0.6964834928512573,-124.81689453125,-195.556640625,19.71435546875
5.318544149398804,-1269737996,1,-0.43174847960472107,0.6625880002975464,0.23901058733463287,144.34814453125,60.48583984375,137.14599609375
5.318552255630493,-1269737977,1,-0.43028363585472107,0.5624903440475464,0.38744810223579407,119.44580078125,117.37060546875,185.72998046875
5.318557262420654,-1269737958,1,-0.35289105772972107,0.06859384477138519,0.5346648693084717,119.140625,167.17529296875,162.2314453125
5.318562269210815,-1269737939,1,-0.41075238585472107,0.07176767289638519,0.8537566661834717,153.1982421875,167.3583984375,121.7041015625
5.329721212387085,-1269737939,0,-0.3025745153427124,0.1410152018070221,-0.5373038053512573,-129.638671875,-176.94091796875,67.87109375
5.329827070236206,-1269737920,0,-0.3030627965927124,0.2874995768070221,-0.6618155241012573,-165.771484375,-101.50146484375,135.25390625
5.344437122344971,-1269737920,1,-0.40391644835472107,0.3054102659225464,0.8872039318084717,258.7890625,200.37841796875,130.126953125
5.3739824295043945,-1269737901,1,-0.48790082335472107,0.4462794065475464,0.8669402599334717,299.37744140625,204.16259765625,119.0185546875
5.374698162078857,-1269737882,1,-0.48960980772972107,0.6288965940475464,0.6857879161834717,255.55419921875,164.794921875,85.87646484375
5.391155242919922,-1269737884,0,-0.050621382892131805,0.3036128580570221,-0.6540030241012573,-251.52587890625,1.708984375,191.5283203125
5.391167163848877,-1269737865,0,-0.040611617267131805,0.2022944986820221,-0.4855460226535797,-260.8642578125,61.82861328125,188.96484375
5.412468194961548,-1269737863,1,-0.33458051085472107,0.6599024534225464,0.43456724286079407,169.86083984375,103.759765625,88.2568359375
5.419780254364014,-1269737846,0,-0.055260054767131805,0.2076655924320221,-0.2802237570285797,-246.2158203125,92.1630859375,175.29296875
5.419870376586914,-1269737827,0,0.1144176796078682,0.1395503580570221,-0.2636221945285797,-218.44482421875,107.7880859375,148.74267578125
5.43486213684082,-1269737844,1,-0.15855513513088226,0.5231837034225464,0.19872738420963287,93.68896484375,82.6416015625,111.38916015625
5.4498560428619385,-1269737808,0,0.022376663982868195,0.3851558268070221,-0.09345617145299911,-191.7724609375,121.2158203125,101.6845703125
5.46652626991272,-1269737808,1,-0.031357865780591965,0.1777247041463852,-0.11523745954036713,26.85546875,132.26318359375,120.361328125
5.467017412185669,-1269737789,1,-0.041367631405591965,0.09129892289638519,-0.20386050641536713,21.91162109375,161.68212890625,80.38330078125
5.479917287826538,-1269737789,0,0.0868297889828682,0.3687984049320221,-0.1388663351535797,-178.22265625,153.3203125,128.7841796875
5.4801013469696045,-1269737770,0,-0.1707385778427124,0.8792964220046997,-0.1308096945285797,-179.8095703125,179.8095703125,162.65869140625
5.494676113128662,-1269737770,1,-0.050889115780591965,0.03709970787167549,-0.28979799151420593,38.330078125,199.76806640625,47.119140625
5.514278173446655,-1269737751,0,-0.2183459997177124,0.5458003282546997,-0.2218741476535797,-226.25732421875,215.33203125,291.32080078125
5.524695158004761,-1269737751,1,-0.057969193905591965,0.05907236412167549,-0.33935853838920593,40.8935546875,230.65185546875,39.55078125
5.524823188781738,-1269737732,1,-0.13316451013088226,-0.0026952140033245087,-0.28979799151420593,34.48486328125,248.10791015625,63.53759765625
5.5396082401275635,-1269737732,0,-0.0716174766421318,0.3145991861820221,0.043995000422000885,-210.5712890625,221.61865234375,205.74951171875
5.53968620300293,-1269737713,0,0.1544567346572876,0.0711909830570221,0.1980477273464203,-189.02587890625,123.10791015625,104.43115234375
5.563544273376465,-1269737713,1,-0.16661177575588226,-0.08326162397861481,-0.24487613141536713,33.50830078125,259.033203125,99.4873046875
5.5842201709747314,-1269737694,1,-0.25303754210472107,-0.1757909208536148,-0.22119449079036713,24.71923828125,262.939453125,105.04150390625
5.585435152053833,-1269737675,1,-0.21348677575588226,-0.2258397489786148,-0.17358706891536713,-16.11328125,241.02783203125,64.75830078125
5.5996832847595215,-1269737694,0,0.2850719690322876,0.023095279932022095,0.2876473367214203,-136.23046875,84.77783203125,19.59228515625
5.599820137023926,-1269737675,0,0.3490368127822876,0.022118717432022095,0.4087410867214203,-31.25,96.13037109375,-34.72900390625
5.617552280426025,-1269737656,1,-0.06431685388088226,-0.2922459840774536,-0.12768863141536713,-78.125,206.4208984375,-7.01904296875
5.617563247680664,-1269737637,1,0.11048783361911774,-0.3193455934524536,-0.04126284644007683,-111.51123046875,189.8193359375,-63.5986328125
5.630285263061523,-1269737656,0,0.2513805627822876,0.020409733057022095,0.2935067117214203,100.830078125,141.29638671875,-48.27880859375
5.644507169723511,-1269737618,1,0.19618119299411774,-0.3361912965774536,0.04467465355992317,-129.8828125,210.75439453125,-86.181640625
5.665339231491089,-1269737620,0,-0.029381148517131805,0.0011226236820220947,-0.4660147726535797,307.4951171875,183.837890625,-80.4443359375
5.666476249694824,-1269737601,0,-0.2012561559677124,-0.0706547200679779,-0.8815420866012573,372.9248046875,154.11376953125,-125.30517578125
5.674877405166626,-1269737599,1,0.13929642736911774,-0.4057713747024536,0.12572933733463287,-150.5126953125,261.3525390625,-118.10302734375
5.674942255020142,-1269737580,1,-0.053574662655591965,-0.5651952028274536,0.25561216473579407,-157.958984375,324.89013671875,-171.5087890625
5.6897292137146,-1269737582,0,-0.3819202184677124,-0.054297298192977905,-1.4306143522262573,429.3212890625,79.9560546875,-211.36474609375
5.689791202545166,-1269737563,0,-0.7417834997177124,0.2603999674320221,-2.159130096435547,419.86083984375,-38.4521484375,-283.8134765625
5.718828201293945,-1269737544,0,-0.8499377965927124,0.5846186876296997,-2.461376190185547,354.43115234375,-114.6240234375,-328.43017578125
5.737167119979858,-1269737544,1,-0.8724223375320435,-0.6606541872024536,0.7043426036834717,-63.53759765625,450.50048828125,-395.69091796875
5.737177133560181,-1269737525,1,-1.8546000719070435,-0.3129979372024536,1.1884734630584717,37.4755859375,490.17333984375,-594.6044921875
5.749819278717041,-1269737525,0,-0.7647327184677124,0.7040034532546997,-2.751171112060547,274.84130859375,-121.15478515625,-272.52197265625
5.749896287918091,-1269737506,0,-0.4102405309677124,0.6134272813796997,-2.736278533935547,213.37890625,-21.484375,-144.287109375
5.766660213470459,-1269737506,1,-2.940293312072754,0.2621973752975464,1.5498015880584717,86.7919921875,478.6376953125,-741.27197265625
5.766668081283569,-1269737487,1,-4.401719093322754,1.3388575315475464,2.3937957286834717,70.73974609375,334.3505859375,-814.27001953125
5.780766248703003,-1269737487,0,-0.2359241247177124,0.5060054063796997,-2.543407440185547,166.015625,85.0830078125,-42.78564453125
5.780776262283325,-1269737468,0,-0.3748401403427124,0.4637691080570221,-2.295116424560547,118.2861328125,99.42626953125,-9.58251953125
5.824108123779297,-1269737468,1,-4.990342140197754,3.142324209213257,2.5747039318084717,55.48095703125,-6.7138671875,-627.50244140625
5.825353384017944,-1269737449,1,-4.573838233947754,2.849599599838257,2.3557097911834717,-43.64013671875,-298.40087890625,-290.771484375
5.8400750160217285,-1269737449,0,-0.3391956090927124,0.3709956705570221,-2.045604705810547,78.06396484375,35.94970703125,-10.68115234375
5.840191125869751,-1269737430,0,-0.1612170934677124,0.3131343424320221,-1.8676260709762573,39.794921875,-61.21826171875,-40.71044921875
5.840236186981201,-1269737411,0,0.1156383827328682,0.2970210611820221,-1.6178702116012573,16.17431640625,-99.7314453125,-29.9072265625
5.863624334335327,-1269737430,1,-3.971055030822754,1.7861231565475464,2.6977508068084717,-120.9716796875,-377.3193359375,-105.1025390625
5.863633155822754,-1269737411,1,-3.167099952697754,0.6115626096725464,3.1025359630584717,-163.2080078125,-497.55859375,-33.8134765625
5.87165904045105,-1269737392,0,0.2469860315322876,0.2955562174320221,-1.1771963834762573,-6.16455078125,-62.255859375,28.01513671875
5.884731292724609,-1269737392,1,-2.634629249572754,-0.1897069364786148,2.7917449474334717,-111.6943359375,-595.458984375,-32.958984375
5.884813070297241,-1269737373,1,-2.917588233947754,-0.5471287965774536,2.1450164318084717,-25.32958984375,-604.1259765625,-76.904296875
5.899816274642944,-1269737356,0,0.3151012659072876,0.4918452799320221,0.08305750042200089,12.14599609375,-28.4423828125,72.44873046875
5.917177200317383,-1269737354,1,-2.879502296447754,-0.6562596559524536,1.9440886974334717,32.3486328125,-577.94189453125,-111.81640625
5.929710149765015,-1269737337,0,-0.1502307653427124,0.2809077799320221,0.3948250710964203,63.1103515625,-125.9765625,84.8388671875
5.929850339889526,-1269737318,0,-0.3850940465927124,0.3746577799320221,0.022266484797000885,55.908203125,-181.2744140625,145.3857421875
5.944638252258301,-1269737335,1,-3.146347999572754,-0.4773045778274536,2.1977508068084717,152.89306640625,-598.20556640625,-156.06689453125
5.944719314575195,-1269737316,1,-3.115830421447754,0.1882227510213852,2.1408660411834717,222.96142578125,-654.35791015625,-108.642578125
5.9669482707977295,-1269737299,0,-0.3433459997177124,-0.1387699544429779,0.048145391047000885,80.26123046875,-168.39599609375,154.6630859375
5.974957227706909,-1269737280,1,-2.674668312072754,0.3898829221725464,1.8349578380584717,37.59765625,-665.771484375,46.0205078125
5.9898083209991455,-1269737280,0,-0.3619006872177124,-0.1377933919429779,-0.046825312077999115,124.51171875,-156.73828125,138.916015625
5.989925146102905,-1269737261,0,-0.6673206090927124,0.1395503580570221,-0.3283194601535797,173.64501953125,-208.0078125,133.9111328125
6.015300273895264,-1269737261,1,-2.455918312072754,-0.02515615150332451,1.7409636974334717,-121.15478515625,-706.97021484375,52.978515625
6.019740343093872,-1269737242,0,-0.9287952184677124,0.3568355143070221,-1.2006338834762573,138.24462890625,-213.623046875,203.18603515625
6.034794092178345,-1269737242,1,-2.079209327697754,-0.4331151247024536,1.6818816661834717,-152.9541015625,-725.76904296875,15.0146484375
6.034968137741089,-1269737223,1,-1.4214946031570435,-1.0441991090774536,1.6811492443084717,-100.2197265625,-664.9169921875,-52.30712890625
6.049889087677002,-1269737223,0,-0.8208850622177124,0.1585933268070221,-1.4931143522262573,87.82958984375,-146.05712890625,238.34228515625
6.050006151199341,-1269737204,0,-0.9822620153427124,0.0853511393070221,-1.1706045866012573,63.53759765625,-109.55810546875,252.197265625
6.066333293914795,-1269737204,1,-0.9503031969070435,-1.0776463747024536,1.6557586193084717,42.236328125,-570.49560546875,-117.00439453125
6.079845190048218,-1269737185,0,-1.0989612340927124,0.1356441080570221,-0.9591788053512573,63.8427734375,-170.166015625,224.30419921875
6.080077171325684,-1269737166,0,-1.4751819372177124,0.2135249674320221,-0.7484854459762573,85.44921875,-278.4423828125,241.39404296875
6.113912105560303,-1269737147,0,-1.3138049840927124,0.4483882486820221,-0.9010733366012573,69.03076171875,-355.712890625,269.22607421875
6.126422166824341,-1269737185,1,-0.8152934312820435,-0.5793553590774536,1.6188933849334717,110.16845703125,-468.8720703125,-170.41015625
6.126435279846191,-1269737166,1,-0.9893656969070435,-0.1994725614786148,1.5478484630584717,100.9521484375,-431.33544921875,-190.73486328125
6.12645411491394,-1269737147,1,-0.8658305406570435,-0.07789053022861481,1.2595183849334717,46.56982421875,-433.10546875,-196.71630859375
6.126537322998047,-1269737128,1,-0.8909770250320435,-0.09180654585361481,0.8737761974334717,-11.41357421875,-419.677734375,-230.04150390625
6.139642238616943,-1269737128,0,-1.0650256872177124,0.2108394205570221,-1.0160635709762573,32.16552734375,-353.21044921875,305.23681640625
6.162422180175781,-1269737109,1,-0.8008891344070435,0.06444345414638519,0.34765318036079407,7.01904296875,-368.1640625,-260.986328125
6.170063257217407,-1269737092,0,-0.8970569372177124,-0.2994144856929779,-0.7047842741012573,55.48095703125,-301.33056640625,274.23095703125
6.184730291366577,-1269737090,1,-0.5167094469070435,0.2272852510213852,-0.018557768315076828,44.7998046875,-274.35302734375,-221.923828125
6.184854030609131,-1269737071,1,-0.31431683897972107,0.1386622041463852,-0.09057925641536713,57.373046875,-211.181640625,-156.6162109375
6.1995673179626465,-1269737073,0,-1.1817249059677124,0.006493717432022095,-0.6952627897262573,89.4775390625,-350.5859375,205.56640625
6.199697256088257,-1269737054,0,-1.4222034215927124,0.3255855143070221,-0.8822745084762573,89.9658203125,-402.4658203125,190.97900390625
6.219375133514404,-1269737052,1,0.07459916174411774,0.01585947349667549,0.05102230980992317,21.97265625,-145.81298828125,-98.93798828125
6.2298901081085205,-1269737035,0,-1.2434924840927124,0.4884273111820221,-1.1735342741012573,38.63525390625,-393.98193359375,219.3603515625
6.230002403259277,-1269737016,0,-0.9698108434677124,0.3561030924320221,-1.2169913053512573,6.591796875,-341.6748046875,277.4658203125
6.244605302810669,-1269737016,1,-0.21373091638088226,-0.5644627809524536,0.38818052411079407,-43.0908203125,-46.38671875,-54.50439453125
6.268694162368774,-1269736997,0,-0.6787952184677124,0.015771061182022095,-0.9957998991012573,-13.00048828125,-220.39794921875,317.32177734375
6.274744272232056,-1269736997,1,-0.15464888513088226,-0.6606541872024536,0.5165984630584717,-12.75634765625,-52.490234375,-60.60791015625
6.289760112762451,-1269736978,0,-0.6206897497177124,-0.0843265950679779,-0.9062002897262573,9.58251953125,-152.77099609375,304.8095703125
6.289937257766724,-1269736959,0,-0.6226428747177124,0.0926753580570221,-0.8009756803512573,1.5869140625,-132.6904296875,270.32470703125
6.314700126647949,-1269736978,1,-0.11753951013088226,-0.6528416872024536,0.5261199474334717,29.6630859375,-60.11962890625,-73.54736328125
6.3147101402282715,-1269736959,1,-0.042588334530591965,-0.5239354372024536,0.5197722911834717,43.51806640625,-63.4765625,-90.39306640625
6.319795370101929,-1269736940,0,-0.4143909215927124,0.2411128580570221,-0.6193350553512573,-67.68798828125,-149.84130859375,237.6708984375
6.334700107574463,-1269736940,1,-0.059434037655591965,-0.4553319215774536,0.48583677411079407,34.36279296875,-76.904296875,-114.92919921875
6.334857225418091,-1269736921,1,-0.13829146325588226,-0.3764744997024536,0.41723325848579407,15.13671875,-83.49609375,-146.3623046875
6.350255250930786,-1269736921,0,-0.3557971715927124,0.047509342432022095,-0.4716300070285797,-119.0185546875,-178.5888671875,218.93310546875
6.350372314453125,-1269736902,0,-0.3103870153427124,-0.1541508138179779,-0.4071768820285797,-117.98095703125,-190.4296875,229.98046875
6.366529226303101,-1269736902,1,-0.22886763513088226,-0.2917577028274536,0.39526060223579407,2.74658203125,-106.26220703125,-164.85595703125
6.379639148712158,-1269736883,0,-0.2254260778427124,-0.2425297200679779,-0.3620108664035797,-97.16796875,-189.453125,233.7646484375
6.394703149795532,-1269736883,1,-0.21202193200588226,-0.2561131715774536,0.34692075848579407,-2.197265625,-128.173828125,-166.3818359375
6.394784212112427,-1269736864,1,-0.22032271325588226,-0.2229100614786148,0.24242855608463287,-22.3388671875,-134.94873046875,-172.42431640625
6.416243314743042,-1269736864,0,-0.1648792028427124,-0.3541019856929779,-0.2912100851535797,-63.17138671875,-180.35888671875,223.5107421875
6.424690246582031,-1269736845,1,-0.39293012022972107,-0.2917577028274536,0.13110043108463287,-38.75732421875,-131.591796875,-201.904296875
6.4397523403167725,-1269736828,0,-0.0708850547671318,-0.5301274061203003,-0.12226476520299911,-1.89208984375,-150.5126953125,206.35986328125
6.439886093139648,-1269736809,0,0.042884476482868195,-0.5445317029953003,0.026905156672000885,25.87890625,-147.216796875,218.1396484375
6.463405132293701,-1269736826,1,-0.6048442125320435,-0.2314549833536148,0.006588716059923172,-9.46044921875,-133.11767578125,-239.92919921875
6.4634130001068115,-1269736807,1,-0.6988383531570435,-0.08277334272861481,-0.09717105329036713,7.99560546875,-134.09423828125,-243.65234375
6.47131609916687,-1269736790,0,0.2687145471572876,-0.5877445936203003,0.002246953547000885,52.6123046875,-143.61572265625,236.2060546875
6.4846272468566895,-1269736788,1,-0.7957621812820435,0.03246103599667549,-0.21924136579036713,-23.86474609375,-122.74169921875,-246.88720703125
6.516130208969116,-1269736752,1,-1.0450297594070435,0.1525782197713852,-0.16846011579036713,-121.9482421875,-116.8212890625,-240.234375
6.530024290084839,-1269736771,0,0.4830700159072876,-0.6116703748703003,-0.014842890202999115,85.99853515625,-132.9345703125,234.375
6.53015398979187,-1269736752,0,0.6959606409072876,-0.6617192029953003,0.07744226604700089,146.42333984375,-93.81103515625,226.9287109375
6.531126022338867,-1269736733,0,0.8558727502822876,-0.6424320936203003,0.11552820354700089,216.796875,-78.0029296875,208.3740234375
6.53130030632019,-1269736714,0,1.0804821252822876,-0.5577152967453003,-0.011669062077999115,300.9033203125,-65.12451171875,160.400390625
6.544880151748657,-1269736733,1,-1.1788188219070435,0.3007715940475464,-0.11889956891536713,-151.42822265625,-110.2294921875,-217.6513671875
6.544960021972656,-1269736714,1,-1.2237406969070435,0.3474024534225464,0.11718441545963287,-204.833984375,-97.0458984375,-199.03564453125
6.567179203033447,-1269736695,0,1.2345348596572876,-0.3877933919429779,-0.1520499289035797,375.91552734375,-26.55029296875,130.92041015625
6.575088262557983,-1269736695,1,-1.2825785875320435,0.4389551877975464,0.28881528973579407,-241.69921875,-99.18212890625,-180.48095703125
6.616112232208252,-1269736676,1,-1.4070903062820435,0.5786036252975464,0.47094419598579407,-296.5087890625,-106.4453125,-175.35400390625
6.6339430809021,-1269736657,1,-1.4122172594070435,1.1599024534225464,0.7665984630584717,-349.609375,-147.94921875,-165.34423828125
6.634811162948608,-1269736638,1,-1.3672953844070435,1.7150782346725464,1.0812957286834717,-428.1005859375,-210.14404296875,-144.4091796875
6.636398077011108,-1269736619,1,-0.8858500719070435,2.116933584213257,1.3796355724334717,-442.5048828125,-243.5302734375,-111.2060546875
6.650102138519287,-1269736676,0,1.4620739221572876,-0.2293461263179779,-0.3910636007785797,460.75439453125,39.1845703125,144.53125
6.650204181671143,-1269736657,0,1.6444469690322876,-0.2200687825679779,-0.8495596647262573,524.5361328125,104.248046875,132.26318359375
6.650319337844849,-1269736638,0,1.7823864221572876,-0.1939457356929779,-1.6164053678512573,551.33056640625,159.3017578125,85.5712890625
6.650950193405151,-1269736619,0,1.7081676721572876,0.6229487657546997,-2.659374237060547,537.04833984375,238.6474609375,-1.953125
6.66732120513916,-1269736600,1,-0.5359965562820435,2.099843740463257,1.6242644786834717,-362.6708984375,-153.01513671875,-80.99365234375
6.679619073867798,-1269736600,0,1.2047497034072876,1.4496089220046997,-3.102245330810547,428.64990234375,270.99609375,-26.3671875
6.694677114486694,-1269736581,1,-0.36119183897972107,2.107167959213257,1.8068816661834717,-202.5146484375,24.59716796875,-66.7724609375
6.694769382476807,-1269736562,1,-0.5316020250320435,2.253896474838257,2.1345183849334717,-66.5283203125,161.376953125,-83.43505859375
6.7147510051727295,-1269736564,0,0.7233043909072876,1.7135249376296997,-3.110301971435547,273.0712890625,176.81884765625,-42.05322265625
6.715896129608154,-1269736545,0,0.6227184534072876,1.7816401720046997,-3.192577362060547,237.6708984375,94.970703125,-100.89111328125
6.724592208862305,-1269736543,1,-0.8707133531570435,2.434316396713257,2.1813933849334717,20.44677734375,143.9208984375,-79.1015625
6.739827394485474,-1269736526,0,0.6254040002822876,1.6092768907546997,-3.125926971435547,160.46142578125,50.537109375,-126.40380859375
6.739941120147705,-1269736507,0,0.6046520471572876,1.0270015001296997,-2.732860565185547,76.23291015625,17.2119140625,-111.81640625
6.762906312942505,-1269736524,1,-0.8480082750320435,2.452382802963257,1.9072234630584717,39.4287109375,72.20458984375,-44.5556640625
6.769569158554077,-1269736488,0,0.5428844690322876,0.5658198595046997,-2.278026580810547,18.9208984375,-7.50732421875,-69.64111328125
6.784844160079956,-1269736488,1,-0.5001078844070435,1.4763087034225464,1.4269988536834717,55.908203125,57.4951171875,11.3525390625
6.7848992347717285,-1269736469,1,-0.6290141344070435,0.9348047971725464,1.1726043224334717,133.97216796875,134.8876953125,13.3056640625
6.799630165100098,-1269736469,0,0.4894176721572876,0.2025386393070221,-1.7223623991012573,-22.88818359375,-36.31591796875,-27.587890625
6.799651145935059,-1269736450,0,0.3526989221572876,0.0694819986820221,-1.3058584928512573,-51.33056640625,-90.8203125,-24.169921875
6.817015171051025,-1269736450,1,-0.8375102281570435,0.6437891721725464,0.9287078380584717,233.94775390625,125.54931640625,29.052734375
6.829807281494141,-1269736431,0,0.3273082971572876,0.032128483057022095,-0.9481924772262573,-118.896484375,-221.37451171875,-60.4248046875
6.844586133956909,-1269736431,1,-0.8231059312820435,0.8613184690475464,0.7080047130584717,269.22607421875,87.95166015625,71.533203125
6.844649076461792,-1269736412,1,-0.7662211656570435,0.8505762815475464,0.5485808849334717,211.24267578125,40.0390625,101.74560546875
6.867642164230347,-1269736412,0,0.4037243127822876,-0.028418391942977905,-0.7165030241012573,-181.45751953125,-324.8291015625,-103.21044921875
6.867650270462036,-1269736393,0,0.4115368127822876,-0.2610844075679779,-0.4826163351535797,-208.3740234375,-417.54150390625,-178.89404296875
6.874563217163086,-1269736393,1,-0.6990824937820435,0.6845606565475464,0.36669614911079407,137.14599609375,-12.20703125,108.88671875
6.889604330062866,-1269736374,0,0.0736461952328682,-0.2020023763179779,-0.4572257101535797,-199.89013671875,-507.50732421875,-244.0185546875
6.917280197143555,-1269736374,1,-0.5560160875320435,0.4868067502975464,0.08080746233463287,82.45849609375,-16.29638671875,99.12109375
6.917291164398193,-1269736355,1,-0.47374066710472107,0.6122950315475464,-0.11963199079036713,58.837890625,13.0615234375,91.24755859375
6.921398162841797,-1269736355,0,-0.3096545934677124,0.3641597330570221,-0.8917959928512573,-165.283203125,-675.29296875,-282.2265625
6.921901226043701,-1269736336,0,0.038001663982868195,-0.3619144856929779,-0.5148428678512573,-84.47265625,-745.17822265625,-351.13525390625
6.934753179550171,-1269736336,1,-0.47544965147972107,0.7546290159225464,-0.19092105329036713,16.90673828125,41.015625,92.95654296875
6.934872150421143,-1269736317,1,-0.5167094469070435,0.8083399534225464,0.04150082543492317,-52.18505859375,52.06298828125,114.74609375
6.949942111968994,-1269736300,0,1.3202282190322876,0.5750972032546997,-0.4474600851535797,72.021484375,-572.32666015625,-590.33203125
6.967962265014648,-1269736298,1,-0.5247660875320435,0.7973536252975464,0.05126645043492317,-109.2529296875,37.9638671875,139.6484375
6.979658126831055,-1269736281,0,0.4303356409072876,0.7633296251296997,-0.9779776334762573,-87.890625,-511.53564453125,-402.2216796875
6.994798183441162,-1269736279,1,-0.45445355772972107,0.5073145627975464,0.26147153973579407,-113.6474609375,25.0244140625,136.5966796875
6.9948883056640625,-1269736260,1,-0.32432660460472107,0.3024805784225464,0.45336607098579407,-38.51318359375,37.59765625,126.0986328125
7.015335321426392,-1269736262,0,0.040443070232868195,0.4981929361820221,-0.6642569303512573,-131.40869140625,-288.4521484375,-136.04736328125
7.015344142913818,-1269736243,0,-0.0037463828921318054,0.3338862955570221,-0.12177648395299911,-71.22802734375,-97.96142578125,103.6376953125
7.038560152053833,-1269736224,0,-0.0957873985171318,0.1939937174320221,0.2817879617214203,23.5595703125,-4.638671875,261.8408203125
7.061765193939209,-1269736224,1,-0.24766646325588226,0.3442286252975464,0.5976531505584717,153.9306640625,65.49072265625,38.14697265625
7.061773061752319,-1269736205,1,-0.27037152647972107,0.4821680784225464,0.6525847911834717,142.51708984375,32.1044921875,-17.333984375
7.0696961879730225,-1269736205,0,-0.1143420860171318,0.1664058268070221,0.5232430696487427,55.96923828125,-55.60302734375,291.259765625
7.069819211959839,-1269736186,0,0.3160778284072876,0.1200191080570221,0.4006844460964203,26.67236328125,-167.724609375,197.3876953125
7.0848000049591064,-1269736186,1,-0.26011762022972107,0.4558008909225464,0.5788543224334717,108.7646484375,-29.72412109375,-50.84228515625
7.08488917350769,-1269736167,1,-0.22496138513088226,0.3571680784225464,0.41723325848579407,74.462890625,-74.21875,-87.46337890625
7.100271224975586,-1269736167,0,0.6549450159072876,0.1976558268070221,0.1460457742214203,-10.986328125,-180.2978515625,112.548828125
7.100406169891357,-1269736148,0,0.6734997034072876,0.2520991861820221,0.1873055398464203,-2.5634765625,-126.8310546875,75.01220703125
7.11883020401001,-1269736148,1,-0.21275435388088226,0.3327540159225464,0.31200864911079407,55.48095703125,-80.13916015625,-123.291015625
7.129890203475952,-1269736129,0,0.5358043909072876,0.1908198893070221,0.2954598367214203,31.18896484375,-93.505859375,122.98583984375
7.165959358215332,-1269736110,0,0.4750133752822876,0.3216792643070221,0.2754403054714203,80.50537109375,-37.7197265625,203.2470703125
7.165969371795654,-1269736091,0,0.4999157190322876,0.5663081407546997,0.1611824929714203,88.134765625,-37.29248046875,230.46875
7.174722194671631,-1269736129,1,-0.30308637022972107,0.3034571409225464,0.25658872723579407,58.10546875,-63.65966796875,-140.869140625
7.174830198287964,-1269736110,1,-0.39512738585472107,0.3569239377975464,0.11425472795963287,80.078125,-34.11865234375,-153.13720703125
7.175975322723389,-1269736091,1,-0.5938578844070435,0.4526270627975464,0.05126645043492317,78.61328125,-0.18310546875,-156.982421875
7.189807176589966,-1269736072,0,0.6063610315322876,0.8919917345046997,-0.07050695270299911,68.4814453125,-88.07373046875,204.9560546875
7.2147510051727295,-1269736072,1,-0.7811137437820435,0.5131739377975464,0.12402035295963287,66.650390625,11.04736328125,-161.62109375
7.214759349822998,-1269736053,1,-0.9839946031570435,0.6127833127975464,0.013424653559923172,41.6259765625,3.11279296875,-160.21728515625
7.233910083770752,-1269736034,1,-1.0091410875320435,0.6440333127975464,-0.030520658940076828,13.427734375,-6.4697265625,-152.4658203125
7.2511680126190186,-1269736036,0,1.1434704065322876,1.3404780626296997,-0.3583487570285797,75.5615234375,-161.2548828125,204.58984375
7.2511820793151855,-1269736017,0,1.4466930627822876,1.8753901720046997,-0.7829092741012573,111.26708984375,-141.11328125,281.005859375
7.2628443241119385,-1269735998,0,1.8544079065322876,2.6146481037139893,-1.4667471647262573,114.80712890625,-93.75,335.26611328125
7.267197370529175,-1269736015,1,-1.0594340562820435,0.6887110471725464,-0.13110660016536713,-7.568359375,13.24462890625,-139.95361328125
7.267204284667969,-1269735996,1,-1.1480571031570435,0.8181055784225464,-0.16699527204036713,-33.3251953125,27.4658203125,-124.0234375
7.2796711921691895,-1269735979,0,2.256751775741577,3.0577633380889893,-2.160350799560547,79.2236328125,4.21142578125,357.666015625
7.295077323913574,-1269735960,1,-1.1138774156570435,1.1105860471725464,-0.003176908940076828,-78.125,36.80419921875,-70.80078125
7.3171913623809814,-1269735960,0,2.250648260116577,3.5182125568389893,-2.794139862060547,45.71533203125,119.93408203125,324.64599609375
7.31720232963562,-1269735941,0,1.6163707971572876,3.6952145099639893,-2.580516815185547,101.98974609375,255.2490234375,186.82861328125
7.324686288833618,-1269735941,1,-1.1888285875320435,1.2924708127975464,0.16552425920963287,-108.33740234375,50.84228515625,-19.10400390625
7.339704275131226,-1269735922,0,1.1378551721572876,3.7359859943389893,-1.8788565397262573,94.54345703125,335.14404296875,101.318359375
7.3636133670806885,-1269735922,1,-1.3270121812820435,1.1215723752975464,0.5810515880584717,-124.6337890625,58.41064453125,29.84619140625
7.363621234893799,-1269735903,1,-1.0677348375320435,1.1345118284225464,0.8808562755584717,-81.1767578125,43.39599609375,42.724609375
7.36967921257019,-1269735903,0,0.6603161096572876,3.9076168537139893,-1.8886221647262573,45.654296875,373.53515625,161.07177734375
7.369760036468506,-1269735884,0,0.6097790002822876,3.8287594318389893,-1.9096182584762573,21.78955078125,373.291015625,230.46875
7.384534120559692,-1269735884,1,-0.8316508531570435,1.2692774534225464,1.0229461193084717,-50.6591796875,51.8798828125,57.18994140625
7.3998332023620605,-1269735865,0,0.4242321252822876,3.5545895099639893,-1.9997061491012573,-28.80859375,398.98681640625,224.365234375
7.399963140487671,-1269735846,0,0.5875622034072876,3.3490231037139893,-2.205028533935547,-96.00830078125,424.560546875,123.046875
7.416743278503418,-1269735865,1,-0.7139750719070435,1.0334376096725464,1.1679656505584717,-29.60205078125,65.00244140625,78.4912109375
7.416750192642212,-1269735846,1,-0.5189067125320435,0.7043360471725464,1.2399871349334717,24.23095703125,70.80078125,65.24658203125
7.429685115814209,-1269735827,0,0.2323375940322876,3.5780270099639893,-2.070262908935547,-131.40869140625,420.71533203125,135.6201171875
7.444616317749023,-1269735827,1,-0.15416060388088226,0.4396876096725464,0.8896453380584717,54.01611328125,74.8291015625,38.57421875
7.444720268249512,-1269735808,1,-0.07676802575588226,0.4157618284225464,0.30810239911079407,31.43310546875,101.01318359375,14.5263671875
7.465529203414917,-1269735808,0,0.1410290002822876,3.6039059162139893,-2.095409393310547,-151.2451171875,395.3857421875,226.318359375
7.4746692180633545,-1269735789,1,-0.28233441710472107,0.3683985471725464,-0.008303862065076828,-4.82177734375,101.50146484375,19.59228515625
7.489603281021118,-1269735772,0,-0.4126819372177124,2.9840328693389893,-2.095897674560547,-218.8720703125,412.109375,234.92431640625
7.513545989990234,-1269735770,1,-0.5467387437820435,0.3930567502975464,-0.49829408526420593,-26.2451171875,92.71240234375,14.34326171875
7.513555288314819,-1269735751,1,-0.7754985094070435,0.8662012815475464,-0.9748566150665283,-19.71435546875,205.56640625,59.6923828125
7.520197153091431,-1269735753,0,-0.7246936559677124,2.8036129474639893,-1.7821768522262573,-237.48779296875,402.7099609375,167.48046875
7.520317316055298,-1269735734,0,-0.6104358434677124,2.4745113849639893,-1.4484366178512573,-254.5166015625,346.8017578125,175.47607421875
7.549147367477417,-1269735715,0,-0.4041370153427124,2.1158688068389893,-1.2204092741012573,-258.30078125,300.59814453125,245.4833984375
7.550144195556641,-1269735696,0,-0.1277698278427124,1.5589839220046997,-1.1291006803512573,-255.126953125,292.724609375,283.69140625
7.57001805305481,-1269735732,1,-0.9031840562820435,0.7985743284225464,-0.9533722400665283,29.1748046875,292.41943359375,64.88037109375
7.570028066635132,-1269735696,1,-0.9337016344070435,0.9191797971725464,-0.6633331775665283,-27.03857421875,212.95166015625,53.16162109375
7.579761266708374,-1269735677,0,0.2379528284072876,0.8863765001296997,-1.2184561491012573,-235.77880859375,308.77685546875,225.03662109375
7.597236156463623,-1269735677,1,-0.6741801500320435,0.7570704221725464,-0.6525909900665283,-4.57763671875,227.60009765625,61.09619140625
7.597246408462524,-1269735658,1,-0.5804301500320435,0.7507227659225464,-0.6672394275665283,93.93310546875,319.15283203125,72.1435546875
7.615894079208374,-1269735658,0,0.3978649377822876,0.7621089220046997,-1.2370108366012573,-233.70361328125,345.52001953125,78.18603515625
7.615904092788696,-1269735639,0,0.2342907190322876,0.4940425455570221,-0.9987295866012573,-222.2900390625,372.4365234375,41.80908203125
7.624729156494141,-1269735639,1,-0.9913188219070435,0.9435938596725464,-0.48974916338920593,141.9677734375,363.22021484375,85.693359375
7.64046311378479,-1269735620,0,0.051185257732868195,0.3436519205570221,-0.7289541959762573,-213.43994140625,366.5771484375,50.78125
7.663135051727295,-1269735620,1,-0.8870707750320435,1.1750391721725464,-0.49292299151420593,62.92724609375,330.322265625,67.626953125
7.66314435005188,-1269735601,1,-0.6170512437820435,1.1498926877975464,-0.6735870838165283,-49.98779296875,275.20751953125,82.45849609375
7.6838390827178955,-1269735582,1,-0.45591840147972107,1.1674708127975464,-1.2802765369415283,-142.88330078125,300.537109375,82.3974609375
7.700242280960083,-1269735601,0,0.005042679607868195,0.1561519205570221,-0.6608389616012573,-192.138671875,319.4580078125,41.07666015625
7.708378314971924,-1269735582,0,0.2814098596572876,0.007470279932022095,-0.6439932584762573,-156.8603515625,320.98388671875,36.0107421875
7.711860179901123,-1269735563,0,0.4415661096572876,-0.2310551106929779,-0.5653799772262573,-139.404296875,337.40234375,17.333984375
7.711867332458496,-1269735544,0,0.2711559534072876,-0.2728031575679779,-0.5548819303512573,-119.384765625,364.013671875,-32.77587890625
7.716003179550171,-1269735563,1,-1.0921489000320435,0.01903330162167549,-0.8107941150665283,-165.10009765625,361.02294921875,160.7666015625
7.716489315032959,-1269735544,1,-0.6085063219070435,0.07665048539638519,-0.04419253394007683,105.04150390625,369.20166015625,163.14697265625
7.743587255477905,-1269735525,1,-0.7291117906570435,0.7929590940475464,-0.15283511579036713,202.2705078125,423.52294921875,115.29541015625
7.76775336265564,-1269735508,0,-0.1172717735171318,0.3719722330570221,-0.3524893820285797,-44.73876953125,297.36328125,-27.099609375
7.767763376235962,-1269735489,0,0.4701305627822876,-0.056982845067977905,-0.1935538351535797,-55.72509765625,238.34228515625,9.27734375
7.7747802734375,-1269735506,1,-0.8336039781570435,1.3134669065475464,-0.32031556963920593,158.8134765625,421.20361328125,104.43115234375
7.774920225143433,-1269735487,1,-1.6934672594070435,0.8600977659225464,-0.03198550269007683,14.58740234375,381.04248046875,143.9208984375
7.789928197860718,-1269735470,0,0.1439586877822876,0.1527339518070221,-0.3219718039035797,-40.46630859375,221.86279296875,87.58544921875
7.815498113632202,-1269735468,1,-0.7371684312820435,0.5036524534225464,0.24950863420963287,22.94921875,275.0244140625,85.0830078125
7.821783065795898,-1269735451,0,0.0773083046078682,0.1368648111820221,-0.3483389914035797,-8.544921875,226.01318359375,161.31591796875
7.821793079376221,-1269735432,0,0.013099320232868195,0.1690913736820221,-0.3241690695285797,38.75732421875,236.26708984375,236.87744140625
7.835005283355713,-1269735432,1,-0.5091410875320435,0.7180079221725464,0.04174496605992317,107.91015625,273.25439453125,145.69091796875
7.850096225738525,-1269735413,0,0.009681351482868195,0.1424800455570221,-0.3339346945285797,71.6552734375,245.7275390625,308.2275390625
7.869125127792358,-1269735413,1,-0.41880902647972107,0.7402247190475464,0.04711605980992317,145.6298828125,283.75244140625,178.52783203125
7.869133234024048,-1269735394,1,-0.31724652647972107,0.6462305784225464,-0.024417143315076828,138.48876953125,287.841796875,167.236328125
7.879804372787476,-1269735394,0,0.0013805702328681946,0.1295405924320221,-0.3595694601535797,116.455078125,277.03857421875,358.5205078125
7.879931211471558,-1269735375,0,-0.0911487266421318,0.1820308268070221,-0.4870108664035797,157.04345703125,308.53271484375,373.9013671875
7.8945653438568115,-1269735375,1,-0.23619185388088226,0.5378321409225464,-0.03174136206507683,83.80126953125,279.9072265625,122.1923828125
7.915694236755371,-1269735356,0,-0.2412952184677124,-0.020361751317977905,-0.4870108664035797,183.2275390625,366.76025390625,335.14404296875
7.916355133056641,-1269735337,0,-0.3391956090927124,-0.2310551106929779,-0.3261221945285797,188.04931640625,427.1240234375,258.056640625
7.9247682094573975,-1269735356,1,-0.062363725155591965,0.4662989377975464,0.10473324358463287,43.64013671875,265.93017578125,105.712890625
7.924968242645264,-1269735337,1,0.09998978674411774,0.2724512815475464,0.21801449358463287,23.49853515625,247.37548828125,128.23486328125
7.9396281242370605,-1269735318,0,-0.4139026403427124,-0.023535579442977905,-0.1681632101535797,177.6123046875,454.2236328125,187.5
7.963573217391968,-1269735318,1,0.07997025549411774,0.08519540727138519,0.18945004045963287,8.23974609375,245.91064453125,141.7236328125
7.963581323623657,-1269735299,1,0.19398392736911774,-0.1906834989786148,0.09423519670963287,15.93017578125,256.40869140625,110.65673828125
7.969818115234375,-1269735299,0,-0.4002307653427124,-0.038184016942977905,-0.1449698507785797,176.20849609375,434.75341796875,171.69189453125
7.969961166381836,-1269735280,0,-0.2679065465927124,-0.3040531575679779,-0.056835077702999115,175.59814453125,401.4892578125,151.7333984375
7.986341238021851,-1269735280,1,0.23011673986911774,-0.3471776247024536,0.06029965355992317,45.59326171875,280.76171875,75.50048828125
8.016124248504639,-1269735261,1,0.27430620789527893,-0.3513280153274536,0.09154964983463287,57.18994140625,288.39111328125,24.0478515625
8.016615390777588,-1269735242,1,0.12196244299411774,-0.4480077028274536,0.13305355608463287,29.47998046875,293.15185546875,-21.91162109375
8.0300931930542,-1269735244,0,-0.4119495153427124,-0.5071781873703003,-0.033153437077999115,168.45703125,387.26806640625,54.38232421875
8.030174255371094,-1269735225,0,-0.5564807653427124,-0.7146977186203003,-0.041210077702999115,129.150390625,350.40283203125,40.71044921875
8.045250177383423,-1269735223,1,-0.047959428280591965,-0.5239354372024536,0.20922543108463287,-46.44775390625,280.3955078125,-69.03076171875
8.065121173858643,-1269735206,0,-2.488365411758423,-0.1255863606929779,-0.4406241476535797,114.74609375,363.4033203125,8.1787109375
8.065129041671753,-1269735187,0,-0.8960803747177124,-1.0325688123703003,-0.6549795866012573,210.693359375,337.46337890625,274.169921875
8.074592113494873,-1269735204,1,-1.0237895250320435,-1.1418553590774536,0.10790707170963287,-302.734375,190.24658203125,-470.458984375
8.089690208435059,-1269735168,0,-0.006676070392131805,-1.7305668592453003,-0.8051260709762573,118.59130859375,144.04296875,241.88232421875
8.113338232040405,-1269735168,1,-0.37120160460472107,-1.6801854372024536,-0.04370425269007683,-263.12255859375,258.11767578125,-297.91259765625
8.113347291946411,-1269735149,1,-0.8773051500320435,-1.3303319215774536,0.30517271161079407,-226.98974609375,307.18994140625,-576.7822265625
8.120223045349121,-1269735149,0,0.0985485389828682,-1.3755863904953003,-1.8693350553512573,279.72412109375,278.99169921875,279.11376953125
8.120230197906494,-1269735130,0,0.053626663982868195,-1.0596684217453003,-1.8849600553512573,299.560546875,199.21875,275.69580078125
8.13489818572998,-1269735130,1,-1.0855571031570435,-1.0730077028274536,0.9853484630584717,-225.28076171875,256.04248046875,-847.65625
8.14980936050415,-1269735111,0,0.6551891565322876,-1.4202641248703003,-2.753124237060547,357.7880859375,125.1220703125,310.791015625
8.168270111083984,-1269735111,1,-2.289658546447754,-0.7871190309524536,1.7585418224334717,-313.8427734375,171.93603515625,-988.28125
8.168280124664307,-1269735092,1,-3.080185890197754,-0.4201756715774536,2.7609832286834717,-247.802734375,56.09130859375,-1067.32177734375
8.193575382232666,-1269735073,1,-3.424668312072754,1.3491114377975464,2.7690398693084717,-6.89697265625,-85.26611328125,-892.51708984375
8.21444034576416,-1269735092,0,1.3285290002822876,-1.8973149061203003,-3.653759002685547,481.87255859375,109.43603515625,221.6796875
8.215116262435913,-1269735073,0,0.9239879846572876,-1.9432133436203003,-4.493602752685547,634.8876953125,128.60107421875,10.009765625
8.215123414993286,-1269735054,0,-0.2823108434677124,-1.8921879529953003,-4.862499237060547,726.86767578125,67.0166015625,-91.85791015625
8.215129137039185,-1269735035,0,-1.2784045934677124,-2.3768069744110107,-5.378368377685547,692.138671875,1.64794921875,-38.26904296875
8.238680124282837,-1269735016,0,-1.5899280309677124,-2.4742190837860107,-5.403026580810547,599.2431640625,-14.2822265625,27.099609375
8.283986330032349,-1269735054,1,-3.440049171447754,2.635244131088257,2.2475554943084717,-8.97216796875,-78.06396484375,-649.96337890625
8.285052299499512,-1269735035,1,-3.481797218322754,2.391347646713257,2.0529754161834717,-97.35107421875,-44.49462890625,-553.8330078125
8.285176277160645,-1269735016,1,-3.374375343322754,1.6447657346725464,1.1557586193084717,-11.77978515625,80.74951171875,-492.98095703125
8.289161443710327,-1269734997,1,-4.059922218322754,1.5407618284225464,0.7109344005584717,221.8017578125,216.73583984375,-382.14111328125
8.300004243850708,-1269734980,0,-1.0235217809677124,-2.2691409587860107,-4.002880096435547,307.43408203125,179.5654296875,341.36962890625
8.300032138824463,-1269734961,0,-1.0349963903427124,-2.4617679119110107,-3.476268768310547,236.87744140625,69.9462890625,422.4853515625
8.31757640838623,-1269734978,1,-4.394394874572754,1.8359278440475464,0.43749693036079407,284.5458984375,298.33984375,-341.4306640625
8.317589044570923,-1269734959,1,-4.568955421447754,1.8288477659225464,0.30956724286079407,220.27587890625,360.29052734375,-280.82275390625
8.318055391311646,-1269734940,1,-4.550400733947754,1.7475489377975464,0.37182310223579407,146.91162109375,413.39111328125,-143.6767578125
8.332050323486328,-1269734942,0,-0.8225940465927124,-2.6075198650360107,-3.469921112060547,200.927734375,-114.6240234375,468.07861328125
8.365943193435669,-1269734923,0,0.0631481483578682,-2.8699710369110107,-3.943065643310547,205.078125,-301.20849609375,497.86376953125
8.36595106124878,-1269734904,0,1.4095836877822876,-2.4090335369110107,-3.847850799560547,153.1982421875,-235.9619140625,487.36572265625
8.366556167602539,-1269734885,0,1.3661266565322876,-1.7889164686203003,-3.136913299560547,105.3466796875,-117.61474609375,523.86474609375
8.376005172729492,-1269734904,1,-3.338242530822754,0.5031641721725464,0.9296844005584717,62.07275390625,509.033203125,20.1416015625
8.37601613998413,-1269734885,1,-2.644394874572754,0.09520517289638519,1.2092254161834717,118.7744140625,589.599609375,59.63134765625
8.389615297317505,-1269734866,0,1.2682262659072876,-1.5816410779953003,-2.159130096435547,28.74755859375,-105.65185546875,524.7802734375
8.413571119308472,-1269734866,1,-2.017685890197754,-0.6049901247024536,1.5029265880584717,180.6640625,625.8544921875,-33.5693359375
8.420462131500244,-1269734847,0,1.1380993127822876,-1.4205082654953003,-1.5968741178512573,-18.9208984375,-145.5078125,516.6015625
8.42047119140625,-1269734828,0,1.2609020471572876,-1.3294438123703003,-1.3112295866012573,-39.794921875,-196.59423828125,475.09765625
8.43527603149414,-1269734847,1,-2.955185890197754,0.5131739377975464,1.1777312755584717,138.427734375,553.8330078125,66.46728515625
8.435391187667847,-1269734828,1,-2.768174171447754,0.7507227659225464,1.1691863536834717,-44.7998046875,394.10400390625,73.54736328125
8.45008111000061,-1269734809,0,1.3395153284072876,-1.1377934217453003,-1.1632803678512573,-42.1142578125,-191.58935546875,452.7587890625
8.471415042877197,-1269734809,1,-2.368027687072754,0.02586923912167549,1.2116668224334717,-150.20751953125,273.01025390625,150.57373046875
8.479886293411255,-1269734790,0,1.2528454065322876,-0.7962406873703003,-0.9591788053512573,-63.78173828125,-147.39990234375,432.4951171875
8.479902982711792,-1269734771,0,1.0829235315322876,-0.6192387342453003,-0.5434073209762573,-70.1904296875,-111.02294921875,408.3251953125
8.494888305664062,-1269734790,1,-1.7249614000320435,-0.2917577028274536,1.0383269786834717,-127.3193359375,282.04345703125,177.18505859375
8.495001316070557,-1269734771,1,-1.4498149156570435,-0.2060643583536148,0.8369109630584717,-94.78759765625,334.77783203125,190.24658203125
8.51773715019226,-1269734752,0,0.8385387659072876,-0.3372562825679779,-0.1271475851535797,-68.84765625,-115.05126953125,374.81689453125
8.524901151657104,-1269734752,1,-1.3426371812820435,-0.06055654212832451,0.6311004161834717,-86.97509765625,411.80419921875,235.7177734375
8.525010347366333,-1269734733,1,-1.3773051500320435,-0.1755467802286148,0.41723325848579407,-102.05078125,408.02001953125,369.32373046875
8.539600133895874,-1269734716,0,0.6683727502822876,0.1476069986820221,0.1594735085964203,-51.8798828125,-93.3837890625,346.13037109375
8.563655376434326,-1269734714,1,-1.3900004625320435,-0.3762303590774536,0.32348325848579407,-129.39453125,364.501953125,474.06005859375
8.569822311401367,-1269734697,0,0.6813122034072876,0.2420894205570221,0.2573738992214203,-46.69189453125,-23.62060546875,316.71142578125
8.56995415687561,-1269734678,0,0.4276500940322876,0.4090816080570221,0.4373055398464203,-33.5693359375,89.90478515625,309.6923828125
8.584664106369019,-1269734695,1,-1.4688578844070435,-0.6753026247024536,0.30688169598579407,-158.0810546875,340.4541015625,410.7666015625
8.584750175476074,-1269734676,1,-0.9227153062820435,-0.9245702028274536,0.18871761858463287,-142.39501953125,300.72021484375,221.49658203125
8.599631309509277,-1269734659,0,-0.053306929767131805,0.6285640001296997,0.5386239290237427,-3.72314453125,130.37109375,330.50537109375
8.617026090621948,-1269734640,1,-0.5704203844070435,-0.3679295778274536,-0.09814761579036713,8.23974609375,448.79150390625,98.44970703125
8.62981629371643,-1269734640,0,-0.3374866247177124,0.9312983751296997,0.4148446023464203,3.72314453125,47.36328125,346.0693359375
8.629961252212524,-1269734621,0,-0.2803577184677124,0.9422847032546997,0.2585946023464203,-18.798828125,-36.865234375,371.76513671875
8.644543170928955,-1269734621,1,-0.5513774156570435,-0.06983388960361481,-0.16357730329036713,44.25048828125,476.1962890625,119.2626953125
8.665465116500854,-1269734602,0,0.4862438440322876,0.5565425157546997,0.1462899148464203,-6.9580078125,-55.6640625,365.53955078125
8.674806118011475,-1269734602,1,-0.26670941710472107,0.07884775102138519,-0.027590971440076828,-46.81396484375,431.5185546875,96.98486328125
8.674877405166626,-1269734583,1,0.08973588049411774,0.05858408287167549,0.23510433733463287,-156.6162109375,402.40478515625,75.01220703125
8.689858198165894,-1269734583,0,0.9615856409072876,1.3541499376296997,-0.2812003195285797,-80.810546875,-67.32177734375,253.60107421875
8.689930200576782,-1269734564,0,1.1310192346572876,1.6532222032546997,-1.2150381803512573,-236.083984375,-70.86181640625,174.31640625
8.714279174804688,-1269734564,1,0.14320267736911774,-0.02417958900332451,0.32568052411079407,-212.0361328125,428.3447265625,88.134765625
8.722050189971924,-1269734545,0,0.7389293909072876,0.5516597032546997,-0.8200186491012573,-383.48388671875,-26.30615234375,263.73291015625
8.722061157226562,-1269734526,0,0.2938610315322876,0.6541987657546997,-0.5868643522262573,-328.125,94.78759765625,315.5517578125
8.734769344329834,-1269734545,1,-0.11387740075588226,-0.3784276247024536,0.45385435223579407,-224.30419921875,459.53369140625,132.26318359375
8.734885215759277,-1269734526,1,-0.22081099450588226,-0.5957127809524536,0.6071746349334717,-155.57861328125,450.50048828125,139.404296875
8.749797344207764,-1269734507,0,0.1754528284072876,0.2621089518070221,-0.7738760709762573,-295.41015625,158.50830078125,370.17822265625
8.767083168029785,-1269734507,1,-0.28868207335472107,-0.6672459840774536,0.7858855724334717,-48.27880859375,429.87060546875,72.998046875
8.767091989517212,-1269734488,1,-0.39097699522972107,-0.4548436403274536,0.7954070568084717,44.677734375,385.986328125,19.10400390625
8.779622316360474,-1269734488,0,0.2601696252822876,-0.1736820638179779,-0.6024893522262573,-258.6669921875,180.6640625,338.8671875
8.794862270355225,-1269734469,1,-0.39683637022972107,-0.10889638960361481,0.7250945568084717,119.384765625,249.755859375,-39.1845703125
8.8180410861969,-1269734452,0,0.2154918909072876,-0.053809016942977905,-0.08735265582799911,-162.78076171875,142.63916015625,189.02587890625
8.82481837272644,-1269734450,1,-0.20518599450588226,-0.03565419837832451,0.29418638348579407,123.22998046875,51.69677734375,-35.70556640625
8.824904203414917,-1269734431,1,0.10365189611911774,-0.2253514677286148,-0.44067689776420593,43.212890625,-37.41455078125,-52.490234375
8.83979320526123,-1269734433,0,0.040198929607868195,0.0633784830570221,-0.11982335895299911,-200.74462890625,115.17333984375,139.6484375
8.839880228042603,-1269734414,0,-0.3418811559677124,-0.0801762044429779,0.046436406672000885,-250.18310546875,93.32275390625,165.8935546875
8.863686323165894,-1269734412,1,0.25672808289527893,-0.3459569215774536,-0.7595245838165283,-32.28759765625,-26.85546875,-112.6708984375
8.8698570728302,-1269734395,0,-0.4871448278427124,-0.3890140950679779,0.1892586648464203,-264.5263671875,46.142578125,242.37060546875
8.869977235794067,-1269734376,0,-0.1866077184677124,-0.7339848279953003,0.3867684304714203,-281.55517578125,-17.333984375,260.68115234375
