sync_time,timestamp_ms,device_id,ax,ay,az,gx,gy,gz
0.010609865188598633,1582954342,1,0.20323732495307922,0.506003737449646,0.8829458355903625,-14.16015625,-17.27294921875,-4.7607421875
0.012140035629272461,1582954361,1,0.21544435620307922,0.530173659324646,0.9188345074653625,-14.2822265625,-16.54052734375,-4.08935546875
0.027290821075439453,1582954354,0,0.8784462809562683,0.14858192205429077,0.5333682298660278,-83.43505859375,72.8759765625,60.9130859375
0.02736377716064453,1582954373,0,0.9121376872062683,0.14296668767929077,0.5240908861160278,-83.06884765625,74.8291015625,65.673828125
0.055242061614990234,1582954392,0,0.8938271403312683,0.14150184392929077,0.5201846361160278,-82.03125,75.68359375,64.94140625
0.07095599174499512,1582954380,1,0.23399904370307922,0.527488112449646,0.9163931012153625,-14.7705078125,-15.2587890625,-3.0517578125
0.07104682922363281,1582954399,1,0.21520021557807922,0.492576003074646,0.9090688824653625,-10.92529296875,-12.39013671875,-1.52587890625
0.0723118782043457,1582954418,1,0.21275880932807922,0.456931471824646,0.9388540387153625,-5.67626953125,-10.25390625,0.91552734375
0.09641885757446289,1582954411,0,0.9043251872062683,0.12734168767929077,0.5326358079910278,-79.2236328125,78.06396484375,59.75341796875
0.09642696380615234,1582954430,0,0.9131142497062683,0.10219521075487137,0.5428897142410278,-72.81494140625,82.1533203125,55.35888671875
0.1022179126739502,1582954437,1,0.23131349682807922,0.492576003074646,0.9239614605903625,0.30517578125,-8.97216796875,4.39453125
0.11720609664916992,1582954449,0,0.9370400309562683,0.12514442205429077,0.5099307298660278,-67.19970703125,80.4443359375,52.06298828125
0.11723589897155762,1582954468,0,0.8840615153312683,0.15712684392929077,0.46207916736602783,-64.02587890625,78.4912109375,52.001953125
0.1409008502960205,1582954456,1,0.2652490437030792,0.478659987449646,0.9813345074653625,2.86865234375,-15.80810546875,8.60595703125
0.14090609550476074,1582954475,1,0.2808740437030792,0.493796706199646,0.8468130230903625,0.244140625,-9.94873046875,13.7939453125
0.1481008529663086,1582954487,0,0.9187294840812683,0.13930457830429077,0.44987213611602783,-60.05859375,76.171875,57.67822265625
0.16225194931030273,1582954494,1,0.3162744343280792,0.515769362449646,0.8736684918403625,-0.42724609375,-13.3056640625,19.83642578125
0.17569899559020996,1582954506,0,0.8989540934562683,0.11684364825487137,0.42936432361602783,-57.7392578125,73.66943359375,57.7392578125
0.17579388618469238,1582954525,0,0.8833290934562683,0.13075965642929077,0.43082916736602783,-61.279296875,73.3642578125,63.41552734375
0.19692301750183105,1582954530,1,0.3016259968280792,0.522849440574646,0.8624380230903625,-8.23974609375,-11.90185546875,15.44189453125
0.2051868438720703,1582954544,0,0.8816201090812683,0.12587684392929077,0.42667877674102783,-66.58935546875,75.98876953125,67.2607421875
0.22235989570617676,1582954549,1,0.2925927937030792,0.525290846824646,0.8582876324653625,-14.34326171875,-8.056640625,8.544921875
0.22237396240234375,1582954568,1,0.2911279499530792,0.537742018699646,0.8678091168403625,-18.310546875,-3.5400390625,0.54931640625
0.24518895149230957,1582954563,0,0.8684365153312683,0.12905067205429077,0.43473541736602783,-76.72119140625,81.84814453125,79.40673828125
0.24519610404968262,1582954582,0,0.8860146403312683,0.14052528142929077,0.46940338611602783,-82.94677734375,87.0361328125,83.06884765625
0.2521369457244873,1582954587,1,0.2728174030780792,0.531882643699646,0.8822134137153625,-23.62060546875,-1.46484375,-0.79345703125
0.26717495918273926,1582954618,0,0.9531533122062683,0.10805458575487137,0.5121279954910278,-74.0966796875,85.38818359375,80.87158203125
0.2937757968902588,1582954606,1,0.2503564655780792,0.508201003074646,0.9005239605903625,-21.484375,1.0986328125,3.60107421875
0.293781042098999,1582954625,1,0.2525537312030792,0.501120924949646,0.9364126324653625,-16.54052734375,-2.99072265625,5.31005859375
0.2989330291748047,1582954637,0,0.9392372965812683,0.01576942950487137,0.5336123704910278,-78.79638671875,82.58056640625,75.3173828125
0.3135409355163574,1582954644,1,0.20006349682807922,0.435447096824646,0.9390981793403625,-19.1650390625,-5.06591796875,0.48828125
0.32733607292175293,1582954656,0,0.8970009684562683,-0.02133994549512863,0.5487490892410278,-84.3505859375,81.0546875,68.359375
0.3273930549621582,1582954675,0,0.8716103434562683,0.02870888262987137,0.5043154954910278,-96.435546875,88.43994140625,65.4296875
0.3474719524383545,1582954663,1,0.21861818432807922,0.454245924949646,0.9430044293403625,-22.64404296875,-7.2021484375,-12.451171875
0.3474769592285156,1582954682,1,0.24645021557807922,0.494040846824646,0.9029653668403625,-23.0712890625,-1.77001953125,-24.0478515625
0.3573918342590332,1582954694,0,0.8679482340812683,0.07582802325487137,0.47160065174102783,-102.05078125,99.9755859375,72.6318359375
0.3716249465942383,1582954701,1,0.2855127155780792,0.502585768699646,0.8648794293403625,-32.470703125,5.4931640625,-24.71923828125
0.3717188835144043,1582954720,1,0.3118799030780792,0.433738112449646,0.8875845074653625,-34.912109375,13.24462890625,-21.240234375
0.3956279754638672,1582954713,0,0.8821083903312683,0.09389442950487137,0.43912994861602783,-103.08837890625,109.4970703125,81.23779296875
0.3956329822540283,1582954732,0,0.8659951090812683,0.04042763262987137,0.35709869861602783,-93.8720703125,125.91552734375,85.693359375
0.4023430347442627,1582954739,1,0.3189599812030792,0.312644362449646,0.8023794293403625,-19.83642578125,30.76171875,-15.7470703125
0.4173870086669922,1582954751,0,0.8117958903312683,-0.10215049237012863,0.43351471424102783,-84.47265625,133.056640625,78.30810546875
0.4174158573150635,1582954770,0,0.7314736247062683,-0.04428916424512863,0.43595612049102783,-91.1865234375,144.10400390625,57.2509765625
0.44106388092041016,1582954758,1,0.22740724682807922,0.348044753074646,0.8243520855903625,-9.1552734375,39.306640625,-28.3203125
0.4471139907836914,1582954789,0,0.7470986247062683,0.19374793767929077,0.5245791673660278,-91.6748046875,158.02001953125,46.0205078125
0.4624300003051758,1582954794,1,0.035268574953079224,0.564841628074646,0.8707388043403625,-13.61083984375,52.734375,-30.1513671875
0.4756460189819336,1582954808,0,0.7424599528312683,0.22914832830429077,0.5948916673660278,-80.322265625,165.52734375,52.1240234375
0.47567176818847656,1582954827,0,0.7619912028312683,0.38368934392929077,0.8900576829910278,-39.61181640625,184.814453125,64.208984375
0.49701786041259766,1582954813,1,-0.050180643796920776,0.532859206199646,0.7743032574653625,-9.09423828125,78.06396484375,-11.8408203125
0.4970231056213379,1582954832,1,-0.16517087817192078,0.745505690574646,0.8714712262153625,-5.859375,73.974609375,23.3154296875
0.5203878879547119,1582954851,1,-0.052622050046920776,0.677878737449646,0.8582876324653625,-29.9072265625,88.92822265625,38.9404296875
0.5220150947570801,1582954870,1,0.011342793703079224,0.465964674949646,0.7896841168403625,-65.0634765625,87.70751953125,43.5791015625
0.5409500598907471,1582954846,0,0.7280556559562683,0.38002723455429077,0.8636904954910278,-27.9541015625,185.791015625,86.36474609375
0.5409548282623291,1582954882,0,0.7009560465812683,-0.05918174237012863,0.6969424486160278,-60.791015625,154.47998046875,138.48876953125
0.5524177551269531,1582954889,1,0.10631349682807922,0.404441237449646,0.7288931012153625,-81.11572265625,91.97998046875,25.7568359375
0.5671870708465576,1582954901,0,0.8235146403312683,-0.09116416424512863,0.6385928392410278,-82.03125,128.5400390625,97.59521484375
0.5672390460968018,1582954920,0,0.5495888590812683,-0.35483604669570923,0.7992373704910278,-102.294921875,56.15234375,23.5595703125
0.5917079448699951,1582954908,1,0.007436543703079224,0.397117018699646,0.6583364605903625,-92.46826171875,103.3935546875,0.48828125
0.5917129516601562,1582954927,1,-0.16541501879692078,0.251365065574646,0.6973989605903625,-78.4912109375,148.0712890625,-41.3818359375
0.5976138114929199,1582954939,0,0.5571572184562683,0.08559364825487137,0.7040225267410278,-94.6044921875,-24.658203125,-18.06640625
0.6120619773864746,1582954946,1,-0.2603857219219208,0.442283034324646,0.7677114605903625,-55.35888671875,172.91259765625,-57.861328125
0.6274287700653076,1582954958,0,0.6723915934562683,0.17909950017929077,0.7245303392410278,-125.06103515625,5.18798828125,-80.26123046875
0.6284458637237549,1582954977,0,0.5932900309562683,0.15029090642929077,0.6420108079910278,-163.39111328125,13.97705078125,-73.79150390625
0.6449089050292969,1582954965,1,-0.3751318156719208,0.377341628074646,0.9127309918403625,-35.64453125,164.1845703125,-23.37646484375
0.644913911819458,1582954984,1,-0.3411962687969208,0.469870924949646,0.9654653668403625,-46.20361328125,158.69140625,-12.6953125
0.6574690341949463,1582954996,0,0.8088662028312683,0.5321268439292908,0.6256533861160278,-214.7216796875,22.76611328125,-55.72509765625
0.6725039482116699,1582955003,1,-0.4737646281719208,0.407126784324646,0.9637563824653625,-72.509765625,127.8076171875,36.2548828125
0.6948390007019043,1582955015,0,0.8113076090812683,0.24574989080429077,0.5841494798660278,-269.4091796875,-50.72021484375,-5.67626953125
0.6948449611663818,1582955034,0,0.8833290934562683,-0.6260762810707092,-0.03157319128513336,-259.6435546875,-55.96923828125,30.76171875
0.7020659446716309,1582955022,1,-0.5033056735992432,0.1847146898508072,0.8783071637153625,-123.10791015625,34.48486328125,99.609375
0.7172727584838867,1582955053,0,0.9524208903312683,-0.03647666424512863,0.41886627674102783,-205.4443359375,-15.19775390625,53.8330078125
0.7411930561065674,1582955058,1,-0.4569189250469208,0.313132643699646,0.7008169293403625,-64.02587890625,14.22119140625,90.4541015625
0.7411987781524658,1582955077,1,-0.3756200969219208,0.1661600023508072,0.7249868512153625,0.91552734375,-16.4794921875,54.0771484375
0.7488689422607422,1582955072,0,0.8103310465812683,0.01601357012987137,0.45597565174102783,-136.23046875,15.7470703125,59.08203125
0.7488739490509033,1582955091,0,0.6994912028312683,-0.14048057794570923,0.7201358079910278,-95.21484375,29.96826171875,63.96484375
0.7622830867767334,1582955096,1,-0.3089697062969208,0.2389139086008072,0.7249868512153625,37.59765625,-29.72412109375,35.09521484375
0.7972078323364258,1582955115,1,-0.16590330004692078,0.260398268699646,0.6729848980903625,23.37646484375,-45.41015625,38.2080078125
0.7972140312194824,1582955134,1,-0.14881345629692078,0.428367018699646,0.6329458355903625,-2.197265625,-18.1884765625,28.74755859375
0.8058528900146484,1582955110,0,0.7295204997062683,-0.02915244549512863,0.47501862049102783,-45.7763671875,25.634765625,37.9638671875
0.805927038192749,1582955146,0,0.8564736247062683,0.24501746892929077,0.48820221424102783,-23.01025390625,-18.310546875,44.3115234375
0.8223178386688232,1582955153,1,-0.10145017504692078,0.395408034324646,0.9344595074653625,-36.62109375,0.6103515625,13.7939453125
0.8442869186401367,1582955165,0,0.9902626872062683,0.18324989080429077,0.48698151111602783,-1.8310546875,54.0771484375,54.443359375
0.8442950248718262,1582955184,0,0.7182900309562683,0.28554481267929077,0.39982330799102783,14.09912109375,88.0126953125,94.66552734375
0.8522729873657227,1582955172,1,-0.17933103442192078,0.322165846824646,0.9154165387153625,-64.5751953125,-18.4326171875,-22.88818359375
0.8523430824279785,1582955191,1,-0.16956540942192078,0.479392409324646,0.8346059918403625,-62.80517578125,-34.7900390625,-35.82763671875
0.8677477836608887,1582955203,0,0.6924111247062683,0.5389627814292908,0.28043854236602783,-0.9765625,126.52587890625,141.29638671875
0.894665002822876,1582955210,1,-0.13562986254692078,0.599509596824646,0.9266470074653625,-74.21875,-31.73828125,-11.3525390625
0.894669771194458,1582955229,1,-0.09803220629692078,0.455222487449646,0.8560903668403625,-81.11572265625,-17.578125,26.85546875
0.9108438491821289,1582955248,1,-0.21570798754692078,0.355124831199646,0.8233755230903625,-58.4716796875,-6.4697265625,49.13330078125
0.9256720542907715,1582955222,0,0.9096962809562683,0.5824198126792908,0.39689362049102783,-48.33984375,181.5185546875,179.26025390625
0.9257009029388428,1582955241,0,0.9175087809562683,0.14662879705429077,0.7352725267410278,-119.44580078125,157.89794921875,221.61865234375
0.9273180961608887,1582955260,0,0.7759072184562683,0.14882606267929077,0.5665713548660278,-154.47998046875,128.47900390625,263.427734375
0.9273858070373535,1582955279,0,0.7329384684562683,-0.10605674237012863,0.5812197923660278,-138.3056640625,121.52099609375,224.4873046875
0.9459228515625,1582955267,1,-0.3282568156719208,0.378074049949646,0.9122427105903625,-42.1142578125,-7.4462890625,47.18017578125
0.9459290504455566,1582955286,1,-0.3397314250469208,0.491599440574646,0.9578970074653625,-50.4150390625,-22.27783203125,29.72412109375
0.9560620784759521,1582955298,0,0.7282997965812683,-0.33994346857070923,0.6080752611160278,-107.7880859375,123.779296875,170.654296875
0.9937748908996582,1582955317,0,0.8176552653312683,-0.31162315607070923,0.7130557298660278,-46.32568359375,138.97705078125,88.5009765625
0.9948019981384277,1582955336,0,0.9472939372062683,-0.14560753107070923,0.7335635423660278,-13.36669921875,136.90185546875,34.5458984375
1.000795841217041,1582955322,1,-0.17151853442192078,0.410544753074646,0.9591177105903625,-47.8515625,-58.10546875,36.865234375
1.0008230209350586,1582955341,1,-0.2979833781719208,0.515525221824646,0.9786489605903625,-33.63037109375,-43.76220703125,48.2177734375
1.0180928707122803,1582955355,0,0.9287392497062683,0.04262489825487137,0.8671084642410278,-36.2548828125,154.1748046875,13.61083984375
1.0410990715026855,1582955360,1,-0.3643896281719208,0.623435378074646,1.0050162076950073,-54.8095703125,-58.16650390625,26.7333984375
1.041105031967163,1582955379,1,-0.2911474406719208,0.431052565574646,1.0286978483200073,-81.60400390625,-87.82958984375,-1.220703125
1.0472509860992432,1582955374,0,0.9548622965812683,-0.23203331232070923,0.7892276048660278,-62.92724609375,157.3486328125,26.7333984375
1.0610859394073486,1582955398,1,-0.10706540942192078,0.1634744554758072,1.0208853483200073,-109.375,-113.83056640625,-24.71923828125
1.0757131576538086,1582955410,0,0.8569619059562683,-0.06382041424512863,1.1422549486160278,-112.12158203125,157.8369140625,56.09130859375
1.07578706741333,1582955429,0,0.8623329997062683,-0.01743369549512863,1.0231143236160278,-104.6142578125,106.0791015625,78.30810546875
1.097398042678833,1582955417,1,-0.042856425046920776,0.10854281485080719,0.9535024762153625,-101.806640625,-75.50048828125,-19.22607421875
1.097402811050415,1582955436,1,-0.08997556567192078,0.01967562735080719,1.0604361295700073,-71.10595703125,-34.423828125,5.615234375
1.1056897640228271,1582955448,0,1.035672903060913,-0.07236533612012863,0.8065615892410278,-97.22900390625,97.5341796875,70.00732421875
1.1222679615020752,1582955455,1,-0.08020994067192078,-0.00034390389919281006,1.1522330045700073,-50.10986328125,-23.13232421875,26.79443359375
1.1451969146728516,1582955467,0,0.9260537028312683,-0.02915244549512863,0.9857608079910278,-64.27001953125,97.22900390625,99.30419921875
1.145205020904541,1582955486,0,0.8225380778312683,-0.06357627362012863,1.0402041673660278,-18.9208984375,105.77392578125,137.87841796875
1.152336835861206,1582955474,1,-0.040415018796920776,0.05263461172580719,1.2025259733200073,-41.50390625,-53.1005859375,40.10009765625
1.15242600440979,1582955493,1,0.031606465578079224,-0.03305874764919281,1.1441763639450073,-44.98291015625,-81.11572265625,29.6630859375
1.167201042175293,1582955505,0,0.5180947184562683,-0.08017783612012863,0.9415713548660278,4.2724609375,126.28173828125,130.126953125
1.193640947341919,1582955512,1,0.09728029370307922,0.06191195547580719,1.0841177701950073,-36.865234375,-75.37841796875,8.60595703125
1.19364595413208,1582955531,1,0.3023584187030792,0.08901156485080719,1.0589712858200073,-18.00537109375,-17.4560546875,-8.6669921875
1.1984069347381592,1582955524,0,0.5200478434562683,-0.0030293986201286316,0.8085147142410278,-5.43212890625,131.65283203125,43.0908203125
1.198410987854004,1582955543,0,0.7182900309562683,-0.0025411173701286316,0.8480654954910278,-28.86962890625,139.83154296875,10.43701171875
1.227186918258667,1582955562,0,0.6111122965812683,-0.13608604669570923,0.9188662767410278,-35.94970703125,154.296875,10.80322265625
1.2458791732788086,1582955550,1,-0.0013525187969207764,0.01894320547580719,1.0318716764450073,10.92529296875,39.794921875,-23.3154296875
1.2560338973999023,1582955581,0,0.6213662028312683,-0.02695517987012863,1.0511904954910278,-2.8076171875,186.34033203125,16.90673828125
1.2561159133911133,1582955600,0,0.5749794840812683,0.04262489825487137,0.8983584642410278,2.685546875,212.46337890625,17.76123046875
1.270698070526123,1582955586,1,-0.2721044719219208,-0.00400601327419281,1.0350455045700073,-1.3427734375,0.18310546875,22.52197265625
1.2707669734954834,1582955605,1,-0.13392087817192078,0.02529086172580719,0.9994009137153625,4.33349609375,-37.59765625,12.3291015625
1.2960798740386963,1582955619,0,0.5959755778312683,0.11904091387987137,0.7350283861160278,-27.7099609375,204.65087890625,6.4697265625
1.296086072921753,1582955638,0,0.5232216715812683,0.08730263262987137,0.7538272142410278,-73.6083984375,186.4013671875,5.92041015625
1.3008337020874023,1582955624,1,-0.06287595629692078,0.08241976797580719,0.9981802105903625,40.283203125,-52.24609375,-5.615234375
1.300933837890625,1582955643,1,0.004506856203079224,0.1390603929758072,0.9683950543403625,61.34033203125,-57.2509765625,-5.126953125
1.3410968780517578,1582955662,1,0.045034199953079224,0.1878885179758072,0.9405630230903625,65.0634765625,-44.921875,7.2021484375
1.3411028385162354,1582955681,1,0.017446309328079224,0.2479471117258072,0.9281118512153625,60.4248046875,-21.8505859375,10.19287109375
1.3464488983154297,1582955674,0,0.5278603434562683,0.09413857012987137,0.7330752611160278,-106.8115234375,158.3251953125,18.4326171875
1.34645414352417,1582955693,0,0.4360634684562683,0.04384560137987137,0.7154971361160278,-117.00439453125,190.73486328125,15.0146484375
1.3606009483337402,1582955700,1,-0.037729471921920776,0.285300612449646,0.9071157574653625,49.560546875,-12.6953125,6.40869140625
1.3756070137023926,1582955712,0,0.2126747965812683,-0.10117392987012863,0.8375674486160278,-107.91015625,239.501953125,21.97265625
1.3974978923797607,1582955719,1,-0.030161112546920776,0.291159987449646,0.9442251324653625,30.6396484375,-15.5029296875,-0.91552734375
1.3975028991699219,1582955738,1,-0.053842753171920776,0.277488112449646,0.9322622418403625,15.56396484375,-11.3525390625,-6.40869140625
1.4056878089904785,1582955731,0,0.3713662028312683,0.05507607012987137,0.7306338548660278,-109.2529296875,253.11279296875,29.84619140625
1.4057209491729736,1582955750,0,0.4951454997062683,-0.31821495294570923,0.5931826829910278,-42.724609375,176.025390625,109.55810546875
1.4207251071929932,1582955757,1,-0.10193845629692078,0.297507643699646,0.8663442730903625,-3.0517578125,-5.4931640625,-6.04248046875
1.4434230327606201,1582955769,0,0.4021279215812683,0.32143348455429077,0.7233096361160278,-15.7470703125,125.67138671875,117.85888671875
1.4434289932250977,1582955788,0,0.3811318278312683,0.03090614825487137,0.9479190111160278,-54.38232421875,103.02734375,110.53466796875
1.4506189823150635,1582955776,1,-0.16150876879692078,0.374411940574646,0.8941763043403625,-8.60595703125,-5.0048828125,4.7607421875
1.4672157764434814,1582955807,0,0.4441201090812683,-0.008888773620128632,0.9286319017410278,-114.31884765625,80.99365234375,102.72216796875
1.4931190013885498,1582955795,1,-0.16492673754692078,0.358298659324646,0.9198110699653625,-16.17431640625,-17.39501953125,22.705078125
1.4931237697601318,1582955814,1,-0.07410642504692078,0.2147439867258072,0.9952505230903625,-22.3388671875,-42.41943359375,14.09912109375
1.4983208179473877,1582955826,0,0.4507119059562683,-0.08139853924512863,1.0970889329910278,-121.88720703125,111.4501953125,100.7080078125
1.4983267784118652,1582955845,0,0.2370888590812683,-0.04575400799512863,1.1097842454910278,-86.5478515625,181.70166015625,50.84228515625
1.5126731395721436,1582955850,1,0.14171388745307922,-0.01474820077419281,0.8680532574653625,-20.01953125,-19.287109375,-41.56494140625
1.527141809463501,1582955864,0,0.1513954997062683,-0.18100792169570923,1.2836123704910278,-63.29345703125,158.447265625,-16.9677734375
1.5469119548797607,1582955869,1,-0.054331034421920776,0.11757601797580719,0.7489126324653625,41.8701171875,52.79541015625,-53.466796875
1.5469169616699219,1582955888,1,0.041616231203079224,0.398093581199646,0.7535513043403625,85.14404296875,22.52197265625,42.6025390625
1.5574429035186768,1582955883,0,0.2456337809562683,-0.02622275799512863,1.1761904954910278,-30.517578125,71.96044921875,-67.0166015625
1.5575108528137207,1582955902,0,0.4321572184562683,0.02895302325487137,1.1053897142410278,7.14111328125,68.54248046875,-96.86279296875
1.5725388526916504,1582955907,1,-0.043832987546920776,0.565574049949646,0.8795278668403625,26.18408203125,59.9365234375,93.68896484375
1.5952558517456055,1582955938,0,0.7236611247062683,0.5545877814292908,1.5084658861160278,-45.71533203125,71.533203125,32.04345703125
1.6017680168151855,1582955926,1,-0.18323728442192078,0.443503737449646,0.9122427105903625,-5.31005859375,41.015625,98.93798828125
1.6017858982086182,1582955945,1,-0.19422361254692078,0.414206862449646,0.9029653668403625,-26.611328125,19.34814453125,76.904296875
1.6173677444458008,1582955957,0,0.4983193278312683,0.44838660955429077,1.3780947923660278,-105.16357421875,82.94677734375,105.46875
1.6458840370178223,1582955976,0,0.5896279215812683,0.47304481267929077,1.4376651048660278,-151.18408203125,128.90625,132.8125
1.6493198871612549,1582955995,0,0.3283974528312683,0.49013465642929077,1.1703311204910278,-234.9853515625,183.04443359375,151.79443359375
1.661517858505249,1582955964,1,-0.20569822192192078,0.347312331199646,0.9647329449653625,-42.17529296875,33.26416015625,57.31201171875
1.6615519523620605,1582955983,1,-0.22303220629692078,0.410056471824646,1.0189322233200073,-34.72900390625,35.58349609375,39.6728515625
1.6615591049194336,1582956002,1,-0.2730810344219208,0.436179518699646,1.1053580045700073,-30.82275390625,27.83203125,28.86962890625
1.6770939826965332,1582956014,0,0.3152138590812683,0.19618934392929077,1.3195010423660278,-291.93115234375,179.931640625,169.3115234375
1.6978158950805664,1582956021,1,-0.2904150187969208,0.477683424949646,1.1131705045700073,-25.93994140625,7.9345703125,15.2587890625
1.6978209018707275,1582956040,1,-0.3131200969219208,0.474753737449646,0.9742544293403625,-29.4189453125,-1.3427734375,6.2255859375
1.705899953842163,1582956033,0,0.08181542903184891,0.014548726379871368,1.4056826829910278,-272.03369140625,110.7177734375,172.8515625
1.7059669494628906,1582956052,0,0.2417275309562683,-0.24057823419570923,1.4000674486160278,-211.42578125,75.62255859375,174.9267578125
1.7429828643798828,1582956071,0,0.3315712809562683,-0.33676964044570923,1.0536319017410278,-122.49755859375,72.265625,194.4580078125
1.7439508438110352,1582956090,0,0.012235350906848907,-0.20566612482070923,0.9278994798660278,7.62939453125,156.92138671875,144.47021484375
1.7522907257080078,1582956059,1,-0.4862158000469208,0.425681471824646,0.9769399762153625,-50.9033203125,2.99072265625,58.59375
1.7523260116577148,1582956078,1,-0.2601415812969208,0.1280740648508072,0.9752309918403625,-70.61767578125,-71.10595703125,79.65087890625
1.7676360607147217,1582956109,0,-0.07394628971815109,-0.02060752362012863,1.1647158861160278,41.6259765625,164.9169921875,87.0361328125
1.7930681705474854,1582956114,1,-0.16150876879692078,0.300925612449646,0.9781606793403625,-22.216796875,-128.41796875,6.7138671875
1.7972559928894043,1582956128,0,0.06912011653184891,0.16298621892929077,1.1854678392410278,11.474609375,155.6396484375,85.02197265625
1.797287940979004,1582956147,0,-0.04611425846815109,0.01772255450487137,1.2179385423660278,-31.43310546875,180.2978515625,90.2099609375
1.8107850551605225,1582956133,1,0.008168965578079224,0.454490065574646,0.9517934918403625,-46.32568359375,-215.33203125,11.53564453125
1.8108248710632324,1582956152,1,0.08312013745307922,0.329245924949646,0.9493520855903625,-70.73974609375,-195.3125,46.93603515625
1.8259239196777344,1582956166,0,-0.0011923834681510925,0.011130757629871368,1.1793643236160278,-49.37744140625,180.11474609375,119.68994140625
1.8458149433135986,1582956171,1,0.3751123249530792,0.2047342211008072,0.7315786480903625,-59.87548828125,-144.53125,66.7724609375
1.8458209037780762,1582956190,1,0.3834131062030792,0.2127908617258072,0.8910024762153625,-36.43798828125,-43.8232421875,54.0771484375
1.8559587001800537,1582956202,0,0.07327050715684891,0.007224507629871368,1.1464053392410278,-60.11962890625,175.78125,91.61376953125
1.871032953262329,1582956209,1,0.18004396557807922,0.1881326586008072,0.9854848980903625,-42.48046875,-14.22119140625,7.4462890625
1.8943078517913818,1582956221,0,0.029813475906848907,-0.08188682049512863,1.1371279954910278,-63.41552734375,173.64501953125,87.890625
1.8943140506744385,1582956240,0,-0.04147558659315109,-0.05405478924512863,1.0983096361160278,-69.82421875,162.2314453125,107.97119140625
1.9008738994598389,1582956228,1,0.12267091870307922,0.2132791429758072,0.9666860699653625,-41.1376953125,-17.578125,-3.5400390625
1.9009099006652832,1582956247,1,0.09630373120307922,0.1754373461008072,0.9505727887153625,-31.55517578125,-21.97265625,-7.62939453125
1.9157629013061523,1582956259,0,-0.04977636784315109,0.03090614825487137,1.0758486986160278,-86.5478515625,158.5693359375,110.29052734375
1.9405059814453125,1582956266,1,0.11241701245307922,0.2315896898508072,0.9527700543403625,-34.11865234375,-22.03369140625,-11.1083984375
1.9480540752410889,1582956278,0,-0.029024414718151093,0.05824989825487137,1.0389834642410278,-113.34228515625,178.1005859375,92.22412109375
1.9608089923858643,1582956285,1,0.07262209057807922,0.2303689867258072,0.9029653668403625,-49.072265625,-31.6162109375,-6.103515625
1.9608509540557861,1582956304,1,0.037954121828079224,0.2262185961008072,0.8624380230903625,-75.86669921875,-43.15185546875,-9.33837890625
1.9756591320037842,1582956297,0,-0.008028320968151093,0.004050679504871368,0.9779483079910278,-128.72314453125,191.10107421875,67.9931640625
1.9757111072540283,1582956316,0,-0.05734472721815109,-0.01914267987012863,0.9669619798660278,-136.1083984375,184.814453125,35.0341796875
1.9978151321411133,1582956323,1,0.07115724682807922,0.1869119554758072,0.8914907574653625,-76.96533203125,-33.99658203125,9.33837890625
2.0061028003692627,1582956335,0,-0.1591513752937317,-0.06211142987012863,1.0292178392410278,-124.32861328125,150.87890625,20.5078125
2.0061230659484863,1582956354,0,-0.1503623127937317,-0.03745322674512863,1.0626651048660278,-117.49267578125,125.0,23.25439453125
2.0205609798431396,1582956342,1,0.07359865307807922,0.1717752367258072,0.9388540387153625,-68.78662109375,-29.6630859375,16.54052734375
2.0453100204467773,1582956373,0,-0.1435263752937317,-0.05551963299512863,1.1320010423660278,-128.5400390625,119.5068359375,9.3994140625
2.0522477626800537,1582956378,1,0.058461934328079224,0.12026156485080719,0.9522817730903625,-67.68798828125,-50.23193359375,26.67236328125
2.052277088165283,1582956397,1,0.06651857495307922,0.09657992422580719,0.9801138043403625,-75.1953125,-61.70654296875,23.37646484375
2.067244052886963,1582956392,0,-0.1855185627937317,-0.06504111737012863,1.1486026048660278,-143.9208984375,132.62939453125,-2.0751953125
2.067305088043213,1582956411,0,-0.2751181721687317,-0.13950401544570923,1.1600772142410278,-153.74755859375,138.36669921875,-19.1650390625
2.0927979946136475,1582956416,1,0.07823732495307922,0.07973422110080719,0.9940298199653625,-82.45849609375,-81.48193359375,20.69091796875
2.0980498790740967,1582956430,0,-0.3566611409187317,-0.20175987482070923,1.1747256517410278,-148.86474609375,132.8125,-22.94921875
2.1114258766174316,1582956435,1,0.08678224682807922,0.09438265860080719,1.0147818326950073,-90.2099609375,-92.34619140625,28.62548828125
2.111492872238159,1582956454,1,0.11656740307807922,0.07997836172580719,1.0465201139450073,-98.20556640625,-102.1728515625,62.01171875
2.12721586227417,1582956466,0,-0.3857138752937317,-0.30234581232070923,1.3121768236160278,-109.31396484375,100.830078125,16.17431640625
2.145563840866089,1582956473,1,0.19762209057807922,0.01723422110080719,1.0265005826950073,-98.876953125,-108.642578125,88.5009765625
2.157303810119629,1582956485,0,-0.3324912190437317,-0.20542198419570923,1.3541690111160278,-92.4072265625,111.81640625,13.97705078125
2.1573357582092285,1582956504,0,-0.4233115315437317,-0.30796104669570923,1.4340029954910278,-54.0771484375,71.77734375,2.74658203125
2.1723170280456543,1582956492,1,0.2764795124530792,-0.04331265389919281,1.0472525358200073,-96.6796875,-106.4453125,94.42138671875
2.1723639965057373,1582956511,1,0.3941552937030792,-0.1263204663991928,1.1685904264450073,-79.28466796875,-81.6650390625,83.80126953125
2.1960809230804443,1582956523,0,-0.3705771565437317,-0.02842002362012863,1.3946963548660278,-30.94482421875,56.21337890625,50.4150390625
2.20241379737854,1582956530,1,0.3648584187030792,-0.1375509351491928,1.1849478483200073,-34.7900390625,-45.7763671875,36.80419921875
2.202441930770874,1582956549,1,0.3817041218280792,-0.08896695077419281,1.3953970670700073,22.8271484375,-18.24951171875,29.47998046875
2.2182438373565674,1582956542,0,-0.3444541096687317,0.02626747637987137,1.6591006517410278,-34.36279296875,81.9091796875,43.9453125
2.2182509899139404,1582956561,0,-0.3683798909187317,0.06825966387987137,1.4943057298660278,-58.16650390625,129.21142578125,57.4951171875
2.241025924682617,1582956568,1,0.5501611232757568,0.00771273672580719,1.4041861295700073,85.5712890625,-16.17431640625,16.78466796875
2.248594045639038,1582956580,0,-0.4958212971687317,0.07289833575487137,1.4357119798660278,-69.03076171875,109.43603515625,80.9326171875
2.24859881401062,1582956599,0,-0.4770224690437317,0.03041786700487137,1.5443545579910278,-49.62158203125,80.50537109375,93.32275390625
2.262281894683838,1582956587,1,0.5701806545257568,0.1390603929758072,1.4547232389450073,117.431640625,-21.1181640625,-3.0517578125
2.262303113937378,1582956606,1,0.4078271687030792,0.317771315574646,1.5638540983200073,68.115234375,-54.50439453125,-1.708984375
2.2771530151367188,1582956618,0,-0.4770224690437317,-0.05674033612012863,1.4708682298660278,-33.447265625,72.20458984375,106.38427734375
2.305375099182129,1582956637,0,-0.4425986409187317,-0.013283304870128632,1.5226260423660278,-1.52587890625,43.02978515625,127.5634765625
2.3069088459014893,1582956656,0,-0.3217490315437317,0.06703896075487137,1.4632998704910278,18.1884765625,74.15771484375,127.197265625
2.3208558559417725,1582956642,1,0.4695947468280792,0.10781039297580719,1.4869498014450073,-11.16943359375,-90.14892578125,-33.38623046875
2.320918083190918,1582956661,1,0.4913232624530792,0.04506625235080719,1.3692740201950073,4.638671875,-111.81640625,-55.2978515625
2.3434879779815674,1582956675,0,-0.3632529377937317,0.05849403887987137,1.2594424486160278,20.1416015625,113.70849609375,118.408203125
2.3508927822113037,1582956680,1,0.5110986232757568,-0.00400601327419281,1.2381705045700073,47.36328125,-121.15478515625,-82.275390625
2.350958824157715,1582956699,1,0.4698388874530792,0.02040804922580719,1.0672720670700073,79.52880859375,-115.8447265625,-102.96630859375
2.3656458854675293,1582956694,0,-0.3498252034187317,0.02724403887987137,1.1559268236160278,32.16552734375,105.77392578125,108.58154296875
2.3912899494171143,1582956718,1,0.4434716999530792,0.03407992422580719,0.8900259137153625,91.796875,-106.75048828125,-96.37451171875
2.398599863052368,1582956730,0,-0.3678916096687317,0.05556435137987137,1.0016299486160278,48.2177734375,82.3974609375,83.67919921875
2.3986048698425293,1582956749,0,-0.3241904377937317,0.03603310137987137,0.9086123704910278,48.095703125,78.30810546875,71.1669921875
2.4106781482696533,1582956737,1,0.4031884968280792,0.02602328360080719,0.8160513043403625,90.576171875,-98.32763671875,-103.515625
2.410762071609497,1582956756,1,0.4398095905780792,0.07094515860080719,0.7430532574653625,78.7353515625,-104.00390625,-91.552734375
2.4255759716033936,1582956768,0,-0.2858603596687317,0.04067177325487137,0.8238955736160278,29.78515625,84.1064453125,60.05859375
2.446392774581909,1582956775,1,0.3414209187030792,0.03993929922580719,0.5284536480903625,45.0439453125,-110.90087890625,-73.3642578125
2.4558069705963135,1582956787,0,-0.2585166096687317,-0.004005961120128632,0.7631045579910278,17.2119140625,90.576171875,48.583984375
2.455838918685913,1582956806,0,-0.3229697346687317,-0.04184775799512863,0.6781436204910278,4.69970703125,93.017578125,47.2412109375
2.470728874206543,1582956794,1,0.3748681843280792,0.01210726797580719,0.40906891226768494,25.5126953125,-97.71728515625,-53.77197265625
2.470806121826172,1582956813,1,0.3790185749530792,-0.04380093514919281,0.37757477164268494,9.8876953125,-80.13916015625,-61.70654296875
2.4952189922332764,1582956825,0,-0.3268759846687317,-0.07871299237012863,0.6539736986160278,-4.21142578125,72.32666015625,60.72998046875
2.5006418228149414,1582956832,1,0.3858545124530792,-0.02500210702419281,0.34144195914268494,-18.310546875,-76.416015625,-57.861328125
2.5007078647613525,1582956851,1,0.3538720905780792,-0.03257046639919281,0.25330719351768494,-47.4853515625,-81.6650390625,-45.41015625
2.515681028366089,1582956844,0,-0.2997763752937317,-0.05381064862012863,0.6637393236160278,-13.0615234375,51.69677734375,70.73974609375
2.5157618522644043,1582956863,0,-0.2890341877937317,-0.02256064862012863,0.6676455736160278,-17.76123046875,34.36279296875,63.78173828125
2.541914939880371,1582956870,1,0.3646142780780792,-0.09531460702419281,0.21937163174152374,-67.2607421875,-79.52880859375,-30.82275390625
2.547297716140747,1582956882,0,-0.2184775471687317,-0.04941611737012863,0.7858096361160278,-47.9736328125,21.17919921875,43.5791015625
2.5627007484436035,1582956906,1,0.4239404499530792,-0.1336446851491928,0.34070953726768494,-91.6748046875,-69.4580078125,-55.419921875
2.5771217346191406,1582956901,0,-0.1952841877937317,-0.07114463299512863,0.9139834642410278,-84.77783203125,38.0859375,37.109375
2.577193021774292,1582956920,0,-0.2467978596687317,-0.07822471112012863,0.9188662767410278,-99.12109375,51.81884765625,56.70166015625
2.5965850353240967,1582956925,1,0.5377099514007568,-0.12119351327419281,0.5138052105903625,-102.783203125,-49.49951171875,-30.94482421875
2.607459783554077,1582956939,0,-0.1860068440437317,-0.0027852579951286316,0.9493838548660278,-92.46826171875,46.44775390625,71.83837890625
2.6075439453125,1582956958,0,-0.1911337971687317,0.07973427325487137,0.9794131517410278,-83.43505859375,30.09033203125,65.73486328125
2.6223480701446533,1582956944,1,0.5450341701507568,-0.11655484139919281,0.6153677105903625,-117.24853515625,-51.025390625,-9.46044921875
2.6224188804626465,1582956963,1,0.5972802639007568,-0.1441427320241928,0.7789419293403625,-122.55859375,-45.10498046875,8.1787109375
2.6527099609375,1582956982,1,0.5963037014007568,-0.08896695077419281,0.8346059918403625,-113.8916015625,-39.36767578125,8.7890625
2.652714967727661,1582957001,1,0.6546533107757568,-0.09311734139919281,0.8841665387153625,-103.02734375,-24.7802734375,-13.427734375
2.667170763015747,1582956994,0,-0.1410849690437317,0.20107215642929077,1.0541201829910278,-113.28125,33.0810546875,57.80029296875
2.6672089099884033,1582957013,0,-0.11813574284315109,0.23329871892929077,1.0831729173660278,-138.5498046875,55.0537109375,55.35888671875
2.69330096244812,1582957020,1,0.6942040920257568,-0.01474820077419281,0.9107778668403625,-92.46826171875,-28.74755859375,-19.6533203125
2.6983890533447266,1582957032,0,-0.1408408284187317,0.25380653142929077,1.0997744798660278,-148.98681640625,67.93212890625,56.45751953125
2.7124969959259033,1582957039,1,0.6194970607757568,0.1285623461008072,0.9154165387153625,-86.36474609375,-29.6630859375,-19.22607421875
2.7125120162963867,1582957058,1,0.6204736232757568,0.1407693773508072,0.9535024762153625,-46.32568359375,-11.65771484375,6.53076171875
2.7264668941497803,1582957051,0,-0.1896689534187317,0.24892371892929077,1.0885440111160278,-141.7236328125,60.9130859375,51.20849609375
2.726508855819702,1582957070,0,-0.2260459065437317,0.21791785955429077,1.1256533861160278,-120.42236328125,44.98291015625,46.875
2.747051954269409,1582957077,1,0.6307275295257568,0.1402810961008072,0.9229848980903625,-9.765625,2.8076171875,20.5078125
2.7573230266571045,1582957089,0,-0.2516806721687317,0.24794715642929077,1.1405459642410278,-104.8583984375,38.75732421875,53.77197265625
2.7573399543762207,1582957108,0,-0.2135947346687317,0.27480262517929077,1.1600772142410278,-106.8115234375,39.4287109375,57.2509765625
2.77239990234375,1582957096,1,0.6402490139007568,0.11806429922580719,0.9229848980903625,-6.7138671875,18.12744140625,18.1884765625
2.7724947929382324,1582957115,1,0.6197412014007568,0.1793435961008072,0.9578970074653625,-14.70947265625,27.03857421875,4.94384765625
2.796036958694458,1582957127,0,-0.1904013752937317,0.28993934392929077,1.1869326829910278,-108.58154296875,46.2646484375,62.6220703125
2.8021388053894043,1582957134,1,0.5660302639007568,0.325095534324646,0.9835317730903625,17.333984375,34.423828125,23.98681640625
2.817239761352539,1582957146,0,-0.1801474690437317,0.33827918767929077,1.1930361986160278,-117.1875,57.55615234375,62.1337890625
2.8173210620880127,1582957165,0,-0.2092002034187317,0.29531043767929077,1.2162295579910278,-127.38037109375,73.66943359375,48.15673828125
2.840851068496704,1582957170,1,0.4656884968280792,0.257224440574646,1.0196646451950073,52.24609375,33.63037109375,21.484375
2.8473379611968994,1582957184,0,-0.2380087971687317,0.22304481267929077,1.1915713548660278,-116.69921875,83.55712890625,49.62158203125
2.8624978065490723,1582957189,1,0.4998681843280792,0.2103494554758072,1.0421255826950073,17.578125,20.99609375,13.36669921875
2.862592935562134,1582957208,1,0.5338037014007568,0.1935037523508072,1.0206412076950073,-6.34765625,10.19287109375,8.23974609375
2.877262830734253,1582957203,0,-0.2724326252937317,0.19692176580429077,1.1473819017410278,-99.42626953125,82.03125,65.61279296875
2.8772759437561035,1582957222,0,-0.2856162190437317,0.23525184392929077,1.1278506517410278,-87.2802734375,74.951171875,77.57568359375
2.8973608016967773,1582957227,1,0.5440576076507568,0.10463656485080719,1.1058462858200073,-15.9912109375,-7.62939453125,5.43212890625
2.9060349464416504,1582957258,0,-0.2519248127937317,0.27944129705429077,1.1791201829910278,-104.18701171875,83.984375,63.53759765625
2.920833110809326,1582957246,1,0.6068017482757568,0.03993929922580719,1.0672720670700073,-6.9580078125,-34.3017578125,2.25830078125
2.920914888381958,1582957265,1,0.5753076076507568,0.00868929922580719,1.0179556608200073,-5.2490234375,-27.099609375,-21.42333984375
2.943833827972412,1582957277,0,-0.2778037190437317,0.20839637517929077,1.1781436204910278,-103.33251953125,85.205078125,72.57080078125
2.950730085372925,1582957284,1,0.5391747951507568,0.07826937735080719,0.9762075543403625,-10.80322265625,-23.49853515625,-46.93603515625
2.965867042541504,1582957296,0,-0.2643759846687317,0.21865028142929077,1.1830264329910278,-88.9892578125,76.35498046875,87.5244140625
2.9659547805786133,1582957315,0,-0.2182334065437317,0.28920692205429077,1.1957217454910278,-77.08740234375,67.2607421875,93.32275390625
2.9904119968414307,1582957303,1,0.4832666218280792,0.1793435961008072,0.9325063824653625,-14.34326171875,-24.71923828125,-60.60791015625
2.990417003631592,1582957322,1,0.5020654201507568,0.2472146898508072,0.7913931012153625,1.15966796875,-28.076171875,-56.82373046875
2.997187852859497,1582957334,0,-0.1969931721687317,0.33852332830429077,1.2135440111160278,-76.416015625,63.29345703125,89.2333984375
3.0106430053710938,1582957341,1,0.5137841701507568,0.324363112449646,0.8512075543403625,26.3671875,-28.50341796875,-50.6591796875
3.0107150077819824,1582957360,1,0.4644677937030792,0.307761549949646,0.8214223980903625,42.05322265625,-18.24951171875,-36.43798828125
3.025753974914551,1582957353,0,-0.1864951252937317,0.35048621892929077,1.2379580736160278,-82.763671875,70.9228515625,78.7353515625
3.025783061981201,1582957372,0,-0.1694052815437317,0.30702918767929077,1.2467471361160278,-87.21923828125,79.28466796875,64.453125
3.0474729537963867,1582957379,1,0.4586084187030792,0.275290846824646,0.8558462262153625,41.1376953125,-2.8076171875,-16.357421875
3.055946111679077,1582957391,0,-0.1974814534187317,0.28115028142929077,1.2140322923660278,-80.2001953125,81.72607421875,61.8896484375
3.055961847305298,1582957410,0,-0.2087119221687317,0.29897254705429077,1.1652041673660278,-69.7021484375,74.8291015625,58.53271484375
3.070734977722168,1582957398,1,0.5174462795257568,0.255759596824646,0.8963735699653625,41.015625,4.7607421875,8.4228515625
3.0952048301696777,1582957429,0,-0.1737998127937317,0.29189246892929077,1.1339541673660278,-71.10595703125,74.70703125,52.79541015625
3.100817918777466,1582957434,1,0.5635888576507568,0.1739725023508072,0.8529165387153625,16.357421875,-13.61083984375,4.33349609375
3.1158809661865234,1582957448,0,-0.1615927815437317,0.22573035955429077,1.0658389329910278,-76.84326171875,73.91357421875,48.15673828125
3.115907907485962,1582957467,0,-0.1669638752937317,0.17348426580429077,1.0121279954910278,-76.23291015625,71.96044921875,47.05810546875
3.1415579319000244,1582957453,1,0.6060693264007568,0.02992953360080719,0.8067739605903625,9.6435546875,-24.0478515625,9.46044921875
3.1415629386901855,1582957472,1,0.6163232326507568,0.02773226797580719,0.7535513043403625,21.17919921875,-13.97705078125,-6.591796875
3.1489107608795166,1582957486,0,-0.1935752034187317,0.15444129705429077,0.9611026048660278,-71.4111328125,68.359375,46.32568359375
3.162346124649048,1582957491,1,0.5960595607757568,0.00673617422580719,0.7227895855903625,26.91650390625,-3.2958984375,-19.8974609375
3.162360906600952,1582957510,1,0.5694482326507568,0.01235140860080719,0.7315786480903625,26.3671875,-0.18310546875,-35.5224609375
3.1771199703216553,1582957522,0,-0.1816123127937317,0.08193153887987137,0.9259463548660278,-69.7021484375,64.27001953125,62.01171875
3.197593927383423,1582957529,1,0.5579736232757568,0.07289828360080719,0.7154653668403625,12.0849609375,-6.89697265625,-50.84228515625
3.2072629928588867,1582957541,0,-0.1579306721687317,0.08290810137987137,0.9235049486160278,-76.11083984375,66.10107421875,65.7958984375
3.2073400020599365,1582957560,0,-0.1506064534187317,0.06532997637987137,0.9354678392410278,-82.58056640625,62.07275390625,63.5986328125
3.2200300693511963,1582957548,1,0.5469872951507568,0.11244906485080719,0.7330434918403625,-9.1552734375,-15.68603515625,-45.8984375
3.221651077270508,1582957567,1,0.5645654201507568,0.08876742422580719,0.7025259137153625,-28.99169921875,-20.01953125,-46.08154296875
3.244786024093628,1582957579,0,-0.10910253971815109,0.08608192950487137,0.9571963548660278,-76.7822265625,50.9033203125,65.73486328125
3.2525649070739746,1582957586,1,0.5223290920257568,0.11562289297580719,0.6407583355903625,-38.87939453125,-17.39501953125,-56.45751953125
3.26723575592041,1582957598,0,-0.06271582096815109,0.11635536700487137,1.0143252611160278,-72.57080078125,37.59765625,60.4248046875
3.267307996749878,1582957617,0,-0.04025488346815109,0.15224403142929077,1.0424014329910278,-76.47705078125,39.85595703125,53.8330078125
3.292332887649536,1582957605,1,0.5071923732757568,0.1739725023508072,0.6085317730903625,-30.70068359375,2.25830078125,-64.39208984375
3.292336940765381,1582957624,1,0.4871728718280792,0.261130690574646,0.6388052105903625,-24.59716796875,19.47021484375,-57.373046875
3.2984120845794678,1582957636,0,-0.04391699284315109,0.16103309392929077,1.0714541673660278,-89.90478515625,54.3212890625,44.7998046875
3.312191963195801,1582957643,1,0.4981591999530792,0.318015456199646,0.7183950543403625,-30.82275390625,26.7333984375,-36.1328125
3.327277898788452,1582957655,0,-0.04684668034315109,0.17397254705429077,1.0939151048660278,-96.19140625,56.82373046875,36.4990234375
3.327340841293335,1582957674,0,-0.03610449284315109,0.18813270330429077,1.1322451829910278,-97.71728515625,41.93115234375,26.55029296875
3.346423864364624,1582957662,1,0.4532373249530792,0.357322096824646,0.7992056012153625,-50.84228515625,21.728515625,-16.17431640625
3.3574469089508057,1582957693,0,-0.0011923834681510925,0.19057410955429077,1.2311221361160278,-100.09765625,17.578125,7.75146484375
3.3709850311279297,1582957698,1,0.4695947468280792,0.363181471824646,0.8690298199653625,-86.669921875,-21.42333984375,24.59716796875
3.3710107803344727,1582957717,1,0.5662744045257568,0.319236159324646,0.9947622418403625,-75.98876953125,-23.13232421875,24.23095703125
3.394798755645752,1582957712,0,0.03347558528184891,0.19155067205429077,1.3934756517410278,-104.18701171875,14.404296875,-8.544921875
3.394804000854492,1582957731,0,0.04592675715684891,0.16860145330429077,1.4247256517410278,-108.94775390625,34.85107421875,-10.498046875
3.400730848312378,1582957736,1,0.6226708889007568,0.253806471824646,1.0494498014450073,-64.94140625,-4.69970703125,8.36181640625
3.4154529571533203,1582957750,0,-0.0075400397181510925,0.15712684392929077,1.4095889329910278,-109.55810546875,54.5654296875,-12.451171875
3.440560817718506,1582957755,1,0.5858056545257568,0.306296706199646,1.0699576139450073,-59.63134765625,10.6201171875,2.9296875
3.440566062927246,1582957774,1,0.6099755764007568,0.252829909324646,1.0765494108200073,-67.3828125,5.67626953125,-6.77490234375
3.4465038776397705,1582957786,0,-0.09030371159315109,0.10585732012987137,1.2237979173660278,-99.9755859375,55.60302734375,-15.31982421875
3.460563898086548,1582957793,1,0.6221826076507568,0.2113260179758072,1.0348013639450073,-73.2421875,-9.6435546875,-23.0712890625
3.475583076477051,1582957805,0,-0.1689170002937317,0.11147255450487137,1.1185733079910278,-88.5009765625,46.2646484375,-3.11279296875
3.4756507873535156,1582957824,0,-0.2004111409187317,0.14223426580429077,1.0301944017410278,-84.3505859375,39.48974609375,12.75634765625
3.4985218048095703,1582957812,1,0.5714013576507568,0.1817850023508072,1.0089224576950073,-67.9931640625,-13.0615234375,-48.7060546875
3.498528003692627,1582957831,1,0.4898584187030792,0.1935037523508072,0.9749868512153625,-52.978515625,0.0,-65.97900390625
3.505741834640503,1582957843,0,-0.2519248127937317,0.19325965642929077,0.9672061204910278,-95.947265625,46.7529296875,21.17919921875
3.520817995071411,1582957850,1,0.4078271687030792,0.2049783617258072,0.9725454449653625,-19.71435546875,27.64892578125,-86.7919921875
3.520866870880127,1582957869,1,0.2557275593280792,0.2391580492258072,0.9715688824653625,12.39013671875,57.06787109375,-108.09326171875
3.544095039367676,1582957862,0,-0.2924521565437317,0.19960731267929077,0.9486514329910278,-113.70849609375,52.06298828125,19.95849609375
3.5441019535064697,1582957881,0,-0.3681357502937317,0.17104285955429077,0.9308291673660278,-127.99072265625,53.22265625,21.66748046875
3.550708055496216,1582957888,1,0.10484865307807922,0.328269362449646,1.0592154264450073,15.13671875,50.537109375,-108.154296875
3.565859794616699,1582957900,0,-0.4367392659187317,0.09340614825487137,0.9532901048660278,-129.638671875,51.025390625,28.25927734375
3.5658719539642334,1582957919,0,-0.4860556721687317,0.05824989825487137,0.9730654954910278,-119.7509765625,43.02978515625,46.44775390625
3.59301495552063,1582957907,1,0.043813496828079224,0.366843581199646,1.0824087858200073,-9.6435546875,18.49365234375,-90.9423828125
3.593019962310791,1582957926,1,-0.024057596921920776,0.388327956199646,1.0545767545700073,-41.1376953125,-20.6298828125,-61.46240234375
3.5979421138763428,1582957938,0,-0.5107138752937317,0.05312294512987137,1.0118838548660278,-115.29541015625,38.0859375,57.861328125
3.6248767375946045,1582957957,0,-0.5463584065437317,0.01601357012987137,1.0548526048660278,-116.39404296875,34.423828125,73.3642578125
3.625844955444336,1582957976,0,-0.5724814534187317,-0.01938682049512863,1.0665713548660278,-121.337890625,34.48486328125,93.994140625
3.6459808349609375,1582957962,1,-0.057749003171920776,0.273337721824646,0.9810903668403625,-35.58349609375,-12.63427734375,-16.9677734375
3.6459877490997314,1582957981,1,-0.06434080004692078,0.2230447679758072,0.9713247418403625,-13.12255859375,20.5078125,-8.97216796875
3.6562628746032715,1582957995,0,-0.5827353596687317,-0.02817588299512863,1.0624209642410278,-121.88720703125,37.9638671875,115.41748046875
3.6708319187164307,1582958000,1,-0.07874509692192078,0.1881326586008072,0.9723013043403625,-1.89208984375,40.58837890625,-12.14599609375
3.670862913131714,1582958019,1,-0.12562009692192078,0.2083963304758072,0.9515493512153625,-2.3193359375,46.93603515625,-18.00537109375
3.694614887237549,1582958014,0,-0.5300009846687317,0.0028299763798713684,1.1310244798660278,-127.9296875,45.34912109375,134.94873046875
3.700549840927124,1582958038,1,-0.13758298754692078,0.2318338304758072,0.9542348980903625,-13.85498046875,38.818359375,-19.287109375
3.715812921524048,1582958050,0,-0.5104697346687317,-0.0030293986201286316,1.2308779954910278,-152.52685546875,56.7626953125,117.37060546875
3.7158401012420654,1582958069,0,-0.5199912190437317,-0.13633018732070923,1.2665225267410278,-141.845703125,49.01123046875,131.28662109375
3.741162061691284,1582958057,1,-0.18494626879692078,0.322654128074646,0.9686391949653625,-26.3671875,25.7568359375,-3.11279296875
3.741166830062866,1582958076,1,-0.14295408129692078,0.285300612449646,0.9747427105903625,-30.8837890625,39.24560546875,26.0009765625
3.7485039234161377,1582958088,0,-0.4379599690437317,-0.08872275799512863,1.2692080736160278,-113.8916015625,45.34912109375,178.955078125
3.762319803237915,1582958095,1,-0.08826658129692078,0.263327956199646,0.9810903668403625,-27.099609375,58.4716796875,30.3955078125
3.77715802192688,1582958107,0,-0.3073447346687317,0.05507607012987137,1.3290225267410278,-95.8251953125,47.2412109375,195.86181640625
3.77724289894104,1582958126,0,-0.2204306721687317,0.15126746892929077,1.3964053392410278,-96.435546875,51.94091796875,173.9501953125
3.7969579696655273,1582958114,1,-0.048227518796920776,0.251120924949646,1.0123404264450073,-23.74267578125,73.05908203125,23.4375
3.7969627380371094,1582958133,1,0.0035302937030792236,0.263083815574646,1.0694693326950073,-28.1982421875,74.5849609375,12.75634765625
3.807623863220215,1582958145,0,-0.1950400471687317,0.10219521075487137,1.4823428392410278,-99.30419921875,54.8095703125,153.86962890625
3.822313070297241,1582958152,1,-0.035532206296920776,0.329490065574646,1.1886099576950073,-39.306640625,68.4814453125,5.859375
3.822340965270996,1582958171,1,-0.07410642504692078,0.387351393699646,1.2965201139450073,-28.3203125,78.18603515625,37.04833984375
3.843759775161743,1582958164,0,-0.11056738346815109,0.07118935137987137,1.5204287767410278,-83.43505859375,56.94580078125,169.5556640625
3.8437650203704834,1582958183,0,-0.0009482428431510925,0.14565223455429077,1.5568057298660278,-66.95556640625,61.8896484375,187.92724609375
3.8521389961242676,1582958190,1,-0.053354471921920776,0.295554518699646,1.4220083951950073,-14.58740234375,95.64208984375,63.90380859375
3.8672399520874023,1582958202,0,0.08352441340684891,0.24672645330429077,1.6092959642410278,-53.03955078125,74.8291015625,177.30712890625
3.8917529582977295,1582958226,1,0.040395528078079224,0.2054666429758072,1.5948599576950073,1.708984375,85.14404296875,49.01123046875
3.897691011428833,1582958221,0,0.12356347590684891,0.25307410955429077,1.6161319017410278,-44.921875,83.43505859375,147.64404296875
3.897696018218994,1582958240,0,0.1516396403312683,0.23354285955429077,1.6561709642410278,-36.865234375,86.181640625,120.66650390625
3.9121599197387695,1582958245,1,0.046743184328079224,0.1790994554758072,1.6060904264450073,6.9580078125,58.65478515625,35.94970703125
3.927294969558716,1582958259,0,0.2221962809562683,0.19594520330429077,1.6947451829910278,-28.4423828125,86.12060546875,108.58154296875
3.927363872528076,1582958278,0,0.2893349528312683,0.15785926580429077,1.7257510423660278,-21.17919921875,91.36962890625,98.20556640625
3.946892738342285,1582958264,1,0.029165059328079224,0.1739725023508072,1.5885123014450073,7.4462890625,46.5087890625,28.74755859375
3.9468979835510254,1582958283,1,0.053334981203079224,0.1644510179758072,1.5785025358200073,25.2685546875,53.03955078125,31.06689453125
3.970494031906128,1582958302,1,0.07286623120307922,0.1353982836008072,1.5206412076950073,53.1005859375,63.96484375,30.09033203125
3.9722108840942383,1582958321,1,0.08727052807807922,0.1307596117258072,1.4371451139450073,84.89990234375,66.58935546875,16.2353515625
3.9928970336914062,1582958314,0,0.2588173747062683,0.09584755450487137,1.7181826829910278,-3.90625,94.78759765625,62.31689453125
3.9929018020629883,1582958333,0,0.2734658122062683,0.07192177325487137,1.6805850267410278,12.39013671875,107.48291015625,52.24609375
4.002151012420654,1582958340,1,0.062124043703079224,0.1537088304758072,1.4098013639450073,93.56689453125,57.12890625,5.43212890625
4.017323017120361,1582958352,0,0.2749306559562683,0.08388466387987137,1.6151553392410278,27.28271484375,118.2861328125,51.57470703125
4.041131019592285,1582958359,1,0.057485371828079224,0.1959451586008072,1.3848990201950073,85.9375,39.24560546875,6.2255859375
4.041136980056763,1582958378,1,0.060659199953079224,0.2286600023508072,1.3597525358200073,77.1484375,29.84619140625,10.68115234375
4.047405958175659,1582958371,0,0.2610146403312683,0.13783973455429077,1.5404483079910278,38.63525390625,129.150390625,48.64501953125
4.047456979751587,1582958390,0,0.2409951090812683,0.15444129705429077,1.5048037767410278,41.259765625,130.37109375,33.8134765625
4.060880899429321,1582958397,1,0.10509279370307922,0.2289041429758072,1.2926138639450073,82.21435546875,25.08544921875,19.1650390625
4.077163934707642,1582958409,0,0.2373329997062683,0.14833778142929077,1.4528018236160278,42.05322265625,130.55419921875,27.83203125
4.0772318840026855,1582958428,0,0.2351357340812683,0.15224403142929077,1.4181338548660278,46.630859375,127.62451171875,33.0810546875
4.097954750061035,1582958416,1,0.12120607495307922,0.2074197679758072,1.2462271451950073,99.30419921875,28.01513671875,21.17919921875
4.097960948944092,1582958435,1,0.10094240307807922,0.2274392992258072,1.2223013639450073,114.74609375,27.9541015625,11.474609375
4.107309818267822,1582958447,0,0.2346474528312683,0.16713660955429077,1.3480654954910278,51.1474609375,125.67138671875,33.02001953125
4.122366905212402,1582958454,1,0.08702638745307922,0.2293924242258072,1.1954458951950073,121.337890625,23.193359375,7.50732421875
4.1441919803619385,1582958466,0,0.2478310465812683,0.16274207830429077,1.2782412767410278,49.072265625,125.6103515625,20.56884765625
4.144198894500732,1582958485,0,0.2324501872062683,0.12294716387987137,1.2010928392410278,41.93115234375,133.4228515625,0.67138671875
4.15228796005249,1582958490,1,0.14952638745307922,0.1766580492258072,1.0570181608200073,123.96240234375,5.615234375,12.6953125
4.165683031082153,1582958504,0,0.2036415934562683,0.05263466387987137,1.1505557298660278,39.61181640625,139.16015625,-6.7138671875
4.192939043045044,1582958509,1,0.18468263745307922,0.1371072679758072,0.9369009137153625,128.5400390625,-2.74658203125,10.3759765625
4.19294285774231,1582958528,1,0.19200685620307922,0.12367953360080719,0.8123891949653625,133.544921875,-5.06591796875,-1.5869140625
4.197925806045532,1582958523,0,0.1470009684562683,0.013083882629871368,1.0521670579910278,41.07666015625,144.95849609375,5.43212890625
4.197930097579956,1582958542,0,0.09084863215684891,0.006736226379871368,0.9733096361160278,39.9169921875,143.9208984375,5.43212890625
4.212043046951294,1582958547,1,0.18395021557807922,0.11074008047580719,0.6991079449653625,130.79833984375,-1.28173828125,-15.869140625
4.224992990493774,1582958578,0,0.0005166009068489075,-0.07480674237012863,0.7574893236160278,19.4091796875,136.71875,5.126953125
4.24613094329834,1582958566,1,0.15807130932807922,0.11562289297580719,0.5970571637153625,126.64794921875,2.8076171875,-28.01513671875
4.246134996414185,1582958585,1,0.13341310620307922,0.11318148672580719,0.48597320914268494,121.7041015625,3.84521484375,-40.0390625
4.257537841796875,1582958597,0,-0.05270605534315109,-0.05991416424512863,0.6507998704910278,7.6904296875,129.21142578125,14.6484375
4.272572040557861,1582958604,1,0.11046388745307922,0.1458963304758072,0.38221344351768494,107.72705078125,-1.46484375,-40.0390625
4.2956178188323975,1582958616,0,-0.05856543034315109,-0.05576377362012863,0.5597354173660278,-1.77001953125,120.66650390625,28.9306640625
4.296572923660278,1582958635,0,-0.07345800846815109,-0.02573447674512863,0.46867096424102783,-13.61083984375,109.55810546875,41.8701171875
4.302220106124878,1582958623,1,0.10362794995307922,0.11342562735080719,0.30164703726768494,89.66064453125,-9.21630859375,-39.61181640625
4.302243947982788,1582958642,1,0.10680177807807922,0.10390414297580719,0.22181303799152374,74.70703125,-11.23046875,-47.18017578125
4.317135810852051,1582958654,0,-0.09518652409315109,-0.03427939862012863,0.39762604236602783,-29.35791015625,103.45458984375,48.2177734375
4.341400861740112,1582958661,1,0.10509279370307922,0.12123812735080719,0.14735014736652374,69.4580078125,-8.48388671875,-59.326171875
4.341405868530273,1582958680,1,0.07066896557807922,0.1490701586008072,0.09022124111652374,57.80029296875,-12.451171875,-66.7724609375
4.349369764328003,1582958673,0,-0.1300986409187317,-0.06113486737012863,0.33292877674102783,-43.45703125,97.47314453125,51.26953125
4.34937596321106,1582958692,0,-0.1691611409187317,-0.07431846112012863,0.29459869861602783,-56.2744140625,83.19091796875,56.7626953125
4.362658739089966,1582958699,1,0.054799824953079224,0.1827615648508072,0.03895171359181404,32.1044921875,-22.0947265625,-59.814453125
4.377279043197632,1582958711,0,-0.1467002034187317,-0.03696494549512863,0.25675690174102783,-70.3125,68.2373046875,71.22802734375
4.377338886260986,1582958730,0,-0.09347753971815109,0.01991982012987137,0.25187408924102783,-90.39306640625,51.33056640625,79.77294921875
4.398528099060059,1582958718,1,0.056997090578079224,0.1815408617258072,0.02137358859181404,5.18798828125,-27.03857421875,-61.82861328125
4.407454967498779,1582958749,0,-0.07370214909315109,0.04897255450487137,0.27995026111602783,-112.24365234375,36.0107421875,73.73046875
4.422621965408325,1582958754,1,0.017202168703079224,0.2281717211008072,0.07972319424152374,-26.7333984375,-28.9306640625,-82.45849609375
4.452182769775391,1582958773,1,-0.017465800046920776,0.261618971824646,0.13074858486652374,-45.166015625,-31.73828125,-91.73583984375
4.452219009399414,1582958792,1,-0.051157206296920776,0.287497878074646,0.17567045986652374,-64.8193359375,-36.62109375,-91.9189453125
4.466436862945557,1582958768,0,-0.08761816471815109,0.04213661700487137,0.32340729236602783,-129.39453125,18.98193359375,66.46728515625
4.466547012329102,1582958787,0,-0.08175878971815109,0.02040810137987137,0.38639557361602783,-142.2119140625,7.62939453125,69.2138671875
4.466575860977173,1582958806,0,-0.013887695968151093,0.04970497637987137,0.49821197986602783,-158.50830078125,-9.58251953125,84.04541015625
4.492908716201782,1582958811,1,-0.07044431567192078,0.269919753074646,0.25379547476768494,-82.82470703125,-32.53173828125,-104.00390625
4.4929139614105225,1582958830,1,-0.08411619067192078,0.288230299949646,0.33216461539268494,-90.75927734375,-24.169921875,-120.60546875
4.498177766799927,1582958842,0,0.1313759684562683,0.11513466387987137,0.6840029954910278,-203.4912109375,-25.146484375,69.76318359375
4.512129068374634,1582958849,1,-0.12415525317192078,0.297263503074646,0.42884430289268494,-93.6279296875,-28.62548828125,-125.732421875
4.527340888977051,1582958861,0,0.1382119059562683,0.02968544512987137,0.7731143236160278,-230.712890625,-17.39501953125,37.53662109375
4.527411937713623,1582958880,0,0.08181542903184891,-0.07505088299512863,0.8368350267410278,-244.9951171875,4.21142578125,24.35302734375
4.546036958694458,1582958868,1,-0.12122556567192078,0.310447096824646,0.5509145855903625,-106.99462890625,-49.4384765625,-117.0654296875
4.5460429191589355,1582958887,1,-0.10730955004692078,0.286765456199646,0.6646841168403625,-122.37548828125,-62.68310546875,-116.2109375
4.557454824447632,1582958899,0,0.07156152278184891,-0.12290244549512863,0.8832217454910278,-244.93408203125,12.26806640625,12.14599609375
4.570868015289307,1582958906,1,-0.10584470629692078,0.2022928148508072,0.7767446637153625,-127.44140625,-54.443359375,-119.68994140625
4.596300840377808,1582958918,0,0.11135644465684891,-0.15195518732070923,0.9462100267410278,-242.98095703125,0.3662109375,0.6103515625
4.596307992935181,1582958937,0,0.1501747965812683,-0.20371299982070923,1.1058779954910278,-244.873046875,-23.01025390625,-21.1181640625
4.602428913116455,1582958925,1,-0.06604978442192078,0.1615213304758072,0.8639028668403625,-117.85888671875,-37.65869140625,-128.47900390625
4.602525949478149,1582958944,1,-0.06629392504692078,0.1603006273508072,0.9815786480903625,-109.2529296875,-21.6064453125,-139.58740234375
4.618941068649292,1582958956,0,0.1599404215812683,-0.25229698419570923,1.2421084642410278,-251.40380859375,-28.50341796875,-31.25
4.642122983932495,1582958963,1,-0.13074705004692078,0.1353982836008072,1.1541861295700073,-105.224609375,-12.26806640625,-159.97314453125
4.647252082824707,1582958975,0,0.1760537028312683,-0.22861534357070923,1.3348819017410278,-260.80322265625,-7.87353515625,-28.1982421875
4.647263050079346,1582958994,0,0.2178017497062683,-0.19223839044570923,1.4210635423660278,-276.42822265625,10.498046875,-36.43798828125
4.660786867141724,1582958982,1,-0.21253415942192078,0.11293734610080719,1.3021353483200073,-95.88623046875,-1.0986328125,-184.326171875
4.675992965698242,1582959013,0,0.2458779215812683,-0.21274620294570923,1.5467959642410278,-304.19921875,15.80810546875,-59.26513671875
4.697798013687134,1582959018,1,-0.3734228312969208,0.12074984610080719,1.4803580045700073,-43.51806640625,-10.986328125,-194.3359375
4.697803974151611,1582959037,1,-0.4766943156719208,0.09169711172580719,1.6390494108200073,-29.1748046875,-31.6162109375,-190.85693359375
4.707289934158325,1582959032,0,0.2473427653312683,-0.32749229669570923,1.7294131517410278,-321.77734375,8.11767578125,-83.92333984375
4.707324981689453,1582959051,0,0.1848427653312683,-0.35654503107070923,1.9259463548660278,-314.88037109375,19.22607421875,-93.994140625
4.72236180305481,1582959056,1,-0.6287939548492432,0.07997836172580719,1.7015494108200073,-15.380859375,-57.2509765625,-209.3505859375
4.744074106216431,1582959070,0,0.1374794840812683,-0.33383995294570923,2.0465517044067383,-307.18994140625,41.44287109375,-106.87255859375
4.752501010894775,1582959075,1,-0.7503759860992432,0.05239047110080719,1.7005728483200073,0.8544921875,-76.59912109375,-218.1396484375
4.752577066421509,1582959094,1,-0.8844091892242432,0.06850375235080719,1.6834830045700073,25.0244140625,-96.3134765625,-214.111328125
4.767225980758667,1582959106,0,0.0036904290318489075,-0.43759971857070923,2.1573915481567383,-303.16162109375,86.97509765625,-158.63037109375
4.791062831878662,1582959113,1,-1.0343115329742432,0.09657992422580719,1.7071646451950073,37.17041015625,-115.72265625,-198.486328125
4.7973268032073975,1582959125,0,-0.12033300846815109,-0.5367208123207092,2.1471376419067383,-291.8701171875,108.0322265625,-177.1240234375
4.797335863113403,1582959144,0,-0.2826865315437317,-0.6609883904457092,2.1708192825317383,-264.6484375,115.966796875,-183.2275390625
4.812308073043823,1582959132,1,-1.2362158298492432,0.09316195547580719,1.7144888639450073,45.47119140625,-134.1552734375,-187.19482421875
4.812412977218628,1582959151,1,-1.3416845798492432,0.11098422110080719,1.6807974576950073,51.1474609375,-141.29638671875,-180.96923828125
4.827188014984131,1582959163,0,-0.3669150471687317,-0.7796407341957092,2.2389345169067383,-218.8720703125,105.16357421875,-173.15673828125
4.845953702926636,1582959170,1,-1.3741552829742432,0.11855258047580719,1.6217154264450073,63.3544921875,-138.97705078125,-161.4990234375
4.84595799446106,1582959189,1,-1.4178564548492432,0.10781039297580719,1.6204947233200073,82.45849609375,-114.44091796875,-129.7607421875
4.857485771179199,1582959182,0,-0.4030478596687317,-0.8030782341957092,2.2677431106567383,-174.62158203125,97.65625,-164.97802734375
4.857522010803223,1582959201,0,-0.4516318440437317,-0.7789083123207092,2.2394227981567383,-142.333984375,111.572265625,-167.17529296875
4.87257981300354,1582959208,1,-1.4998877048492432,0.07607211172580719,1.6734732389450073,101.318359375,-83.740234375,-109.4970703125
4.8961570262908936,1582959220,0,-0.4694541096687317,-0.7688985466957092,2.1837587356567383,-131.2255859375,139.09912109375,-162.78076171875
4.896162748336792,1582959239,0,-0.4904502034187317,-0.7859883904457092,2.1998720169067383,-120.1171875,153.80859375,-146.91162109375
4.9022040367126465,1582959227,1,-1.6036474704742432,0.03774203360080719,1.7391470670700073,125.3662109375,-49.1943359375,-94.6044921875
4.902256965637207,1582959246,1,-1.6563818454742432,0.04604281485080719,1.7667349576950073,153.99169921875,-25.0244140625,-74.3408203125
4.917155742645264,1582959258,0,-0.5219443440437317,-0.7950215935707092,2.3004579544067383,-104.1259765625,158.63037109375,-131.103515625
4.945751905441284,1582959277,0,-0.6261923909187317,-0.8340840935707092,2.3895692825317383,-63.232421875,155.1513671875,-125.30517578125
4.948884010314941,1582959296,0,-0.6579306721687317,-0.9783712029457092,2.3656435012817383,-3.7841796875,176.513671875,-120.78857421875
4.962333917617798,1582959282,1,-1.7860205173492432,0.02797640860080719,1.6903189420700073,205.74951171875,-25.390625,-7.080078125
4.977093935012817,1582959315,0,-0.6232627034187317,-1.0706562995910645,2.2718935012817383,41.80908203125,214.53857421875,-105.712890625
4.996856927871704,1582959301,1,-1.7926123142242432,-0.02866421639919281,1.5482290983200073,215.88134765625,-38.02490234375,48.583984375
4.996861934661865,1582959320,1,-1.7454931735992432,-0.06552945077419281,1.4552115201950073,210.205078125,-37.04833984375,89.41650390625
4.9968650341033936,1582959339,1,-1.5841162204742432,-0.2449728101491928,1.3697623014450073,207.09228515625,-26.30615234375,138.18359375
5.0073769092559814,1582959334,0,-0.6508505940437317,-1.2439961433410645,2.0304384231567383,87.158203125,265.869140625,-77.880859375
5.021406888961792,1582959358,1,-1.3368017673492432,-0.378517746925354,1.2515982389450073,217.8955078125,-7.2021484375,163.02490234375
5.043313026428223,1582959370,0,-0.5302451252937317,-1.3621602058410645,1.5370303392410278,160.21728515625,309.99755859375,-1.0986328125
5.043317079544067,1582959389,0,-0.4059775471687317,-1.2989277839660645,1.2797061204910278,194.4580078125,317.626953125,23.01025390625
5.0524938106536865,1582959377,1,-1.1571142673492432,-0.402443528175354,1.0970572233200073,229.00390625,3.84521484375,181.82373046875
5.052576065063477,1582959396,1,-1.0174658298492432,-0.390236496925354,0.9364126324653625,225.89111328125,4.150390625,199.52392578125
5.067188024520874,1582959408,0,-0.2929404377937317,-1.2859883308410645,0.9559756517410278,220.5810546875,337.21923828125,44.86083984375
5.092200994491577,1582959415,1,-0.8734228610992432,-0.388283371925354,0.6859243512153625,210.99853515625,16.7236328125,215.33203125
5.098235845565796,1582959427,0,-0.2904990315437317,-1.2156758308410645,0.7726260423660278,238.037109375,350.09765625,65.36865234375
5.09824013710022,1582959446,0,-0.2861045002937317,-1.1131367683410645,0.5575381517410278,239.44091796875,358.642578125,85.0830078125
5.112198829650879,1582959434,1,-0.5816748142242432,-0.410256028175354,0.44861969351768494,207.58056640625,48.33984375,199.8291015625
5.112231969833374,1582959453,1,-0.4989111125469208,-0.284767746925354,0.30433258414268494,211.9140625,96.00830078125,180.17578125
5.12717604637146,1582959465,0,-0.2258017659187317,-1.0296406745910645,0.36051666736602783,200.86669921875,363.46435546875,101.9287109375
5.145753860473633,1582959472,1,-0.4256689250469208,-0.2195821851491928,0.27381500601768494,208.92333984375,112.97607421875,180.84716796875
5.145759105682373,1582959491,1,-0.23035642504692078,-0.2051778882741928,0.14075835049152374,171.875,116.455078125,177.55126953125
5.157481908798218,1582959484,0,-0.2480185627937317,-0.8853536248207092,0.15983305871486664,138.97705078125,371.4599609375,132.32421875
5.157497882843018,1582959503,0,-0.2377646565437317,-0.7735372185707092,-0.0012997537851333618,86.24267578125,379.94384765625,161.56005859375
5.1724700927734375,1582959510,1,-0.07117673754692078,-0.2342306226491928,0.04310210421681404,128.90625,112.548828125,166.07666015625
5.194809913635254,1582959522,0,-0.1723349690437317,-0.6204610466957092,-0.20564545691013336,18.37158203125,372.98583984375,200.62255859375
5.202149868011475,1582959546,1,0.2681787312030792,-0.352150559425354,-0.06944672763347626,82.6416015625,136.71875,102.72216796875
5.2171831130981445,1582959541,0,-0.09274511784315109,-0.43833214044570923,-0.37361419200897217,-41.68701171875,331.6650390625,231.14013671875
5.21726393699646,1582959560,0,-0.0016806647181510925,-0.30112510919570923,-0.39021575450897217,-72.1435546875,276.611328125,246.15478515625
5.240556716918945,1582959565,1,0.3978174030780792,-0.332375168800354,-0.04820648953318596,76.96533203125,157.5927734375,63.53759765625
5.247265815734863,1582959579,0,0.1545693278312683,-0.11728721112012863,-0.26863372325897217,-92.529296875,205.9326171875,247.61962890625
5.2473061084747314,1582959598,0,0.3025185465812683,0.01723427325487137,-0.10701264441013336,-98.9990234375,160.2783203125,237.1826171875
5.262467861175537,1582959584,1,0.4979150593280792,-0.300392746925354,-0.004261177033185959,75.439453125,170.41015625,32.470703125
5.262497901916504,1582959603,1,0.5303857326507568,-0.1758810132741928,0.07410795986652374,58.16650390625,175.84228515625,17.08984375
5.298390865325928,1582959622,1,0.5147607326507568,-0.1334005445241928,0.13489897549152374,13.3056640625,167.1142578125,10.92529296875
5.2984299659729,1582959641,1,0.5201318264007568,-0.01621304452419281,0.21619780361652374,-36.376953125,151.2451171875,-1.40380859375
5.3073859214782715,1582959634,0,0.4314247965812683,0.14443153142929077,0.11076079308986664,-120.2392578125,111.9384765625,248.10791015625
5.3074119091033936,1582959653,0,0.5625283122062683,0.09999794512987137,0.32145416736602783,-175.23193359375,84.89990234375,254.94384765625
5.322314977645874,1582959660,1,0.5042626857757568,0.07973422110080719,0.21058256924152374,-62.19482421875,138.00048828125,-13.36669921875
5.343824863433838,1582959672,0,0.5891396403312683,0.10781044512987137,0.6727725267410278,-209.65576171875,87.95166015625,240.90576171875
5.35233211517334,1582959679,1,0.4351709187030792,0.2132791429758072,0.27991852164268494,-81.0546875,126.28173828125,-26.9775390625
5.352421998977661,1582959698,1,0.3670556843280792,0.367331862449646,0.29383453726768494,-118.34716796875,106.50634765625,-38.818359375
5.364674806594849,1582959691,0,0.5132119059562683,0.09145302325487137,0.8304873704910278,-202.45361328125,96.5576171875,217.6513671875
5.392262935638428,1582959717,1,0.3172509968280792,0.407615065574646,0.46180328726768494,-158.99658203125,82.82470703125,-9.27734375
5.392269849777222,1582959710,0,0.5220009684562683,0.17397254705429077,0.8192569017410278,-176.1474609375,93.3837890625,205.2001953125
5.397904872894287,1582959729,0,0.5691201090812683,0.36415809392929077,0.6698428392410278,-167.96875,69.76318359375,180.2978515625
5.397910118103027,1582959748,0,0.5661904215812683,0.47841590642929077,0.6659365892410278,-198.2421875,38.26904296875,145.44677734375
5.411509037017822,1582959736,1,0.3519189655780792,0.399070143699646,0.5726431012153625,-194.82421875,51.69677734375,-3.84521484375
5.411593914031982,1582959755,1,0.3885400593280792,0.415915846824646,0.7071645855903625,-203.7353515625,24.96337890625,-21.78955078125
5.425548076629639,1582959767,0,0.5605751872062683,0.45937293767929077,0.8043643236160278,-259.3994140625,18.6767578125,107.2998046875
5.44574499130249,1582959774,1,0.3653466999530792,0.545310378074646,0.7652700543403625,-195.98388671875,0.79345703125,-35.5224609375
5.457580804824829,1582959786,0,0.5088173747062683,0.35268348455429077,0.9999209642410278,-310.4248046875,20.8740234375,76.59912109375
5.457615852355957,1582959805,0,0.4065224528312683,0.23964637517929077,1.2777529954910278,-320.556640625,14.58740234375,53.466796875
5.4723427295684814,1582959810,1,0.4698388874530792,0.575095534324646,0.9754751324653625,-260.80322265625,-28.3203125,-17.333984375
5.495834827423096,1582959824,0,0.2844521403312683,0.15444129705429077,1.4408389329910278,-309.50927734375,0.732421875,40.34423828125
5.5023088455200195,1582959829,1,0.5438134670257568,0.478415846824646,1.1878775358200073,-283.63037109375,-38.0859375,-36.1328125
5.502351999282837,1582959848,1,0.4373681843280792,0.458396315574646,1.2625845670700073,-262.939453125,-23.37646484375,-80.74951171875
5.517281770706177,1582959843,0,0.1775185465812683,0.08657021075487137,1.5856143236160278,-283.69140625,-13.24462890625,37.04833984375
5.5173468589782715,1582959862,0,0.06838769465684891,0.07436317950487137,1.6844912767410278,-283.99658203125,-1.52587890625,43.45703125
5.541748046875,1582959867,1,0.3292138874530792,0.552146315574646,1.2352408170700073,-227.47802734375,8.30078125,-108.7646484375
5.548208951950073,1582959898,0,-0.11349707096815109,0.11000771075487137,1.7584658861160278,-319.9462890625,34.1796875,50.84228515625
5.560780048370361,1582959886,1,0.2579248249530792,0.602927565574646,1.3805044889450073,-186.70654296875,47.119140625,-124.0234375
5.5608367919921875,1582959905,1,0.16734865307807922,0.631736159324646,1.6185415983200073,-146.66748046875,62.98828125,-141.90673828125
5.57702898979187,1582959917,0,-0.1891806721687317,0.13344520330429077,1.9047061204910278,-317.19970703125,34.85107421875,30.21240234375
5.598747968673706,1582959924,1,-0.048715800046920776,0.770163893699646,1.7816275358200073,-123.59619140625,40.52734375,-156.1279296875
5.607383728027344,1582959936,0,-0.3974326252937317,-0.08628135174512863,2.0094423294067383,-289.00146484375,39.12353515625,11.04736328125
5.607440948486328,1582959955,0,-0.5680869221687317,-0.11142783612012863,1.9872256517410278,-274.7802734375,48.40087890625,16.05224609375
5.622231721878052,1582959943,1,-0.21888181567192078,0.845603346824646,1.8270376920700073,-116.63818359375,5.9814453125,-148.4375
5.6223039627075195,1582959962,1,-0.2940771281719208,0.832175612449646,1.8175162076950073,-110.41259765625,-29.96826171875,-143.798828125
5.643808126449585,1582959974,0,-0.7682822346687317,-0.006691507995128632,1.9923526048660278,-268.24951171875,77.33154296875,18.37158203125
5.654536962509155,1582959981,1,-0.5074560642242432,0.949607253074646,1.7310904264450073,-99.853515625,-39.00146484375,-104.06494140625
5.654543876647949,1582960000,1,-0.6170752048492432,0.861960768699646,1.6182974576950073,-75.927734375,-32.16552734375,-116.76025390625
5.667385816574097,1582959993,0,-0.8500693440437317,-0.03257041424512863,1.9689151048660278,-260.07080078125,94.29931640625,24.84130859375
5.667418956756592,1582960012,0,-0.9025595784187317,-0.09629111737012863,1.9769717454910278,-250.06103515625,98.14453125,12.6953125
5.691605091094971,1582960019,1,-0.7620947360992432,0.816550612449646,1.5548208951950073,-52.06298828125,-38.57421875,-144.1650390625
5.697386980056763,1582960031,0,-0.9765341877937317,-0.10898642987012863,2.0023622512817383,-230.65185546875,106.201171875,11.71875
5.713125944137573,1582960038,1,-0.8707373142242432,0.769431471824646,1.4334830045700073,-54.50439453125,-75.1953125,-176.08642578125
5.7267467975616455,1582960050,0,-1.034151315689087,-0.16513878107070923,1.9552432298660278,-196.59423828125,113.95263671875,18.37158203125
5.726806879043579,1582960069,0,-1.059297800064087,-0.18247276544570923,1.8956729173660278,-171.5087890625,113.95263671875,27.77099609375
5.745704889297485,1582960074,1,-1.0575048923492432,0.785300612449646,1.4032095670700073,-91.4306640625,-174.31640625,-137.939453125
5.757339000701904,1582960088,0,-0.4638388752937317,-0.25913292169570923,1.9755069017410278,-160.5224609375,106.14013671875,19.71435546875
5.75737190246582,1582960107,0,-0.6684287190437317,-0.0027852579951286316,2.2338075637817383,-153.13720703125,80.13916015625,-153.50341796875
5.772351980209351,1582960093,1,-2.224497079849243,2.0194315910339355,0.5775259137153625,-68.66455078125,-363.76953125,-37.90283203125
5.7723610401153564,1582960112,1,-1.6368505954742432,0.601706862449646,1.1370962858200073,0.244140625,24.71923828125,30.6396484375
5.794909954071045,1582960126,0,-1.289278268814087,-0.9322286248207092,1.8002139329910278,-54.01611328125,143.5546875,-36.31591796875
5.800658941268921,1582960131,1,-1.1187841892242432,0.596335768699646,1.3409537076950073,-18.798828125,-95.39794921875,-21.484375
5.800686836242676,1582960150,1,-0.9727880954742432,0.547263503074646,1.4271353483200073,-72.08251953125,-214.7216796875,37.353515625
5.819766044616699,1582960162,0,-1.178438425064087,-1.1731953620910645,1.1185733079910278,-52.3681640625,156.982421875,-4.638671875
5.841307878494263,1582960169,1,-0.6348974704742432,0.04750765860080719,1.0672720670700073,-42.54150390625,-179.99267578125,90.51513671875
5.847329139709473,1582960181,0,-0.9179404377937317,-1.0857930183410645,0.9584170579910278,33.8134765625,82.51953125,24.0478515625
5.862507104873657,1582960188,1,-0.029672831296920776,-0.03720913827419281,1.8341177701950073,123.1689453125,-66.5283203125,40.771484375
5.862518072128296,1582960207,1,-0.4569189250469208,-0.674172043800354,0.37244781851768494,112.12158203125,77.08740234375,25.390625
5.8775999546051025,1582960200,0,-0.6464560627937317,-0.9048848748207092,0.9357119798660278,94.66552734375,86.60888671875,75.5615234375
5.877604961395264,1582960219,0,-0.2533896565437317,-0.5274434685707092,0.6727725267410278,80.13916015625,118.59130859375,115.8447265625
5.898262023925781,1582960226,1,0.08189943432807922,-0.315285325050354,1.1136587858200073,126.0986328125,19.95849609375,14.22119140625
5.905853033065796,1582960238,0,-0.11569433659315109,-0.36020714044570923,0.7897158861160278,66.40625,140.5029296875,124.6337890625
5.905941963195801,1582960257,0,-0.06125097721815109,-0.24008995294570923,0.6600772142410278,91.30859375,112.85400390625,104.67529296875
5.9224019050598145,1582960245,1,0.044790059328079224,-0.259132981300354,0.8861196637153625,116.76025390625,-81.298828125,56.7626953125
5.922436952590942,1582960264,1,0.3128564655780792,-0.412453293800354,0.6646841168403625,90.39306640625,-98.5107421875,31.3720703125
5.944077730178833,1582960276,0,0.021268554031848907,-0.12070517987012863,0.7845889329910278,159.48486328125,70.61767578125,106.4453125
5.95221209526062,1582960283,1,0.18028810620307922,-0.1900411695241928,0.5164907574653625,100.5859375,-56.21337890625,10.6201171875
5.967171907424927,1582960295,0,0.0017373040318489075,0.06459755450487137,0.7308779954910278,235.90087890625,52.79541015625,95.76416015625
5.967235803604126,1582960314,0,-0.06906347721815109,0.07875771075487137,0.5878115892410278,293.88427734375,56.15234375,102.5390625
5.991437911987305,1582960302,1,0.18956544995307922,-0.06552945077419281,0.40858063101768494,129.45556640625,-10.986328125,50.59814453125
5.997431755065918,1582960333,0,-0.06100683659315109,0.14467567205429077,0.34220612049102783,293.5791015625,87.0361328125,122.86376953125
6.010701894760132,1582960338,1,0.24107912182807922,-0.01865445077419281,0.17713530361652374,192.5048828125,97.5341796875,20.1416015625
6.010769844055176,1582960357,1,0.19542482495307922,0.1270975023508072,0.27869781851768494,172.8515625,105.52978515625,21.17919921875
6.0274598598480225,1582960352,0,0.06448144465684891,0.20497840642929077,0.09391508996486664,213.5009765625,123.779296875,126.5869140625
6.0275537967681885,1582960371,0,0.10574121028184891,0.26479285955429077,-0.017657175660133362,94.90966796875,101.6845703125,114.013671875
6.045019865036011,1582960376,1,0.2803857624530792,0.1668924242258072,0.27405914664268494,125.42724609375,73.486328125,52.734375
6.05745005607605,1582960390,0,0.1396767497062683,0.31948035955429077,0.17228423058986664,13.24462890625,66.89453125,104.248046875
6.072160005569458,1582960395,1,0.3079736530780792,0.1712869554758072,0.25257477164268494,62.8662109375,50.47607421875,76.23291015625
6.072236061096191,1582960414,1,-0.3507177531719208,0.625876784324646,0.12781889736652374,-47.05810546875,10.8642578125,125.6103515625
6.096020936965942,1582960426,0,0.10549706965684891,0.28383582830429077,0.7621279954910278,-36.4990234375,90.51513671875,107.666015625
6.102154016494751,1582960433,1,0.15196779370307922,0.294333815574646,0.16517241299152374,-72.57080078125,7.8125,147.27783203125
6.117685079574585,1582960445,0,0.1636025309562683,0.28676551580429077,0.6219912767410278,-62.80517578125,124.45068359375,153.80859375
6.117716073989868,1582960464,0,0.2224404215812683,0.26796668767929077,0.49064362049102783,-91.24755859375,131.591796875,145.3857421875
6.141049861907959,1582960452,1,0.19298341870307922,0.2162088304758072,0.7679556012153625,-36.56005859375,41.80908203125,31.43310546875
6.141053915023804,1582960471,1,0.2645166218280792,0.2313455492258072,0.7518423199653625,6.04248046875,63.720703125,52.490234375
6.1484198570251465,1582960483,0,0.2112099528312683,0.33022254705429077,0.5614444017410278,-118.7744140625,115.41748046875,112.3046875
6.162296772003174,1582960490,1,0.2903955280780792,0.307517409324646,0.8509634137153625,-38.4521484375,22.27783203125,40.1611328125
6.162337779998779,1582960509,1,0.4505517780780792,0.334128737449646,0.9132192730903625,-91.24755859375,-14.70947265625,15.68603515625
6.177273988723755,1582960502,0,0.12209863215684891,0.25258582830429077,0.5944033861160278,-150.146484375,65.97900390625,65.7958984375
6.1773247718811035,1582960521,0,0.07961816340684891,0.17324012517929077,0.8153506517410278,-177.978515625,-4.2724609375,79.65087890625
6.196857929229736,1582960528,1,0.2672021687030792,0.301413893699646,0.5284536480903625,-89.4775390625,-0.48828125,21.66748046875
6.207308053970337,1582960540,0,-0.07663183659315109,0.35170692205429077,1.1896182298660278,-234.92431640625,63.04931640625,101.86767578125
6.207348108291626,1582960559,0,0.027127929031848907,0.21230262517929077,1.0397158861160278,-235.2294921875,67.9931640625,111.02294921875
6.222371816635132,1582960547,1,0.18639162182807922,0.473777174949646,0.9596059918403625,-100.64697265625,47.4853515625,-41.50390625
6.222412824630737,1582960566,1,0.16832521557807922,0.474509596824646,1.1366080045700073,-116.8212890625,39.794921875,-28.13720703125
6.2431800365448,1582960578,0,0.06960839778184891,0.27114051580429077,1.1219912767410278,-221.86279296875,14.7705078125,90.2099609375
6.265589952468872,1582960597,0,-0.029512695968151093,0.19228309392929077,1.3412295579910278,-185.85205078125,-34.24072265625,52.6123046875
6.26718282699585,1582960616,0,-0.11203222721815109,0.13124793767929077,1.4698916673660278,-173.7060546875,-47.18017578125,71.044921875
6.290705919265747,1582960602,1,0.10436037182807922,0.407126784324646,1.1639517545700073,-111.572265625,22.52197265625,-61.279296875
6.290711879730225,1582960621,1,-0.057016581296920776,0.521384596824646,1.2044790983200073,-109.130859375,35.0341796875,-88.43994140625
6.297708034515381,1582960635,0,-0.1828330159187317,0.14565223455429077,1.5690127611160278,-197.20458984375,-17.27294921875,103.02734375
6.3113837242126465,1582960640,1,-0.09925290942192078,0.521384596824646,1.2362173795700073,-103.3935546875,30.8837890625,-118.10302734375
6.311464071273804,1582960659,1,-0.2799169719219208,0.635886549949646,1.2103384733200073,-90.14892578125,23.92578125,-121.15478515625
6.3272998332977295,1582960654,0,-0.2157920002937317,0.12172646075487137,1.6134463548660278,-255.615234375,51.6357421875,136.53564453125
6.346834897994995,1582960678,1,-0.3275243937969208,0.610007643699646,1.2555044889450073,-86.97509765625,7.87353515625,-89.111328125
6.35732102394104,1582960690,0,-0.3891318440437317,0.06142372637987137,1.5924502611160278,-307.373046875,83.49609375,67.7490234375
6.357393026351929,1582960709,0,-0.4538291096687317,-0.05332236737012863,1.6278506517410278,-285.64453125,56.57958984375,70.12939453125
6.372406005859375,1582960697,1,-0.3477880656719208,0.554587721824646,1.2733267545700073,-85.693359375,-18.798828125,-96.61865234375
6.372467041015625,1582960716,1,-0.4542333781719208,0.598044753074646,1.3014029264450073,-90.02685546875,-28.38134765625,-112.12158203125
6.395323991775513,1582960728,0,-0.4516318440437317,0.05019325762987137,1.7484561204910278,-282.3486328125,78.30810546875,93.44482421875
6.402215957641602,1582960735,1,-0.5675146579742432,0.666892409324646,1.4249380826950073,-83.49609375,-36.4990234375,-111.87744140625
6.415841817855835,1582960747,0,-0.1947959065437317,0.19472450017929077,1.8973819017410278,-325.01220703125,112.1826171875,83.0078125
6.415937900543213,1582960766,0,-0.4191611409187317,0.12563270330429077,1.7989932298660278,-395.93505859375,141.4794921875,20.44677734375
6.440867900848389,1582960754,1,-1.2791845798492432,0.797263503074646,1.2281607389450073,-74.0966796875,-74.951171875,-90.75927734375
6.44087290763855,1582960773,1,-0.8551123142242432,0.960593581199646,1.3844107389450073,-36.7431640625,-17.27294921875,-70.6787109375
6.447081089019775,1582960785,0,-0.7753623127937317,-0.36118370294570923,2.3385438919067383,-297.9736328125,110.7177734375,-6.4697265625
6.462486028671265,1582960792,1,-1.0345556735992432,0.856589674949646,1.3895376920700073,-34.72900390625,-47.79052734375,-35.7666015625
6.462559938430786,1582960811,1,-0.9779150485992432,0.722312331199646,1.3778189420700073,-48.52294921875,-102.294921875,-43.88427734375
6.477153062820435,1582960804,0,-0.7663291096687317,-0.45127159357070923,2.1241884231567383,-197.57080078125,121.27685546875,13.916015625
6.477210998535156,1582960823,0,-0.7795127034187317,-0.5350118279457092,1.8973819017410278,-157.958984375,119.32373046875,-10.43701171875
6.49770712852478,1582960830,1,-0.9593603610992432,0.676169753074646,1.3573111295700073,-34.11865234375,-105.28564453125,-45.5322265625
6.507216930389404,1582960842,0,-0.8481162190437317,-0.48227745294570923,1.8610049486160278,-126.15966796875,124.8779296875,-38.57421875
6.520888805389404,1582960866,1,-0.8480322360992432,0.446921706199646,1.0326040983200073,36.07177734375,-61.279296875,-3.7841796875
6.544627904891968,1582960861,0,-0.6686728596687317,-0.46787315607070923,1.6295596361160278,-77.81982421875,154.11376953125,-31.67724609375
6.544632911682129,1582960880,0,-0.6454795002937317,-0.6961446404457092,1.5026065111160278,-30.3955078125,166.259765625,-29.052734375
6.552228927612305,1582960885,1,-0.7843115329742432,0.476218581199646,1.1431998014450073,96.435546875,-12.0849609375,75.25634765625
6.567198991775513,1582960899,0,-0.8368857502937317,-0.9793477654457092,1.3131533861160278,37.4755859375,180.419921875,19.287109375
6.567278861999512,1582960918,0,-0.4396689534187317,-0.6294942498207092,0.7599307298660278,71.2890625,163.6962890625,38.2080078125
6.5918190479278564,1582960904,1,-0.4779150187969208,0.10243929922580719,0.8140981793403625,105.16357421875,6.7138671875,76.35498046875
6.5918238162994385,1582960923,1,-0.11072751879692078,0.04018343985080719,0.8934438824653625,53.3447265625,-59.87548828125,54.443359375
6.61034083366394,1582960942,1,0.005971699953079224,-0.1280294507741928,0.7813833355903625,39.6728515625,-117.431640625,58.41064453125
6.611958026885986,1582960961,1,0.2552392780780792,-0.1995626538991928,0.7584341168403625,56.7626953125,-109.619140625,76.416015625
6.627306938171387,1582960954,0,-0.1696494221687317,-0.46860557794570923,0.7162295579910278,126.220703125,130.7373046875,65.7958984375
6.627386808395386,1582960973,0,-0.1691611409187317,-0.34555870294570923,0.8424502611160278,172.2412109375,114.80712890625,114.013671875
6.645232915878296,1582960980,1,0.4070947468280792,-0.389504075050354,0.5633657574653625,99.54833984375,-33.38623046875,30.6396484375
6.657527923583984,1582960992,0,-0.020967774093151093,-0.04648642987012863,0.6788760423660278,207.82470703125,120.361328125,120.361328125
6.672567844390869,1582960999,1,0.20909669995307922,0.06191195547580719,0.5953481793403625,123.9013671875,38.57421875,46.2646484375
6.672598123550415,1582961018,1,0.23131349682807922,0.05458773672580719,0.5179556012153625,158.26416015625,53.8330078125,40.10009765625
6.695866823196411,1582961011,0,0.016141600906848907,0.12465614825487137,0.39445221424102783,229.43115234375,117.73681640625,107.0556640625
6.695873737335205,1582961030,0,-0.03781347721815109,0.10903114825487137,0.09513579308986664,220.15380859375,103.94287109375,117.73681640625
6.702250003814697,1582961037,1,0.10436037182807922,0.1634744554758072,0.39979156851768494,135.92529296875,28.62548828125,14.83154296875
6.717299938201904,1582961049,0,0.04348535090684891,0.24282020330429077,-0.09773530066013336,169.00634765625,72.6318359375,134.46044921875
6.717365980148315,1582961068,0,0.1897255778312683,0.34633582830429077,-0.05452241003513336,102.35595703125,56.5185546875,137.20703125
6.741010904312134,1582961056,1,0.3131006062030792,0.06923617422580719,0.31849274039268494,85.02197265625,-8.60595703125,-7.32421875
6.741014719009399,1582961075,1,-0.4093115031719208,0.651023268699646,0.003307182341814041,65.73486328125,-4.7607421875,-30.3955078125
6.748507976531982,1582961087,0,0.6692177653312683,0.5626444220542908,0.5892764329910278,45.2880859375,82.82470703125,78.857421875
6.762165069580078,1582961094,1,0.09508302807807922,0.1285623461008072,0.14368803799152374,-4.5166015625,-43.39599609375,84.1064453125
6.777249813079834,1582961106,0,0.08620996028184891,0.14247840642929077,0.43986237049102783,8.60595703125,61.5234375,79.52880859375
6.77733302116394,1582961125,0,0.2812783122062683,0.15199989080429077,0.42130768299102783,-33.50830078125,32.3486328125,104.43115234375
6.796973943710327,1582961130,1,0.2562158405780792,0.07704867422580719,0.39368805289268494,76.904296875,147.94921875,27.7099609375
6.807347059249878,1582961144,0,0.2900673747062683,0.19985145330429077,0.48502838611602783,-62.5,29.296875,109.619140625
6.822457790374756,1582961149,1,0.16344240307807922,-0.02158413827419281,0.6554067730903625,70.37353515625,171.7529296875,2.3193359375
6.822551727294922,1582961168,1,0.3626611530780792,0.00575961172580719,0.8092153668403625,68.78662109375,147.216796875,-35.64453125
6.844566106796265,1582961163,0,0.3022744059562683,0.23354285955429077,0.42741119861602783,-81.54296875,21.78955078125,86.36474609375
6.844570875167847,1582961182,0,0.2824990153312683,0.14907020330429077,0.5238467454910278,-82.09228515625,-9.765625,66.46728515625
6.852167844772339,1582961187,1,0.18663576245307922,0.260642409324646,0.8724477887153625,1.64794921875,77.69775390625,-55.6640625
6.8674399852752686,1582961218,0,0.11892480403184891,-0.009377054870128632,0.7599307298660278,-153.9306640625,-5.126953125,103.6376953125
6.8944971561431885,1582961206,1,-0.019663065671920776,0.376853346824646,0.7757681012153625,-37.53662109375,43.27392578125,-45.166015625
6.8945019245147705,1582961225,1,0.009145528078079224,0.406150221824646,0.8577993512153625,-106.01806640625,-6.8359375,-50.35400390625
6.899265766143799,1582961237,0,0.2221962809562683,0.01650185137987137,1.0250674486160278,-192.81005859375,-14.22119140625,137.0849609375
6.910828113555908,1582961244,1,-0.022348612546920776,0.434470534324646,0.8975942730903625,-125.91552734375,-39.4287109375,-39.0625
6.9258058071136475,1582961256,0,0.3655068278312683,0.14516395330429077,1.1630069017410278,-235.7177734375,-10.7421875,110.83984375
6.925838947296143,1582961275,0,0.2698037028312683,0.02553505450487137,1.3715029954910278,-248.10791015625,-15.31982421875,29.96826171875
6.945403814315796,1582961263,1,-0.06922361254692078,0.423972487449646,0.8858755230903625,-107.91015625,-10.1318359375,-54.5654296875
6.945409059524536,1582961282,1,-0.11609861254692078,0.428367018699646,0.9764516949653625,-86.24267578125,21.30126953125,-82.45849609375
6.957451105117798,1582961294,0,0.10256738215684891,-0.15586143732070923,1.5526553392410278,-232.7880859375,-12.51220703125,41.80908203125
6.9723899364471436,1582961301,1,-0.20838376879692078,0.490378737449646,1.0597037076950073,-85.87646484375,23.5595703125,-92.7734375
6.97245192527771,1582961320,1,-0.2752783000469208,0.472312331199646,1.1493033170700073,-102.294921875,4.39453125,-97.16796875
6.9953107833862305,1582961313,0,0.03616113215684891,-0.11460166424512863,1.6271182298660278,-227.35595703125,11.41357421875,90.39306640625
6.995316028594971,1582961332,0,0.05715722590684891,-0.02182822674512863,1.6791201829910278,-239.68505859375,57.12890625,136.71875
7.002155065536499,1582961339,1,-0.3472997844219208,0.487449049949646,1.1864126920700073,-101.13525390625,-9.46044921875,-112.79296875
7.01758074760437,1582961351,0,-0.06247168034315109,0.08022255450487137,1.7208682298660278,-247.00927734375,75.37841796875,124.32861328125
7.017586946487427,1582961370,0,-0.2162802815437317,-0.08408408612012863,1.7411319017410278,-228.45458984375,53.3447265625,104.1259765625
7.040940046310425,1582961358,1,-0.4730322062969208,0.552878737449646,1.1817740201950073,-91.73583984375,-14.5263671875,-114.68505859375
7.047130823135376,1582961389,0,-0.3105185627937317,-0.07700400799512863,1.7779971361160278,-218.44482421875,34.66796875,104.18701171875
7.062313079833984,1582961394,1,-0.6441748142242432,0.636618971824646,1.2345083951950073,-99.79248046875,-39.73388671875,-120.17822265625
7.077271938323975,1582961408,0,-0.3171103596687317,0.010886617004871368,1.9142276048660278,-239.013671875,59.08203125,129.638671875
7.077307939529419,1582961427,0,-0.3066123127937317,0.11440224200487137,2.0580263137817383,-287.4755859375,115.3564453125,138.24462890625
7.097772121429443,1582961413,1,-0.7550146579742432,0.715476393699646,1.2667349576950073,-98.6328125,-61.1572265625,-118.5302734375
7.097776889801025,1582961432,1,-0.8797705173492432,0.746482253074646,1.2906607389450073,-96.5576171875,-79.9560546875,-98.6328125
7.107090950012207,1582961446,0,-0.4257529377937317,0.12929481267929077,2.1608095169067383,-310.11962890625,149.169921875,101.07421875
7.122402906417847,1582961451,1,-0.9696142673492432,0.719626784324646,1.3336294889450073,-98.44970703125,-85.75439453125,-96.61865234375
7.122470855712891,1582961470,1,-1.0897314548492432,0.843894362449646,1.4434927701950073,-91.24755859375,-101.50146484375,-86.7919921875
7.144996881484985,1582961482,0,-0.7123740315437317,-0.14463096857070923,2.1915712356567383,-239.8681640625,138.12255859375,74.03564453125
7.165632009506226,1582961501,0,-0.1296103596687317,-0.01767783612012863,1.6322451829910278,-161.0107421875,119.44580078125,121.58203125
7.167124032974243,1582961520,0,-0.07516699284315109,0.09120888262987137,2.0116395950317383,-98.388671875,-21.42333984375,8.72802734375
7.1906578540802,1582961489,1,-1.2269384860992432,0.844382643699646,1.5028189420700073,-70.86181640625,-114.31884765625,-59.326171875
7.190664052963257,1582961508,1,-1.3485205173492432,1.208640456199646,1.3516958951950073,48.88916015625,47.36328125,-136.3525390625
7.190668821334839,1582961527,1,-1.6158545017242432,0.716941237449646,1.3780630826950073,89.66064453125,-1.40380859375,-4.638671875
7.197211980819702,1582961539,0,-0.2975791096687317,-0.16611534357070923,2.0692567825317383,-94.66552734375,121.88720703125,-66.71142578125
7.212254047393799,1582961546,1,-1.3089697360992432,0.551658034324646,1.1825064420700073,33.02001953125,-93.44482421875,5.06591796875
7.227191925048828,1582961558,0,-0.5221884846687317,-0.46103721857070923,1.6490908861160278,-99.42626953125,205.01708984375,-49.62158203125
7.227294921875,1582961577,0,-0.7316611409187317,-0.7757344841957092,1.3761416673660278,-98.44970703125,242.67578125,-8.72802734375
7.2463250160217285,1582961565,1,-1.0577490329742432,0.785300612449646,1.5994986295700073,66.162109375,-128.60107421875,78.67431640625
7.246330976486206,1582961584,1,-1.0902197360992432,-0.907814621925354,0.5296743512153625,-30.21240234375,-42.8466796875,112.6708984375
7.257500886917114,1582961596,0,-0.7411826252937317,-0.9195333123207092,1.1598330736160278,-21.05712890625,210.14404296875,28.076171875
7.272375106811523,1582961603,1,-0.2694189250469208,0.301658034324646,1.3060415983200073,134.033203125,-81.1767578125,71.22802734375
7.295598983764648,1582961615,0,-0.4738486409187317,-0.35556846857070923,0.5297061204910278,63.53759765625,119.7509765625,28.38134765625
7.2956061363220215,1582961634,0,-0.4059775471687317,-0.5582051873207092,0.9806338548660278,84.8388671875,99.2431640625,32.470703125
7.302152872085571,1582961622,1,-0.10950681567192078,-0.00693570077419281,0.5545766949653625,113.58642578125,-72.265625,76.35498046875
7.317162990570068,1582961653,0,-0.07419043034315109,-0.37339073419570923,0.8744326829910278,137.0849609375,134.46044921875,59.26513671875
7.341744899749756,1582961658,1,0.024770528078079224,0.01210726797580719,0.6385610699653625,130.859375,-18.4326171875,78.369140625
7.341750144958496,1582961677,1,0.3392236530780792,-0.1915060132741928,0.5965688824653625,171.630859375,24.59716796875,40.95458984375
7.3495259284973145,1582961672,0,-0.10080175846815109,-0.26206260919570923,0.9003115892410278,144.04296875,119.0185546875,94.05517578125
7.349530935287476,1582961691,0,0.4599892497062683,0.42421668767929077,0.5541201829910278,207.8857421875,102.72216796875,88.56201171875
7.362272024154663,1582961696,1,0.11705568432807922,0.275290846824646,0.16126616299152374,180.908203125,60.85205078125,41.56494140625
7.377171993255615,1582961710,0,-0.05050878971815109,0.09535927325487137,0.7257510423660278,269.83642578125,74.951171875,62.255859375
7.398633003234863,1582961715,1,0.09239748120307922,0.12490023672580719,0.37464508414268494,122.61962890625,59.75341796875,110.4736328125
7.398638963699341,1582961734,1,0.10289552807807922,0.04384554922580719,0.28528961539268494,88.31787109375,39.61181640625,105.95703125
7.407480955123901,1582961746,0,0.011991210281848907,0.14003700017929077,0.17667876183986664,256.40869140625,118.65234375,83.1298828125
7.422277927398682,1582961753,1,0.2840478718280792,-0.08359585702419281,0.23963530361652374,118.408203125,81.60400390625,53.52783203125
7.444009065628052,1582961765,0,0.07497949153184891,0.21010535955429077,-0.15974701941013336,170.8984375,109.19189453125,104.06494140625
7.44401478767395,1582961784,0,0.1836220622062683,0.34023231267929077,-0.13020600378513336,48.40087890625,48.095703125,99.9755859375
7.451429843902588,1582961772,1,0.18492677807807922,0.12367953360080719,0.13538725674152374,153.6865234375,162.53662109375,33.0810546875
7.4515111446380615,1582961791,1,0.15685060620307922,0.1590799242258072,0.20643217861652374,170.166015625,247.802734375,33.63037109375
7.46718692779541,1582961803,0,0.3183876872062683,0.36391395330429077,0.21232329308986664,-39.794921875,14.0380859375,82.1533203125
7.4918389320373535,1582961810,1,0.18321779370307922,0.1434549242258072,0.29359039664268494,144.775390625,270.93505859375,42.05322265625
7.491842746734619,1582961829,1,0.22838380932807922,0.10781039297580719,0.6143911480903625,92.041015625,208.67919921875,17.88330078125
7.4979469776153564,1582961822,0,0.3047158122062683,0.23915809392929077,0.5272647142410278,-96.5576171875,28.6865234375,61.279296875
7.497951984405518,1582961841,0,0.2141396403312683,0.12612098455429077,0.6075869798660278,-99.06005859375,37.90283203125,96.0693359375
7.512573957443237,1582961848,1,0.11534669995307922,0.2418435961008072,0.5897329449653625,37.7197265625,143.06640625,-1.77001953125
7.527195930480957,1582961860,0,0.3435341715812683,0.06728310137987137,0.6183291673660278,-80.99365234375,41.1376953125,138.00048828125
7.52726674079895,1582961879,0,0.4258095622062683,0.23647254705429077,0.7079287767410278,-93.44482421875,32.89794921875,135.7421875
7.546628952026367,1582961867,1,-0.051645487546920776,0.333884596824646,0.5089223980903625,-8.48388671875,82.21435546875,-9.6435546875
7.546634912490845,1582961886,1,0.06798341870307922,0.269919753074646,0.6346548199653625,-50.10986328125,35.64453125,-39.61181640625
7.557605981826782,1582961898,0,0.4746376872062683,0.12538856267929077,0.9525576829910278,-143.1884765625,39.6728515625,86.85302734375
7.5932910442352295,1582961917,0,0.2778603434562683,-0.04941611737012863,1.1124697923660278,-175.6591796875,43.76220703125,68.17626953125
7.595236778259277,1582961936,0,0.013944335281848907,-0.0037618204951286316,1.1815615892410278,-169.677734375,39.48974609375,110.2294921875
7.602252006530762,1582961922,1,-0.3775732219219208,0.631003737449646,0.5384634137153625,-108.94775390625,-34.97314453125,-79.833984375
7.602279901504517,1582961941,1,-0.24012205004692078,0.487449049949646,0.6414907574653625,-137.87841796875,-58.77685546875,-85.44921875
7.617527008056641,1582961955,0,0.05813378840684891,-0.05844932049512863,1.2430850267410278,-155.09033203125,46.5087890625,148.5595703125
7.641813039779663,1582961960,1,-0.4220068156719208,0.589499831199646,0.6475942730903625,-123.10791015625,-50.47607421875,-102.11181640625
7.641817808151245,1582961979,1,-0.5250341892242432,0.669822096824646,0.7296255230903625,-111.14501953125,-33.5693359375,-95.5810546875
7.646665096282959,1582961974,0,0.2763954997062683,0.18837684392929077,1.1478701829910278,-161.1328125,65.24658203125,172.79052734375
7.6621668338775635,1582961998,1,-0.5382177829742432,0.684226393699646,0.8011587262153625,-108.09326171875,-26.18408203125,-83.3740234375
7.677807807922363,1582962010,0,0.027127929031848907,0.11855263262987137,1.3600283861160278,-228.3935546875,40.283203125,51.20849609375
7.677868843078613,1582962029,0,-0.1430380940437317,-0.03208213299512863,1.4591494798660278,-205.99365234375,34.3017578125,92.10205078125
7.69857382774353,1582962017,1,-0.6038916110992432,0.736716628074646,0.8905141949653625,-115.8447265625,-29.9072265625,-70.9228515625
7.698580980300903,1582962036,1,-0.6007177829742432,0.674949049949646,0.9967153668403625,-127.38037109375,-44.00634765625,-79.52880859375
7.707126140594482,1582962048,0,-0.1425498127937317,0.04164833575487137,1.4820986986160278,-177.001953125,35.58349609375,142.39501953125
7.7223219871521,1582962055,1,-0.6529638767242432,0.757712721824646,1.0391958951950073,-123.47412109375,-59.02099609375,-101.4404296875
7.745075941085815,1582962067,0,-0.08981543034315109,0.20351356267929077,1.5721865892410278,-176.6357421875,54.50439453125,180.0537109375
7.745082855224609,1582962086,0,-0.09298925846815109,0.34291785955429077,1.6005069017410278,-206.35986328125,86.12060546875,157.53173828125
7.751605033874512,1582962074,1,-0.7901709079742432,0.897117018699646,1.0899771451950073,-113.83056640625,-80.9326171875,-105.40771484375
7.751695871353149,1582962093,1,-0.8304541110992432,0.923240065574646,1.0765494108200073,-114.92919921875,-103.57666015625,-79.52880859375
7.7671058177948,1582962105,0,-0.2829306721687317,0.27260535955429077,1.5951358079910278,-244.140625,82.45849609375,104.8583984375
7.7917468547821045,1582962112,1,-0.8604834079742432,0.882956862449646,1.0172232389450073,-113.34228515625,-108.45947265625,-62.80517578125
7.791751861572266,1582962131,1,-0.9788916110992432,0.836814284324646,0.9962270855903625,-95.64208984375,-93.8720703125,-69.88525390625
7.797746896743774,1582962124,0,-0.3295615315437317,0.24721473455429077,1.6710635423660278,-262.451171875,83.43505859375,100.15869140625
7.797750949859619,1582962143,0,-0.3478720784187317,0.24770301580429077,1.7765322923660278,-255.55419921875,94.66552734375,131.34765625
7.812134027481079,1582962150,1,-1.1263525485992432,0.911521315574646,1.0286978483200073,-66.71142578125,-86.12060546875,-88.43994140625
7.827431917190552,1582962162,0,-0.3217490315437317,0.38613075017929077,1.8607608079910278,-256.65283203125,114.501953125,117.7978515625
7.845345735549927,1582962186,1,-1.3636572360992432,1.111472487449646,1.0719107389450073,-37.353515625,-101.37939453125,-32.28759765625
7.857280015945435,1582962181,0,-0.4335654377937317,0.23866981267929077,1.8580752611160278,-270.01953125,105.77392578125,56.82373046875
7.857335805892944,1582962200,0,-0.2643759846687317,-0.28232628107070923,2.1981630325317383,-253.96728515625,84.228515625,33.8134765625
7.87246298789978,1582962205,1,-1.6844580173492432,0.654929518699646,0.43372711539268494,6.7138671875,-85.9375,-28.9306640625
7.895671844482422,1582962219,0,-0.3327353596687317,0.009910054504871368,2.1139345169067383,-204.9560546875,119.873046875,33.02001953125
7.895676851272583,1582962238,0,-0.5641806721687317,-0.39902549982070923,2.2487001419067383,-158.0810546875,138.85498046875,-20.69091796875
7.90221905708313,1582962224,1,-1.4859716892242432,0.832175612449646,1.0316275358200073,36.4990234375,-17.4560546875,14.2822265625
7.9022510051727295,1582962243,1,-1.4054052829742432,0.719870924949646,1.0440787076950073,21.728515625,-81.35986328125,57.0068359375
7.940948963165283,1582962262,1,-0.9593603610992432,0.764792799949646,1.0238150358200073,79.1015625,-99.42626953125,72.509765625
7.941938877105713,1582962281,1,-1.0980322360992432,0.09169711172580719,0.6844595074653625,-8.36181640625,-49.9267578125,81.787109375
7.9495790004730225,1582962274,0,-0.7895224690437317,-0.6756368279457092,1.5145694017410278,-84.53369140625,206.9091796875,-6.04248046875
7.9495849609375,1582962293,0,-0.6781943440437317,-0.6724629998207092,1.1473819017410278,-42.90771484375,205.810546875,9.033203125
7.962746858596802,1582962300,1,-0.8258154392242432,-0.2413107007741928,1.1175650358200073,54.87060546875,-130.2490234375,44.73876953125
7.977121114730835,1582962312,0,-0.5187705159187317,-0.26133018732070923,1.0311709642410278,28.076171875,166.015625,6.28662109375
7.997200012207031,1582962319,1,-0.7257177829742432,0.516013503074646,0.6334341168403625,93.8720703125,-91.1865234375,110.9619140625
7.997205018997192,1582962338,1,-0.12708494067192078,0.253562331199646,0.5223501324653625,35.09521484375,-88.19580078125,91.49169921875
8.007290840148926,1582962331,0,0.025174804031848907,-0.46079307794570923,0.6901065111160278,46.875,135.3759765625,-2.38037109375
8.007359981536865,1582962350,0,-0.3036826252937317,-0.5416036248207092,1.0665713548660278,118.408203125,136.8408203125,14.83154296875
8.02228307723999,1582962357,1,-0.08655759692192078,0.1930154711008072,0.5604360699653625,58.349609375,-74.40185546875,122.314453125
8.045667886734009,1582962369,0,-0.2489951252937317,-0.38486534357070923,0.9056826829910278,162.353515625,160.09521484375,55.84716796875
8.04567289352417,1582962388,0,-0.10006933659315109,-0.24741417169570923,0.7538272142410278,134.27734375,144.10400390625,64.14794921875
8.05140995979309,1582962376,1,0.15343263745307922,0.1676248461008072,0.39979156851768494,97.0458984375,-47.30224609375,110.16845703125
8.051427841186523,1582962395,1,0.23351076245307922,-0.12412320077419281,0.12879545986652374,97.47314453125,15.2587890625,45.34912109375
8.067317962646484,1582962407,0,-0.06125097721815109,-0.16220909357070923,0.7589541673660278,186.70654296875,117.24853515625,64.453125
8.091145038604736,1582962414,1,0.14659669995307922,0.1805642992258072,0.28113922476768494,94.42138671875,54.38232421875,31.67724609375
8.097291946411133,1582962426,0,-0.1254599690437317,-0.04380088299512863,0.6151553392410278,246.2158203125,95.0927734375,75.0732421875
8.097347974777222,1582962445,0,-0.05612402409315109,0.04360146075487137,0.38297760486602783,262.26806640625,88.37890625,79.52880859375
8.112332105636597,1582962450,1,0.10387209057807922,0.1598123461008072,0.5951040387153625,59.75341796875,29.11376953125,54.50439453125
8.127129793167114,1582962464,0,-0.024141602218151093,0.19155067205429077,0.10465727746486664,221.8017578125,79.52880859375,99.12109375
8.146801948547363,1582962469,1,0.029165059328079224,0.287986159324646,0.6019399762153625,34.3017578125,-4.150390625,67.138671875
8.146806955337524,1582962488,1,0.07457521557807922,0.251365065574646,0.44007477164268494,9.1552734375,-5.43212890625,82.51953125
8.155877828598022,1582962483,0,0.10500878840684891,0.37172645330429077,-0.012041941285133362,114.013671875,67.81005859375,108.58154296875
8.155904054641724,1582962502,0,0.1382119059562683,0.37807410955429077,0.10807524621486664,-9.27734375,59.26513671875,98.08349609375
8.172544002532959,1582962507,1,0.16979005932807922,0.2374490648508072,0.37440094351768494,10.43701171875,17.08984375,67.87109375
8.196010112762451,1582962538,0,0.1260048747062683,0.23110145330429077,0.33366119861602783,-71.22802734375,42.90771484375,106.99462890625
8.202611923217773,1582962526,1,0.2503564655780792,0.2005838304758072,0.33900055289268494,16.4794921875,60.48583984375,53.28369140625
8.20264196395874,1582962545,1,0.2945459187030792,0.1568826586008072,0.42444977164268494,28.38134765625,128.173828125,33.447265625
8.217383861541748,1582962557,0,0.2307412028312683,0.24282020330429077,0.44010651111602783,-62.56103515625,33.02001953125,122.4365234375
8.241156816482544,1582962564,1,-0.024057596921920776,0.463279128074646,0.40735992789268494,48.9501953125,156.982421875,0.1220703125
8.247307062149048,1582962576,0,0.5615517497062683,0.18276160955429077,0.48624908924102783,-63.1103515625,12.0849609375,95.458984375
8.247342824935913,1582962595,0,0.2385537028312683,0.08437294512987137,0.9156924486160278,-62.1337890625,18.798828125,92.6513671875
8.260807991027832,1582962583,1,-0.20594236254692078,0.364890456199646,0.46082672476768494,-37.841796875,102.4169921875,46.56982421875
8.260844707489014,1582962602,1,0.014028340578079224,0.1891092211008072,0.5409048199653625,-61.82861328125,71.1669921875,-16.4794921875
8.277107954025269,1582962614,0,0.2058388590812683,0.17739051580429077,0.7587100267410278,-91.61376953125,-4.0283203125,134.521484375
8.298058986663818,1582962621,1,-0.08631345629692078,0.321433424949646,0.7308462262153625,-65.12451171875,40.58837890625,-54.01611328125
8.298062801361084,1582962640,1,-0.15833494067192078,0.354880690574646,0.8504751324653625,-82.33642578125,25.81787109375,-78.61328125
8.307344913482666,1582962633,0,0.2558876872062683,0.25209754705429077,0.8268252611160278,-145.6298828125,-5.31005859375,143.98193359375
8.307368040084839,1582962652,0,0.3418251872062683,0.36904090642929077,0.8229190111160278,-207.275390625,22.8271484375,127.62451171875
8.322353839874268,1582962659,1,-0.16932126879692078,0.414206862449646,0.9215200543403625,-73.1201171875,17.02880859375,-84.1064453125
8.344835758209229,1582962671,0,0.3554970622062683,0.29506629705429077,0.8944522142410278,-236.9384765625,9.765625,73.6083984375
8.344840049743652,1582962690,0,0.3174111247062683,0.24184364080429077,1.0665713548660278,-240.6005859375,-3.5400390625,58.9599609375
8.352231979370117,1582962678,1,-0.24695798754692078,0.508445143699646,0.9388540387153625,-57.12890625,20.69091796875,-88.2568359375
8.366812944412231,1582962709,0,0.2292763590812683,0.23525184392929077,1.2230654954910278,-240.29541015625,10.43701171875,79.58984375
8.392314910888672,1582962714,1,-0.3658544719219208,0.608786940574646,1.0028189420700073,-80.56640625,-33.87451171875,-87.70751953125
8.398818731307983,1582962728,0,0.2199990153312683,0.30214637517929077,1.3426944017410278,-249.20654296875,33.14208984375,95.703125
8.398823976516724,1582962747,0,0.2073037028312683,0.27016395330429077,1.5248233079910278,-269.71435546875,49.6826171875,85.87646484375
8.412187814712524,1582962733,1,-0.4383642375469208,0.641013503074646,0.9464223980903625,-103.271484375,-65.185546875,-104.736328125
8.412238836288452,1582962752,1,-0.4915868937969208,0.668113112449646,0.9798696637153625,-109.619140625,-75.439453125,-118.46923828125
8.427170753479004,1582962766,0,0.1328408122062683,0.19838660955429077,1.6493350267410278,-293.212890625,67.19970703125,69.15283203125
8.445427894592285,1582962771,1,-0.5228369235992432,0.771628737449646,1.0140494108200073,-101.37939453125,-73.8525390625,-105.1025390625
8.445432901382446,1582962790,1,-0.5260107517242432,0.727439284324646,1.0619009733200073,-97.65625,-66.89453125,-97.10693359375
8.457501888275146,1582962802,0,-0.2714560627937317,0.07314247637987137,1.7706729173660278,-287.4755859375,95.5810546875,72.20458984375
8.472380876541138,1582962809,1,-0.5924170017242432,0.736960768699646,1.1378287076950073,-75.50048828125,-54.6875,-113.22021484375
8.495980024337769,1582962821,0,-0.2924521565437317,0.16200965642929077,1.8883486986160278,-288.14697265625,110.4736328125,79.345703125
8.495985984802246,1582962840,0,-0.4140341877937317,0.08974403887987137,2.0802431106567383,-300.47607421875,120.849609375,64.8193359375
8.502189874649048,1582962828,1,-0.6986181735992432,0.803855299949646,1.1793326139450073,-61.82861328125,-48.7060546875,-138.3056640625
8.502202987670898,1582962847,1,-0.8724462985992432,0.906394362449646,1.3436392545700073,-64.88037109375,-74.3408203125,-135.80322265625
8.51711893081665,1582962859,0,-0.5253623127937317,0.014548726379871368,2.2623720169067383,-278.13720703125,125.18310546875,40.95458984375
8.541683912277222,1582962866,1,-0.9903662204742432,0.943259596824646,1.3812369108200073,-63.78173828125,-107.84912109375,-113.58642578125
8.549597024917603,1582962878,0,-0.6593955159187317,-0.09800010174512863,2.3326845169067383,-229.55322265625,129.5166015625,39.9169921875
8.549602746963501,1582962897,0,-0.6547568440437317,-0.19663292169570923,2.2491884231567383,-171.38671875,134.46044921875,49.98779296875
8.562639951705933,1582962885,1,-1.2005712985992432,1.016013503074646,1.4381216764450073,-53.8330078125,-137.75634765625,-85.75439453125
8.562657833099365,1582962904,1,-2.475229501724243,1.797995924949646,1.2674673795700073,-38.63525390625,-165.771484375,0.91552734375
8.577170848846436,1582962916,0,-0.05880957096815109,0.02992958575487137,1.8424502611160278,-139.95361328125,70.3125,32.71484375
8.597882986068726,1582962923,1,-1.4786474704742432,0.888572096824646,0.8226431012153625,-52.490234375,-92.7734375,86.36474609375
8.607212781906128,1582962935,0,-0.6239951252937317,-0.35776573419570923,2.0785341262817383,-128.96728515625,144.775390625,-25.634765625
8.607292890548706,1582962954,0,-0.6217978596687317,-0.6131368279457092,1.8082705736160278,-103.759765625,173.88916015625,1.28173828125
8.622099876403809,1582962942,1,-1.3060400485992432,0.808249831199646,1.3963736295700073,12.0849609375,-67.93212890625,12.87841796875
8.644503831863403,1582962973,0,-0.7802451252937317,-0.9192891716957092,1.3851748704910278,-65.185546875,178.89404296875,22.03369140625
8.655099868774414,1582962978,1,-0.7989599704742432,0.449118971824646,1.2547720670700073,53.8330078125,-151.79443359375,93.26171875
8.655105829238892,1582962997,1,-0.4093115031719208,0.390769362449646,1.4452017545700073,138.73291015625,-98.69384765625,77.5146484375
8.666763067245483,1582962992,0,-0.6774619221687317,-0.9170919060707092,1.1237002611160278,6.53076171875,147.39990234375,43.9453125
8.666818857192993,1582963011,0,-0.5942099690437317,-0.8111348748207092,0.9059268236160278,56.57958984375,143.12744140625,61.82861328125
8.691812992095947,1582963016,1,-0.8892920017242432,-0.528664231300354,1.0716665983200073,97.16796875,37.353515625,5.37109375
8.697934865951538,1582963030,0,-0.4023154377937317,-0.5372090935707092,0.7338076829910278,95.15380859375,149.169921875,90.14892578125
8.713934898376465,1582963035,1,-0.19397947192192078,-0.360207200050354,0.8018911480903625,179.5654296875,-24.7802734375,20.01953125
8.713942050933838,1582963054,1,-0.11927244067192078,0.334861159324646,0.49671539664268494,204.58984375,-24.5361328125,-8.6669921875
8.727100849151611,1582963066,0,-0.2128623127937317,-0.45761924982070923,0.8639346361160278,150.81787109375,134.46044921875,88.19580078125
8.746679782867432,1582963073,1,0.007924824953079224,0.2052225023508072,0.5804556012153625,148.49853515625,-71.1669921875,76.0498046875
8.757328987121582,1582963085,0,0.10305566340684891,-0.14756065607070923,0.33683502674102783,126.220703125,106.99462890625,83.67919921875
8.757344007492065,1582963104,0,-0.2631552815437317,0.09877724200487137,0.5267764329910278,183.2275390625,102.11181640625,28.564453125
8.79320502281189,1582963123,0,-0.016573242843151093,0.11293739825487137,0.24577055871486664,218.994140625,66.46728515625,58.28857421875
8.801567077636719,1582963092,1,0.2696435749530792,-0.363381028175354,0.00037749484181404114,127.13623046875,-49.072265625,-31.18896484375
8.801592826843262,1582963111,1,0.23570802807807922,0.03481234610080719,0.29139313101768494,155.6396484375,26.3671875,-16.29638671875
8.801655769348145,1582963130,1,0.09093263745307922,0.289695143699646,0.09901030361652374,142.822265625,32.958984375,17.88330078125
8.80325198173523,1582963149,1,0.24913576245307922,0.09975375235080719,0.09681303799152374,120.7275390625,55.96923828125,22.705078125
8.81717300415039,1582963142,0,-0.008760742843151093,0.22670692205429077,0.21110258996486664,214.35546875,66.0400390625,69.580078125
8.817232847213745,1582963161,0,-0.021700195968151093,0.18105262517929077,0.11491118371486664,185.791015625,46.56982421875,75.3173828125
8.841508865356445,1582963168,1,-0.14612790942192078,0.08852328360080719,0.07484038174152374,114.013671875,73.79150390625,8.7890625
8.847385883331299,1582963180,0,0.2959267497062683,0.45986121892929077,0.15470610558986664,151.67236328125,5.79833984375,67.138671875
8.847456932067871,1582963199,0,0.2717568278312683,0.43032020330429077,0.27287018299102783,71.1669921875,-19.4091796875,59.6923828125
8.862401008605957,1582963187,1,0.10753419995307922,0.2284158617258072,0.05823882296681404,81.6650390625,112.48779296875,9.58251953125
8.862453937530518,1582963206,1,0.09581544995307922,0.279929518699646,0.14686186611652374,51.81884765625,121.88720703125,35.82763671875
8.87555193901062,1582963218,0,0.2803017497062683,0.44252723455429077,0.5043154954910278,-37.78076171875,12.0849609375,71.59423828125
8.905484914779663,1582963237,0,0.2163369059562683,0.25698035955429077,0.6078311204910278,-124.69482421875,49.37744140625,90.02685546875
8.907152891159058,1582963256,0,0.1623818278312683,0.23134559392929077,0.6234561204910278,-131.7138671875,51.33056640625,88.37890625
8.92188286781311,1582963242,1,0.20543459057807922,0.1869119554758072,0.47645172476768494,7.32421875,112.060546875,31.18896484375
8.92188811302185,1582963261,1,0.08629396557807922,0.281394362449646,0.47376617789268494,-4.2724609375,83.19091796875,4.150390625
8.944092035293579,1582963275,0,0.1577431559562683,0.19301551580429077,0.5746279954910278,-109.2529296875,26.123046875,85.693359375
8.953300952911377,1582963280,1,-0.008920878171920776,0.352927565574646,0.5296743512153625,-27.587890625,59.75341796875,-2.8076171875
8.953305959701538,1582963299,1,-0.07142087817192078,0.432029128074646,0.5545766949653625,-57.43408203125,50.4150390625,-16.7236328125
8.967276811599731,1582963294,0,0.2236611247062683,0.18007606267929077,0.6674014329910278,-94.54345703125,-18.37158203125,76.96533203125
8.991796016693115,1582963318,1,-0.037241190671920776,0.388816237449646,0.5211294293403625,-82.03125,48.88916015625,-40.34423828125
8.997228860855103,1582963330,0,0.2590615153312683,0.17616981267929077,0.9569522142410278,-146.91162109375,-17.9443359375,97.7783203125
8.997296810150146,1582963349,0,0.2368447184562683,0.17592567205429077,1.0489932298660278,-188.4765625,23.74267578125,124.57275390625
9.01227593421936,1582963337,1,-0.15638181567192078,0.495017409324646,0.6656606793403625,-89.66064453125,47.54638671875,-66.10107421875
9.027295112609863,1582963368,0,0.2705361247062683,0.21303504705429077,1.0939151048660278,-208.80126953125,46.38671875,134.70458984375
9.046886920928955,1582963356,1,-0.2503759562969208,0.464499831199646,0.7127798199653625,-100.2197265625,31.982421875,-97.47314453125
9.046892166137695,1582963375,1,-0.4110204875469208,0.630271315574646,0.7945669293403625,-117.12646484375,-0.67138671875,-106.87255859375
9.057290077209473,1582963387,0,0.3135048747062683,0.25478309392929077,1.1847354173660278,-209.53369140625,44.7998046875,104.18701171875
9.057325839996338,1582963406,0,0.2280556559562683,0.18569129705429077,1.4142276048660278,-198.30322265625,31.67724609375,84.47265625
9.072273015975952,1582963394,1,-0.5074560642242432,0.669333815574646,0.8800161480903625,-133.1787109375,-37.353515625,-91.064453125
9.072341918945312,1582963413,1,-0.4981786906719208,0.684226393699646,0.9344595074653625,-143.1884765625,-58.9599609375,-74.462890625
