sync_time,timestamp_ms,device_id,ax,ay,az,gx,gy,gz
0.006530046463012695,-1268168720,0,0.2498656064271927,-0.4397616684436798,1.0778181552886963,-13.12255859375,-1.15966796875,-27.16064453125
0.0065441131591796875,-1268168701,0,0.2432738095521927,-0.4231601059436798,1.0614607334136963,-13.18359375,-1.953125,-29.47998046875
0.010406017303466797,-1268168703,1,-0.050166789442300797,-0.2339080274105072,1.0540790557861328,7.32421875,-8.544921875,-26.123046875
0.03300881385803223,-1268168682,0,0.2532835900783539,-0.4102206528186798,1.0675642490386963,-10.498046875,-0.54931640625,-31.8603515625
0.0406191349029541,-1268168684,1,-0.045528117567300797,-0.2243865430355072,1.0560321807861328,10.68115234375,-6.16455078125,-28.564453125
0.04070711135864258,-1268168665,1,-0.061397258192300797,-0.2099822461605072,1.0765399932861328,14.0380859375,-3.47900390625,-27.34375
0.07593607902526855,-1268168663,0,0.2476683408021927,-0.4048495590686798,1.0827009677886963,-6.53076171875,2.13623046875,-32.65380859375
0.0759429931640625,-1268168644,0,0.2435179501771927,-0.3914218246936798,1.0968611240386963,-4.7607421875,3.96728515625,-31.3720703125
0.07995223999023438,-1268168646,1,-0.0706745982170105,-0.2143767774105072,1.0836200714111328,15.44189453125,-0.9765625,-26.611328125
0.09332108497619629,-1268168625,0,0.2527953088283539,-0.3889804184436798,1.1400740146636963,-0.732421875,5.9814453125,-27.03857421875
0.09344005584716797,-1268168606,0,0.2696410119533539,-0.3963046371936798,1.1554548740386963,1.52587890625,4.39453125,-25.0244140625
0.10078597068786621,-1268168627,1,-0.0853230357170105,-0.2097381055355072,1.1043720245361328,17.02880859375,2.13623046875,-22.0947265625
0.1008751392364502,-1268168608,1,-0.0902058482170105,-0.2141326367855072,1.1302509307861328,21.240234375,1.46484375,-16.845703125
0.12992000579833984,-1268168587,0,0.2584105432033539,-0.4295077621936798,1.1574079990386963,4.7607421875,0.244140625,-23.62060546875
0.13060498237609863,-1268168589,1,-0.1026570200920105,-0.2290252149105072,1.1170673370361328,23.8037109375,0.06103515625,-13.73291015625
0.13068222999572754,-1268168570,1,-0.1082722544670105,-0.2190154492855072,1.0784931182861328,25.146484375,-6.7138671875,-11.474609375
0.15310120582580566,-1268168568,0,0.2337523251771927,-0.4180331528186798,1.1283552646636963,6.89697265625,-4.2724609375,-24.35302734375
0.15323400497436523,-1268168549,0,0.2444945126771927,-0.3821444809436798,1.0934431552886963,8.4228515625,-8.4228515625,-24.0478515625
0.16043496131896973,-1268168551,1,-0.0894734263420105,-0.2021697461605072,1.0365009307861328,26.123046875,-10.6201171875,-9.3994140625
0.18306994438171387,-1268168530,0,0.2315550595521927,-0.3650546371936798,1.0348494052886963,11.23046875,-15.13671875,-21.6064453125
0.1904618740081787,-1268168532,1,-0.053096476942300797,-0.1779998242855072,0.9891376495361328,26.55029296875,-12.51220703125,-4.39453125
0.2146449089050293,-1268168494,0,0.2794066369533539,-0.4053378403186798,0.9674665927886963,8.7890625,-8.30078125,-18.61572265625
0.22813701629638672,-1268168496,1,0.014042194932699203,-0.2002166211605072,0.9783954620361328,26.06201171875,-4.5166015625,-5.18798828125
0.24323010444641113,-1268168475,0,0.3028441369533539,-0.4185214340686798,0.9828474521636963,10.6201171875,-2.99072265625,-24.96337890625
0.2433459758758545,-1268168456,0,0.3282347619533539,-0.4404940903186798,0.9801619052886963,8.4228515625,-0.9765625,-42.41943359375
0.2510640621185303,-1268168477,1,0.035038288682699203,-0.1977752149105072,0.9942646026611328,29.4189453125,-3.47900390625,-13.00048828125
0.2511601448059082,-1268168458,1,0.048710163682699203,-0.1863006055355072,0.9957294464111328,30.517578125,-3.0517578125,-22.94921875
0.30239105224609375,-1268168437,0,0.3272581994533539,-0.4465976059436798,0.9638044834136963,9.1552734375,0.9765625,-57.43408203125
0.30365586280822754,-1268168418,0,0.3345824182033539,-0.3425936996936798,1.0018904209136963,2.197265625,5.0048828125,-68.90869140625
0.3037991523742676,-1268168399,0,0.3804808557033539,-0.2864413559436798,0.9957869052886963,4.39453125,-3.23486328125,-62.92724609375
0.3108348846435547,-1268168439,1,0.0636027455329895,-0.1460174024105072,0.9844989776611328,30.94482421875,2.25830078125,-41.9921875
0.31096911430358887,-1268168420,1,-0.018428508192300797,-0.1364959180355072,0.9949970245361328,32.77587890625,0.1220703125,-50.1708984375
0.31099605560302734,-1268168401,1,0.054813679307699203,-0.1118377149105072,1.0489521026611328,35.82763671875,1.46484375,-49.1943359375
0.33290910720825195,-1268168380,0,0.3870726525783539,-0.3609042465686798,1.0421736240386963,4.57763671875,-0.8544921875,-60.97412109375
0.3406710624694824,-1268168382,1,0.047245319932699203,-0.1606658399105072,1.0225849151611328,43.15185546875,2.99072265625,-41.6259765625
0.3407931327819824,-1268168363,1,0.017948444932699203,-0.1506560742855072,1.0072040557861328,47.05810546875,-5.615234375,-42.05322265625
0.3767969608306885,-1268168361,0,0.3531371057033539,-0.4324374496936798,1.0321638584136963,6.103515625,-8.1787109375,-57.06787109375
0.37680506706237793,-1268168342,0,0.4258910119533539,-0.4658847153186798,0.9240095615386963,0.244140625,-28.4423828125,-61.03515625
0.3800089359283447,-1268168344,1,0.0946086049079895,-0.1667693555355072,0.9344501495361328,45.47119140625,3.662109375,-66.162109375
0.39315009117126465,-1268168323,0,0.4551878869533539,-0.4043612778186798,0.7738630771636963,-16.05224609375,6.53076171875,-75.5615234375
0.39326906204223633,-1268168304,0,0.4820433557033539,-0.4121737778186798,0.8551619052886963,-31.6162109375,33.447265625,-115.90576171875
0.40043210983276367,-1268168325,1,0.0819132924079895,-0.1240447461605072,0.9486103057861328,59.38720703125,38.39111328125,-95.458984375
0.40053701400756836,-1268168306,1,0.1192668080329895,-0.2177947461605072,0.8702411651611328,65.97900390625,44.37255859375,-100.52490234375
0.4290640354156494,-1268168285,0,0.5084105134010315,-0.4324374496936798,0.9379255771636963,-28.62548828125,12.20703125,-125.30517578125
0.4310150146484375,-1268168287,1,0.1358683705329895,-0.0803435742855072,0.7840595245361328,105.28564453125,69.580078125,-97.96142578125
0.45503902435302734,-1268168266,0,0.2217894345521927,-0.7622714638710022,0.2452985942363739,-65.7958984375,-8.1787109375,-172.8515625
0.46045494079589844,-1268168268,1,-0.026241008192300797,-0.014425601810216904,1.0489521026611328,105.224609375,72.998046875,-110.16845703125
0.48309803009033203,-1268168230,0,0.5826292634010315,-0.3381991684436798,0.8493025302886963,-75.74462890625,-30.8837890625,-182.373046875
0.490602970123291,-1268168232,1,-0.1195027232170105,0.057351741939783096,1.1534442901611328,91.552734375,34.912109375,-126.77001953125
0.49073004722595215,-1268168213,1,-0.055049601942300797,0.1623322069644928,1.0369892120361328,94.8486328125,22.94921875,-114.8681640625
0.526339054107666,-1268168211,0,0.5460081696510315,-0.7166171669960022,1.1068708896636963,-11.65771484375,90.33203125,-138.3056640625
0.5263481140136719,-1268168192,0,-0.3739136755466461,-0.9693027138710022,1.3392927646636963,51.7578125,-0.06103515625,-101.4404296875
0.5288710594177246,-1268168194,1,-0.2059285044670105,0.1100861132144928,1.0343036651611328,84.8388671875,37.9638671875,-135.55908203125
0.5431501865386963,-1268168173,0,0.022814828902482986,-0.4827304184436798,1.3388044834136963,-16.66259765625,6.28662109375,-198.3642578125
0.5432760715484619,-1268168154,0,0.2278929501771927,0.022396523505449295,0.8527204990386963,-45.83740234375,69.15283203125,-224.9755859375
0.5510032176971436,-1268168175,1,-0.2296101450920105,0.2109161913394928,1.1629657745361328,82.70263671875,30.029296875,-140.13671875
0.5510799884796143,-1268168156,1,-0.2571980357170105,0.0632111132144928,0.9029560089111328,95.3369140625,42.6025390625,-143.73779296875
0.5788969993591309,-1268168135,0,0.5799437165260315,-0.117007777094841,0.7184431552886963,6.16455078125,116.51611328125,-189.63623046875
0.5803089141845703,-1268168137,1,-0.2535359263420105,0.0639435350894928,0.9063739776611328,111.4501953125,58.837890625,-148.49853515625
0.6098501682281494,-1268168118,1,-0.1925007700920105,0.1589142382144928,1.0191669464111328,128.72314453125,96.3134765625,-152.34375
0.6105999946594238,-1268168099,1,-0.2410847544670105,0.2524200975894928,1.0601825714111328,119.0185546875,111.572265625,-148.25439453125
0.6334662437438965,-1268168116,0,0.4390746057033539,-0.219790980219841,0.8339216709136963,38.02490234375,234.86328125,-196.1669921875
0.6336331367492676,-1268168097,0,0.3690062463283539,-0.244449183344841,1.0949079990386963,77.2705078125,221.00830078125,-136.53564453125
0.6337130069732666,-1268168078,0,0.5157347321510315,-0.3462558090686798,0.9054548740386963,67.07763671875,150.7568359375,-153.076171875
0.6407701969146729,-1268168080,1,-0.5382038950920105,0.3674103319644928,1.0391864776611328,85.8154296875,156.25,-134.27734375
0.6408650875091553,-1268168061,1,-0.9241902232170105,0.4020783007144928,1.0545673370361328,64.39208984375,123.046875,-99.12109375
0.6754140853881836,-1268168059,0,0.5196409821510315,-0.155337855219841,1.5197126865386963,48.27880859375,139.0380859375,-195.80078125
0.675421953201294,-1268168040,0,0.1863890439271927,0.194759801030159,1.6347029209136963,80.50537109375,-57.4951171875,-139.2822265625
0.6796889305114746,-1268168042,1,-0.9329792857170105,0.5214630961418152,1.1431903839111328,29.72412109375,19.22607421875,-85.0830078125
0.69309401512146,-1268168021,0,0.4634886682033539,0.068539097905159,1.1620466709136963,88.43994140625,-136.962890625,-91.9189453125
0.7004649639129639,-1268168023,1,-0.8138386607170105,0.5790802836418152,1.0142841339111328,-16.17431640625,-54.38232421875,-59.99755859375
0.7005510330200195,-1268168004,1,-0.5779988169670105,0.4587189257144928,0.8245868682861328,-44.12841796875,-87.2802734375,-26.55029296875
0.7305779457092285,-1268168002,0,0.5001097321510315,0.3859219253063202,1.0653669834136963,17.88330078125,-35.64453125,-144.53125
0.7523460388183594,-1268167966,0,0.5054808259010315,0.4877285659313202,1.0768415927886963,-90.33203125,-15.19775390625,-203.55224609375
0.7532041072845459,-1268167947,0,0.8902464509010315,0.3861660659313202,1.2323591709136963,-143.98193359375,-17.333984375,-204.9560546875
0.7608761787414551,-1268167968,1,-0.4825398325920105,0.5385529398918152,0.6263446807861328,-69.51904296875,18.00537109375,32.2265625
0.7609422206878662,-1268167949,1,-0.5640828013420105,0.4640900194644928,0.6407489776611328,-89.90478515625,46.5087890625,51.3916015625
0.7831671237945557,-1268167928,0,0.5084105134010315,0.3129238784313202,1.1608259677886963,-189.75830078125,26.30615234375,-178.52783203125
0.8124020099639893,-1268167909,0,0.6385374665260315,0.3605313003063202,1.1371443271636963,-199.89013671875,50.84228515625,-187.92724609375
0.8245289325714111,-1268167890,0,0.5626097321510315,0.161800816655159,1.1029646396636963,-230.95703125,107.91015625,-196.10595703125
0.8263859748840332,-1268167930,1,-0.5887410044670105,0.4611603319644928,0.6751728057861328,-104.55322265625,12.3291015625,61.21826171875
0.8263921737670898,-1268167911,1,-0.5291706919670105,0.4784943163394928,0.7254657745361328,-124.32861328125,1.64794921875,66.83349609375
0.8263969421386719,-1268167892,1,-0.4796101450920105,0.3652130663394928,0.7039813995361328,-154.9072265625,-10.19287109375,63.53759765625
0.8443589210510254,-1268167871,0,0.4327269494533539,0.105404332280159,1.0990583896636963,-223.44970703125,106.3232421875,-150.634765625
0.8509509563446045,-1268167873,1,-0.5128132700920105,0.1462189257144928,0.6739521026611328,-163.4521484375,-15.869140625,38.0859375
0.851024866104126,-1268167854,1,-0.5877644419670105,-0.0022185705602169037,0.7559833526611328,-135.8642578125,-17.39501953125,39.73388671875
0.8800179958343506,-1268167852,0,0.3460570275783539,0.176449254155159,1.0746443271636963,-170.10498046875,44.49462890625,-53.8330078125
0.88002610206604,-1268167833,0,0.2845335900783539,0.2521328628063202,1.0741560459136963,-103.3935546875,-24.96337890625,-14.16015625
0.8805530071258545,-1268167835,1,-0.3626667857170105,-0.009054508060216904,0.9119892120361328,-110.83984375,-53.28369140625,15.2587890625
0.9031732082366943,-1268167814,0,0.2798949182033539,0.2970547378063202,0.8524763584136963,-18.98193359375,-73.54736328125,-18.85986328125
0.9032890796661377,-1268167795,0,0.2559691369533539,-0.7525058388710022,0.8558943271636963,36.7431640625,-81.23779296875,5.859375
0.9104371070861816,-1268167816,1,-0.1431843638420105,-0.1653045117855072,0.8985614776611328,-74.27978515625,-80.322265625,-50.9033203125
0.9105370044708252,-1268167797,1,0.034550007432699203,-0.040792789310216904,0.9490985870361328,-36.56005859375,-82.763671875,-84.04541015625
0.9336268901824951,-1268167776,0,0.3897581994533539,-0.8013339638710022,0.6771833896636963,106.62841796875,-14.2822265625,-37.41455078125
0.9404921531677246,-1268167778,1,0.021610554307699203,0.0888458788394928,0.9256610870361328,-30.82275390625,-71.8994140625,-67.07763671875
0.975355863571167,-1268167757,0,0.3751097619533539,-0.4168124496936798,1.1388533115386963,119.384765625,-13.85498046875,-125.91552734375
0.97536301612854,-1268167738,0,0.3419066369533539,0.059261757880449295,1.0582869052886963,118.10302734375,-66.10107421875,-159.97314453125
0.9778702259063721,-1268167759,1,-0.1094929575920105,0.1635529100894928,1.0206317901611328,-23.74267578125,-35.888671875,-12.6953125
0.9779160022735596,-1268167740,1,-0.0677449107170105,0.049050960689783096,1.0863056182861328,-28.50341796875,-37.17041015625,25.81787109375
0.999481201171875,-1268167704,1,0.024296101182699203,-0.1308806836605072,1.0833759307861328,-5.0048828125,-30.029296875,39.61181640625
1.0319099426269531,-1268167702,0,0.4258910119533539,0.124935582280159,1.0827009677886963,74.03564453125,-55.7861328125,-127.86865234375
1.0327072143554688,-1268167683,0,0.5030394196510315,0.246029332280159,1.0529158115386963,36.9873046875,-59.50927734375,-94.23828125
1.0342299938201904,-1268167685,1,0.050907429307699203,-0.1523650586605072,1.1109638214111328,18.310546875,-20.8740234375,38.6962890625
1.0532312393188477,-1268167664,0,0.5555296540260315,0.201351597905159,1.1554548740386963,11.3525390625,-54.19921875,-61.8896484375
1.0533740520477295,-1268167645,0,0.5516234040260315,0.230404332280159,1.0975935459136963,-21.78955078125,-56.15234375,-38.0859375
1.0607020854949951,-1268167666,1,-0.010371867567300797,-0.1211150586605072,1.0970478057861328,50.048828125,-26.4892578125,43.3349609375
1.0608220100402832,-1268167647,1,0.049442585557699203,-0.0671599805355072,1.0758075714111328,73.6083984375,-28.86962890625,50.47607421875
1.0831191539764404,-1268167626,0,0.5142698884010315,0.147152379155159,1.0822126865386963,-59.50927734375,-44.25048828125,-38.02490234375
1.0905401706695557,-1268167628,1,0.019657429307699203,-0.1328338086605072,1.0186786651611328,74.27978515625,-35.0341796875,34.97314453125
1.1268649101257324,-1268167607,0,0.4969359338283539,-0.007388632744550705,1.0685408115386963,-83.6181640625,-37.41455078125,-64.453125
1.1268730163574219,-1268167588,0,0.4280882775783539,-0.062808558344841,1.0421736240386963,-76.72119140625,-22.64404296875,-92.7734375
1.1287200450897217,-1268167609,1,0.014530476182699203,-0.0757049024105072,0.9461688995361328,86.7919921875,-74.03564453125,-14.46533203125
1.1295130252838135,-1268167590,1,0.046268757432699203,-0.038107242435216904,0.8594989776611328,90.75927734375,-61.82861328125,-48.828125
1.1433711051940918,-1268167569,0,0.4219847619533539,-0.140445277094841,1.0993025302886963,-26.91650390625,-27.34375,-104.4921875
1.1506528854370117,-1268167571,1,0.0821574330329895,0.010720882564783096,0.9051532745361328,93.07861328125,-37.78076171875,-28.80859375
1.1507189273834229,-1268167552,1,0.1021769642829895,0.024881038814783096,0.9664325714111328,74.70703125,-0.18310546875,2.197265625
1.1804790496826172,-1268167550,0,0.4559203088283539,-0.094790980219841,1.1034529209136963,20.69091796875,-42.54150390625,-104.248046875
1.1804931163787842,-1268167531,0,0.5374632477760315,-0.012027304619550705,1.0565779209136963,50.9033203125,-60.72998046875,-108.154296875
1.1810190677642822,-1268167533,1,0.0848429799079895,0.015847835689783096,0.8341083526611328,94.970703125,8.6669921875,41.259765625
1.2030210494995117,-1268167512,0,0.5562620759010315,0.045345742255449295,1.0409529209136963,42.05322265625,-70.12939453125,-121.27685546875
1.2106938362121582,-1268167514,1,0.061649616807699203,-0.005636539310216904,0.8492450714111328,96.435546875,-7.8125,43.02978515625
1.2107698917388916,-1268167495,1,0.026249226182699203,0.057595882564783096,0.8612079620361328,86.5478515625,-14.83154296875,23.49853515625
1.233215093612671,-1268167493,0,0.5401487946510315,0.034359414130449295,1.0060408115386963,26.91650390625,-62.80517578125,-120.30029296875
1.233320951461792,-1268167474,0,0.5093870759010315,0.035580117255449295,0.9811384677886963,18.98193359375,-53.03955078125,-110.77880859375
1.2403991222381592,-1268167476,1,-0.017940226942300797,0.1047150194644928,0.8614521026611328,67.87109375,-19.4091796875,6.4697265625
1.2773089408874512,-1268167438,0,0.4815550744533539,0.064388707280159,0.9330427646636963,18.310546875,-45.71533203125,-97.83935546875
1.2801580429077148,-1268167440,1,-0.0653035044670105,0.2260529100894928,0.8953876495361328,18.1884765625,-21.6064453125,-8.1787109375
1.2932212352752686,-1268167419,0,0.4192992150783539,0.082699254155159,0.9340193271636963,13.97705078125,-45.7763671875,-104.55322265625
1.300922155380249,-1268167421,1,-0.043574992567300797,0.2131134569644928,0.8341083526611328,18.61572265625,-24.35302734375,-23.98681640625
1.3009998798370361,-1268167402,1,-0.0801960825920105,0.1843048632144928,0.8280048370361328,26.0009765625,-42.05322265625,-36.0107421875
1.3524219989776611,-1268167400,0,0.4058714807033539,0.118587926030159,0.9498884677886963,16.7236328125,-48.33984375,-95.76416015625
1.3537158966064453,-1268167381,0,0.4407835900783539,0.135677769780159,0.9425642490386963,24.658203125,-51.69677734375,-72.265625
1.353795051574707,-1268167362,0,0.4542113244533539,0.184505894780159,0.9345076084136963,29.60205078125,-47.36328125,-56.2744140625
1.3551218509674072,-1268167343,0,0.4293089807033539,0.188656285405159,0.9537947177886963,20.8740234375,-45.654296875,-53.22265625
1.364171028137207,-1268167383,1,-0.0816609263420105,0.3053986132144928,0.8592548370361328,35.58349609375,-41.748046875,-49.25537109375
1.3641841411590576,-1268167364,1,-0.1624714732170105,0.3410431444644928,0.8717060089111328,38.14697265625,-47.18017578125,-54.3212890625
1.3641901016235352,-1268167345,1,-0.1050984263420105,0.3964630663394928,0.8775653839111328,31.67724609375,-68.9697265625,-63.29345703125
1.3833069801330566,-1268167324,0,0.3528929650783539,0.191341832280159,0.9777204990386963,11.23046875,-42.96875,-49.25537109375
1.39058518409729,-1268167326,1,0.014042194932699203,0.5146271586418152,0.8909931182861328,10.43701171875,-59.99755859375,-60.11962890625
1.4253740310668945,-1268167305,0,0.3760863244533539,0.216732457280159,1.0209333896636963,12.51220703125,-45.10498046875,-27.16064453125
1.4253811836242676,-1268167286,0,0.4127074182033539,0.2868008315563202,1.0326521396636963,10.3759765625,-48.03466796875,-9.33837890625
1.4279379844665527,-1268167307,1,-0.055782023817300797,0.5529572367668152,0.9534931182861328,-19.775390625,-44.12841796875,-29.78515625
1.4279448986053467,-1268167288,1,-0.1151081919670105,0.4836212694644928,1.0516376495361328,-39.6728515625,-32.04345703125,-6.2255859375
1.4432990550994873,-1268167267,0,0.3895140588283539,0.3236660659313202,1.0319197177886963,-5.2490234375,-50.537109375,-7.01904296875
1.4505181312561035,-1268167269,1,-0.049922648817300797,0.3483673632144928,1.1380634307861328,-46.5087890625,-35.46142578125,-2.01416015625
1.4505360126495361,-1268167250,1,0.025272663682699203,0.2875763475894928,1.1197528839111328,-28.076171875,-45.71533203125,-17.578125
1.480285882949829,-1268167248,0,0.4371214807033539,0.2750820815563202,1.0839216709136963,-26.0009765625,-58.349609375,-20.263671875
1.4802958965301514,-1268167229,0,0.4227171838283539,0.239681676030159,1.1337263584136963,-36.4990234375,-67.0166015625,-28.01513671875
1.4807779788970947,-1268167231,1,-0.0028035081923007965,0.3481232225894928,1.0726337432861328,-11.53564453125,-55.5419921875,-29.96826171875
1.5030269622802734,-1268167210,0,0.4483519494533539,0.236751988530159,1.1945173740386963,-34.3017578125,-70.73974609375,-18.49365234375
1.5103521347045898,-1268167212,1,-0.0767781138420105,0.4352814257144928,1.0723896026611328,-20.20263671875,-60.11962890625,-28.38134765625
1.5354199409484863,-1268167174,0,0.5076780915260315,0.3226895034313202,1.1596052646636963,-20.44677734375,-59.326171875,-6.8359375
1.5404720306396484,-1268167176,1,-0.025752726942300797,0.3942658007144928,1.0745868682861328,-40.1611328125,-61.46240234375,-11.65771484375
1.576045036315918,-1268167155,0,0.4749632775783539,0.3231777846813202,1.1156599521636963,-18.37158203125,-50.048828125,-13.7939453125
1.5760540962219238,-1268167136,0,0.4610472619533539,0.3031582534313202,1.0565779209136963,-10.8642578125,-49.8046875,-18.73779296875
1.578810214996338,-1268167157,1,-0.0030476488173007965,0.3356720507144928,1.0489521026611328,-36.80419921875,-65.3076171875,-23.74267578125
1.5788180828094482,-1268167138,1,-0.012080851942300797,0.3737579882144928,0.9864521026611328,-28.86962890625,-63.65966796875,-44.25048828125
1.59324312210083,-1268167117,0,0.4647093713283539,0.3348965346813202,1.0309431552886963,0.8544921875,-50.35400390625,-9.58251953125
1.6008331775665283,-1268167119,1,-0.042110148817300797,0.4396759569644928,0.9334735870361328,-28.1982421875,-60.9130859375,-53.8330078125
1.6009230613708496,-1268167100,1,-0.0787312388420105,0.4743439257144928,0.9249286651611328,-37.04833984375,-50.048828125,-51.45263671875
1.6323120594024658,-1268167098,0,0.4893675744533539,0.4037441909313202,0.9860212802886963,5.43212890625,-51.20849609375,-3.47900390625
1.6323251724243164,-1268167079,0,0.4759398400783539,0.4406094253063202,0.9684431552886963,-3.662109375,-47.9736328125,-11.90185546875
1.632859230041504,-1268167081,1,-0.0828816294670105,0.4894806444644928,0.9525165557861328,-45.71533203125,-37.53662109375,-42.3583984375
1.653048038482666,-1268167060,0,0.4254027307033539,0.4257168471813202,0.9638044834136963,-11.77978515625,-44.677734375,-21.1181640625
1.6605770587921143,-1268167062,1,-0.0704304575920105,0.4179474413394928,0.9495868682861328,-47.36328125,-29.541015625,-29.23583984375
1.6606619358062744,-1268167043,1,-0.0853230357170105,0.2944122850894928,0.9425067901611328,-31.31103515625,-24.59716796875,-38.6962890625
1.6843440532684326,-1268167041,0,0.4139281213283539,0.3829922378063202,0.9408552646636963,-9.70458984375,-46.2646484375,-21.78955078125
1.684351921081543,-1268167022,0,0.4051390588283539,0.3876309096813202,0.9127790927886963,5.55419921875,-49.98779296875,-13.671875
1.6905789375305176,-1268167024,1,-0.036983195692300797,0.2951447069644928,0.8836688995361328,-10.68115234375,-27.4658203125,-50.59814453125
1.7131688594818115,-1268167003,0,0.3929320275783539,0.3585781753063202,0.8739607334136963,17.63916015625,-50.35400390625,-9.94873046875
1.714604139328003,-1268166984,0,0.4210081994533539,0.3783535659313202,0.8785994052886963,15.625,-44.677734375,-16.2353515625
1.7282519340515137,-1268167005,1,-0.041621867567300797,0.3234650194644928,0.8419208526611328,3.47900390625,-24.5361328125,-57.18994140625
1.7282600402832031,-1268166986,1,-0.0779988169670105,0.3598419725894928,0.8048114776611328,7.01904296875,-33.3251953125,-58.77685546875
1.7433180809020996,-1268166965,0,0.4075804650783539,0.3431973159313202,0.8820173740386963,4.5166015625,-35.0341796875,-24.2919921875
1.752568006515503,-1268166967,1,-0.053096476942300797,0.4008575975894928,0.8118915557861328,2.44140625,-24.169921875,-56.884765625
1.7794480323791504,-1268166946,0,0.3919554650783539,0.2789883315563202,0.8590681552886963,3.72314453125,-31.005859375,-25.2685546875
1.7814550399780273,-1268166948,1,-0.057002726942300797,0.3813263475894928,0.8162860870361328,-6.9580078125,-21.54541015625,-43.9453125
1.8031229972839355,-1268166910,0,0.3526488244533539,0.2846035659313202,0.8077986240386963,24.23095703125,-32.2265625,-7.6904296875
1.8106648921966553,-1268166912,1,-0.0770222544670105,0.3061310350894928,0.8775653839111328,-29.60205078125,-22.94921875,-23.74267578125
1.8107872009277344,-1268166893,1,-0.045039836317300797,0.2902618944644928,0.8800067901611328,-35.09521484375,-16.66259765625,-19.1650390625
1.833327054977417,-1268166891,0,0.3692503869533539,0.3261074721813202,0.7694685459136963,23.92578125,-27.83203125,-1.52587890625
1.8333749771118164,-1268166872,0,0.3860960900783539,0.3405117690563202,0.7565290927886963,11.90185546875,-20.751953125,-2.0751953125
1.8405439853668213,-1268166874,1,-0.057002726942300797,0.2570587694644928,0.8931903839111328,-35.82763671875,-8.36181640625,-8.36181640625
1.875783920288086,-1268166853,0,0.3734007775783539,0.3163418471813202,0.7609236240386963,-5.18798828125,-14.46533203125,-4.5166015625
1.8757901191711426,-1268166834,0,0.3243285119533539,0.3180508315563202,0.7660505771636963,-7.99560546875,-14.70947265625,8.544921875
1.8783349990844727,-1268166855,1,-0.1114460825920105,0.2045685350894928,0.9417743682861328,-39.12353515625,-26.0009765625,-5.31005859375
1.8783411979675293,-1268166836,1,-0.1180378794670105,0.1615997850894928,0.9036884307861328,-38.0859375,-27.77099609375,-5.31005859375
1.8930439949035645,-1268166815,0,0.3116331994533539,0.3468594253063202,0.7555525302886963,1.64794921875,-22.5830078125,25.32958984375
1.9003469944000244,-1268166817,1,-0.0858113169670105,0.1742950975894928,0.8997821807861328,-35.58349609375,-24.4140625,-2.13623046875
1.9318699836730957,-1268166796,0,0.3524046838283539,0.3788418471813202,0.7467634677886963,9.3994140625,-30.76171875,35.09521484375
1.9318761825561523,-1268166777,0,0.4090453088283539,0.3781094253063202,0.7470076084136963,9.09423828125,-30.3955078125,32.89794921875
1.9322550296783447,-1268166798,1,-0.057491008192300797,0.1137482225894928,0.8970966339111328,-35.82763671875,-13.73291015625,14.34326171875
1.9322612285614014,-1268166779,1,-0.034053508192300797,0.0673615038394928,0.9156513214111328,-31.982421875,4.638671875,16.2353515625
1.9531159400939941,-1268166758,0,0.4171019494533539,0.3312344253063202,0.7377302646636963,1.3427734375,-31.3720703125,29.9072265625
1.9607629776000977,-1268166760,1,-0.034541789442300797,0.018533382564783096,0.9368915557861328,-22.64404296875,22.3388671875,9.09423828125
1.9608609676361084,-1268166741,1,-0.0723835825920105,0.013162288814783096,0.9473896026611328,-17.578125,23.49853515625,3.72314453125
1.9835140705108643,-1268166739,0,0.4327269494533539,0.2789883315563202,0.7277204990386963,8.72802734375,-41.44287109375,35.888671875
1.983590841293335,-1268166720,0,0.4937621057033539,0.3041348159313202,0.7255232334136963,21.54541015625,-56.33544921875,42.17529296875
1.9905972480773926,-1268166722,1,-0.0811726450920105,0.047586116939783096,0.9537372589111328,-17.578125,19.6533203125,-1.46484375
2.0272910594940186,-1268166701,0,0.6429319977760315,0.3417324721813202,0.7391951084136963,23.74267578125,-59.5703125,39.55078125
2.029027223587036,-1268166703,1,-0.0714070200920105,0.0803009569644928,0.9603290557861328,-23.98681640625,12.3291015625,5.0048828125
2.02903413772583,-1268166684,1,-0.050166789442300797,0.044412288814783096,0.9542255401611328,-30.6396484375,13.85498046875,10.80322265625
2.043365955352783,-1268166682,0,0.6746702790260315,0.3080410659313202,0.7846052646636963,3.60107421875,-42.724609375,30.57861328125
2.0789151191711426,-1268166646,0,0.6724730134010315,0.219906285405159,0.7145369052886963,12.02392578125,-37.78076171875,43.02978515625
2.0810110569000244,-1268166648,1,-0.028926555067300797,0.017312679439783096,0.9085712432861328,-17.822265625,10.498046875,3.23486328125
2.0810189247131348,-1268166629,1,-0.027461711317300797,0.0712677538394928,0.9449481964111328,-18.98193359375,17.39501953125,4.638671875
2.103187084197998,-1268166627,0,0.7269163727760315,0.244808629155159,0.6796247959136963,31.3720703125,-37.17041015625,55.7861328125
2.103288173675537,-1268166608,0,0.7938109040260315,0.2733730971813202,0.7035505771636963,29.6630859375,-28.38134765625,53.466796875
2.11051607131958,-1268166610,1,0.040653523057699203,0.0739533007144928,0.8868427276611328,-24.2919921875,-5.859375,20.5078125
2.110589027404785,-1268166591,1,0.052860554307699203,0.0907990038394928,0.8145771026611328,-30.517578125,2.5634765625,29.84619140625
2.142191171646118,-1268166572,1,0.033329304307699203,0.0683380663394928,0.8626728057861328,-30.21240234375,4.21142578125,38.0859375
2.173664093017578,-1268166589,0,0.7659788727760315,0.2640957534313202,0.7142927646636963,0.732421875,-1.0986328125,39.55078125
2.1736719608306885,-1268166570,0,0.6985960602760315,0.151791051030159,0.6906111240386963,-4.69970703125,8.48388671875,50.96435546875
2.1736772060394287,-1268166551,0,0.6182737946510315,0.125179722905159,0.6571638584136963,8.72802734375,3.84521484375,68.17626953125
2.1736819744110107,-1268166532,0,0.5652952790260315,0.157162144780159,0.6586287021636963,26.3671875,-7.75146484375,81.9091796875
2.1752991676330566,-1268166553,1,-0.1165730357170105,0.009500179439783096,0.9359149932861328,-33.26416015625,31.73828125,38.51318359375
2.175304889678955,-1268166534,1,-0.2645222544670105,-0.017599429935216904,1.0396747589111328,-37.9638671875,39.85595703125,37.65869140625
2.1930360794067383,-1268166513,0,0.6114378571510315,0.171566441655159,0.6771833896636963,31.18896484375,-14.404296875,88.8671875
2.2004590034484863,-1268166515,1,-0.1539265513420105,-0.035421695560216904,1.1834735870361328,-53.16162109375,24.7802734375,33.5693359375
2.229328155517578,-1268166494,0,0.6563597321510315,0.181087926030159,0.7057478427886963,29.96826171875,-4.57763671875,107.177734375
2.2293360233306885,-1268166475,0,0.6412230134010315,0.180355504155159,0.6740095615386963,32.2265625,6.591796875,121.826171875
2.2314372062683105,-1268166496,1,-0.1685749888420105,0.015603695064783096,1.0379657745361328,-53.28369140625,33.8134765625,5.79833984375
2.2314441204071045,-1268166477,1,-0.2049519419670105,0.1327911913394928,0.9354267120361328,-38.0859375,39.73388671875,5.2490234375
2.2531180381774902,-1268166456,0,0.5782347321510315,0.161312535405159,0.6469099521636963,43.02978515625,18.24951171875,132.01904296875
2.260319948196411,-1268166458,1,-0.3082234263420105,0.1723419725894928,0.9329853057861328,-32.77587890625,52.24609375,27.28271484375
2.283182144165039,-1268166437,0,0.6094847321510315,0.154232457280159,0.6635115146636963,46.93603515625,17.51708984375,131.40869140625
2.283294916152954,-1268166418,0,0.7559691071510315,0.159359410405159,0.7145369052886963,40.8935546875,7.01904296875,136.474609375
2.290597915649414,-1268166439,1,-0.4429890513420105,0.1554962694644928,0.9886493682861328,-43.15185546875,66.58935546875,69.76318359375
2.2907042503356934,-1268166420,1,-0.5731160044670105,0.0744415819644928,1.0526142120361328,-62.31689453125,81.298828125,99.18212890625
2.32991099357605,-1268166384,1,-0.6766316294670105,-0.0713103711605072,1.2183856964111328,-75.927734375,133.30078125,140.5029296875
2.343290090560913,-1268166382,0,0.9705687165260315,0.107113316655159,0.7396833896636963,29.96826171875,31.005859375,153.74755859375
2.343424081802368,-1268166363,0,1.1067992448806763,0.145199254155159,0.7025740146636963,33.0810546875,45.71533203125,155.517578125
2.350594997406006,-1268166365,1,-0.7752644419670105,-0.1562713086605072,1.4310321807861328,-74.0966796875,153.3203125,172.18017578125
2.4022960662841797,-1268166344,0,1.2344847917556763,0.111263707280159,0.7667829990386963,26.30615234375,42.90771484375,134.521484375
2.403346061706543,-1268166325,0,1.3716918230056763,-0.018130820244550705,0.8556501865386963,20.751953125,19.1650390625,122.25341796875
2.4035110473632812,-1268166306,0,1.4632445573806763,-0.106265589594841,0.8353865146636963,56.5185546875,-4.08935546875,137.20703125
2.4109129905700684,-1268166346,1,-0.8770710825920105,-0.3130095899105072,1.5767841339111328,-78.4912109375,163.4521484375,174.8046875
2.4110851287841797,-1268166327,1,-0.9288288950920105,-0.4697478711605072,1.6663837432861328,-74.462890625,148.3154296875,151.85546875
2.41113018989563,-1268166308,1,-0.9886433482170105,-0.4375213086605072,1.7188739776611328,-39.24560546875,155.517578125,138.3056640625
2.4119019508361816,-1268166289,1,-1.1688191890716553,-0.5634978413581848,1.8951435089111328,5.06591796875,179.74853515625,147.76611328125
2.4332330226898193,-1268166287,0,1.6326781511306763,-0.060611288994550705,0.7821638584136963,101.37939453125,-7.14111328125,146.05712890625
2.4333150386810303,-1268166268,0,1.9315062761306763,0.059994179755449295,0.8092634677886963,132.99560546875,9.70458984375,106.689453125
2.4441988468170166,-1268166270,1,-1.3275105953216553,-0.5280974507331848,1.9300556182861328,41.32080078125,174.49951171875,164.1845703125
2.4761691093444824,-1268166249,0,2.0291624069213867,-0.075503870844841,0.8160994052886963,101.9287109375,21.3623046875,60.48583984375
2.478760004043579,-1268166251,1,-1.2486531734466553,-0.5678923726081848,1.9466571807861328,47.7294921875,142.51708984375,149.5361328125
2.4787700176239014,-1268166232,1,-1.3380086421966553,-0.5634978413581848,1.9691181182861328,52.91748046875,117.67578125,163.2080078125
2.49312424659729,-1268166230,0,2.0723752975463867,-0.241519495844841,0.8466169834136963,113.70849609375,9.033203125,35.888671875
2.493243932723999,-1268166211,0,2.1368284225463867,-0.2556796371936798,0.7526228427886963,167.724609375,-7.14111328125,37.65869140625
2.500446081161499,-1268166213,1,-1.5914266109466553,-0.5061247944831848,2.001344680786133,53.64990234375,136.8408203125,176.025390625
2.5307869911193848,-1268166192,0,2.2762327194213867,-0.086490198969841,0.6278669834136963,218.32275390625,3.23486328125,10.80322265625
2.5314180850982666,-1268166194,1,-1.7965047359466553,-0.6696990132331848,2.056032180786133,77.20947265625,168.88427734375,205.74951171875
2.5314249992370605,-1268166175,1,-1.7264363765716553,-0.8554900288581848,2.115358352661133,95.39794921875,171.9970703125,212.2802734375
2.553194999694824,-1268166173,0,2.3665647506713867,-0.058169882744550705,0.5700056552886963,209.47265625,34.7900390625,-52.55126953125
2.553262233734131,-1268166154,0,2.3699827194213867,-0.125064417719841,0.5189802646636963,186.21826171875,60.24169921875,-89.90478515625
2.560624122619629,-1268166156,1,-1.5931355953216553,-0.8091033101081848,2.158815383911133,118.408203125,123.9013671875,255.859375
2.582926034927368,-1268166118,0,2.1390256881713867,-0.231265589594841,0.3998396098613739,197.08251953125,59.4482421875,-115.66162109375
2.5904970169067383,-1268166120,1,-1.4200398921966553,-0.9172576069831848,2.217409133911133,102.9052734375,104.6142578125,317.68798828125
2.626936197280884,-1268166099,0,2.0628538131713867,-0.223208948969841,0.3649275004863739,188.29345703125,44.00634765625,-150.81787109375
2.630218029022217,-1268166101,1,-1.3455770015716553,-1.0227264165878296,2.296998977661133,113.28125,123.1689453125,326.23291015625
2.6302249431610107,-1268166082,1,-1.0401570796966553,-1.0649627447128296,2.271120071411133,134.33837890625,99.853515625,324.76806640625
2.643156051635742,-1268166080,0,1.9922972917556763,-0.2647128403186798,0.4022810161113739,169.3115234375,30.3955078125,-177.734375
2.6432220935821533,-1268166061,0,1.8653441667556763,-0.3621249496936798,0.3859235942363739,176.57470703125,18.06640625,-186.95068359375
2.6505279541015625,-1268166063,1,-0.8018757700920105,-1.0117400884628296,2.135133743286133,151.7333984375,82.1533203125,340.39306640625
2.6792290210723877,-1268166042,0,1.6900511980056763,-0.2791171371936798,0.3200056254863739,201.11083984375,4.21142578125,-196.77734375
2.6805481910705566,-1268166044,1,-0.6470906138420105,-1.0576385259628296,1.9483661651611328,171.32568359375,84.5947265625,361.083984375
2.6806788444519043,-1268166025,1,-0.5142781138420105,-1.1203826665878296,1.7718524932861328,189.75830078125,90.6982421875,368.83544921875
2.7041239738464355,-1268166023,0,1.4981566667556763,-0.194156214594841,0.2284528911113739,212.70751953125,-36.0107421875,-232.60498046875
2.7041420936584473,-1268166004,0,1.3035765886306763,-0.240542933344841,0.2155134379863739,202.33154296875,-73.66943359375,-270.5078125
2.7322330474853516,-1268165985,0,1.1048461198806763,-0.187564417719841,0.2387067973613739,187.5,-103.21044921875,-278.50341796875
2.733130931854248,-1268165966,0,0.8841429352760315,-0.135074183344841,0.2572614848613739,189.88037109375,-123.4130859375,-264.7705078125
2.740981101989746,-1268166006,1,-0.3311726450920105,-1.0903533697128296,1.5440692901611328,191.95556640625,90.88134765625,365.29541015625
2.741162061691284,-1268165987,1,-0.1778523325920105,-1.0398162603378296,1.3331317901611328,192.07763671875,89.599609375,364.19677734375
2.7411930561065674,-1268165968,1,-0.038936320692300797,-0.9912322163581848,1.1114521026611328,192.07763671875,90.2099609375,362.060546875
2.778069019317627,-1268165949,1,0.0804484486579895,-0.9321501851081848,0.8614521026611328,194.4580078125,97.47314453125,347.0458984375
2.778075933456421,-1268165930,1,0.1639445424079895,-0.8752654194831848,0.5750751495361328,212.40234375,109.2529296875,327.2705078125
2.7934248447418213,-1268165947,0,0.5889769196510315,-0.132144495844841,0.2260114848613739,214.78271484375,-161.865234375,-237.060546875
2.7936289310455322,-1268165928,0,0.3753539025783539,-0.037662070244550705,0.2562849223613739,228.69873046875,-219.1162109375,-257.50732421875
2.7936460971832275,-1268165909,0,0.3270140588283539,0.064632847905159,0.2394392192363739,222.47314453125,-253.84521484375,-276.9775390625
2.8004329204559326,-1268165911,1,0.2674601674079895,-0.8586638569831848,0.3416767120361328,223.69384765625,111.4501953125,300.9033203125
2.830040216445923,-1268165890,0,0.3008910119533539,0.125179722905159,0.2201521098613739,189.14794921875,-262.20703125,-274.90234375
2.830479145050049,-1268165892,1,0.3541300892829895,-0.7234099507331848,0.06018257886171341,240.29541015625,119.5068359375,256.53076171875
2.853070020675659,-1268165854,0,0.1793089658021927,0.3471035659313202,0.1703474223613739,101.6845703125,-225.341796875,-232.5439453125
2.860403060913086,-1268165856,1,0.4764445424079895,-0.5754607319831848,-0.2130107879638672,234.619140625,194.03076171875,188.17138671875
2.8837890625,-1268165835,0,0.1871214658021927,0.4010586440563202,0.0348493829369545,54.0771484375,-209.41162109375,-226.13525390625
2.8837969303131104,-1268165816,0,0.12486560642719269,0.4291348159313202,-0.0662248358130455,37.41455078125,-229.67529296875,-230.16357421875
2.9121780395507812,-1268165797,0,0.1505003720521927,0.3637051284313202,-0.1084611639380455,41.68701171875,-252.685546875,-241.8212890625
2.927983045578003,-1268165837,1,0.6356242299079895,-0.5334685444831848,-0.2359600067138672,216.064453125,238.525390625,153.62548828125
2.9279911518096924,-1268165818,1,0.7747843861579895,-0.5000212788581848,-0.1917705535888672,197.32666015625,275.634765625,103.271484375
2.9279959201812744,-1268165799,1,0.8387492299079895,-0.4404509961605072,-0.1680889129638672,186.6455078125,290.771484375,69.9462890625
2.929408073425293,-1268165780,1,0.9239543080329895,-0.4116424024105072,-0.1426982879638672,155.82275390625,279.72412109375,55.2978515625
2.9432640075683594,-1268165778,0,0.08384998142719269,0.3446621596813202,-0.1028459295630455,40.52734375,-238.34228515625,-208.6181640625
2.943319082260132,-1268165759,0,-0.0023316554725170135,0.4608730971813202,-0.1870744526386261,-0.42724609375,-201.96533203125,-162.41455078125
2.9505670070648193,-1268165761,1,1.1380655765533447,-0.3728240430355072,-0.04870413988828659,85.693359375,281.005859375,53.77197265625
2.9800009727478027,-1268165740,0,-0.08704845607280731,0.4076504409313202,-0.2356584370136261,-33.14208984375,-213.0126953125,-151.18408203125
2.9829421043395996,-1268165742,1,1.1568644046783447,-0.3945525586605072,0.1983661651611328,12.75634765625,251.46484375,31.005859375
2.98294997215271,-1268165723,1,1.1942179203033447,-0.3603728711605072,0.3719501495361328,-42.236328125,228.3935546875,7.2021484375
3.003173828125,-1268165721,0,-0.1466187685728073,0.3265957534313202,-0.2290666401386261,-28.99169921875,-243.22509765625,-141.78466796875
3.003300189971924,-1268165702,0,-0.08875744044780731,0.2719082534313202,-0.1726701557636261,-6.34765625,-277.099609375,-118.83544921875
3.010362148284912,-1268165704,1,1.2608683109283447,-0.3750213086605072,0.7271747589111328,-60.72998046875,190.673828125,-29.72412109375
3.033221960067749,-1268165683,0,-0.021862905472517014,0.228695347905159,-0.1221330389380455,-12.26806640625,-267.4560546875,-75.98876953125
3.0332889556884766,-1268165664,0,0.041857797652482986,0.231136754155159,-0.1109025701880455,-46.0205078125,-242.12646484375,-36.62109375
3.040696144104004,-1268165685,1,1.1444132328033447,-0.2470916211605072,0.9801044464111328,-21.97265625,143.06640625,-53.89404296875
3.0408170223236084,-1268165666,1,1.1375772953033447,-0.022970523685216904,1.0418720245361328,32.8369140625,118.22509765625,-47.8515625
3.0756101608276367,-1268165645,0,0.061877328902482986,0.185238316655159,-0.1062638983130455,-73.05908203125,-241.0888671875,-24.7802734375
3.0780961513519287,-1268165647,1,1.1866495609283447,0.1303497850894928,1.0001239776611328,88.19580078125,90.33203125,-46.81396484375
3.093125104904175,-1268165626,0,0.08995349705219269,0.086361363530159,-0.0469377264380455,-89.41650390625,-261.71875,-20.20263671875
3.100522041320801,-1268165628,1,1.0203897953033447,0.2690216600894928,0.9908466339111328,95.03173828125,99.2431640625,-34.5458984375
3.1298110485076904,-1268165590,0,0.3582640588283539,-0.189029261469841,0.1691267192363739,-98.2666015625,-303.89404296875,44.0673828125
3.130500078201294,-1268165592,1,0.4996379017829895,0.4972931444644928,0.7420673370361328,12.939453125,101.806640625,65.12451171875
3.1305952072143555,-1268165573,1,0.4056437611579895,0.3930450975894928,0.5726337432861328,-55.17578125,116.943359375,101.4404296875
3.153228998184204,-1268165571,0,0.6219359040260315,-0.132632777094841,0.1876814067363739,-88.19580078125,-295.22705078125,100.5859375
3.153337240219116,-1268165552,0,0.8548460602760315,-0.084048792719841,0.1405622661113739,-95.52001953125,-293.39599609375,107.11669921875
3.1603689193725586,-1268165554,1,0.3248332142829895,0.1708771288394928,0.4559345245361328,-109.86328125,154.35791015625,130.126953125
3.1833338737487793,-1268165533,0,0.9676390290260315,-0.182681605219841,0.1176130548119545,-115.05126953125,-301.513671875,105.8349609375
3.183365821838379,-1268165514,0,1.1172972917556763,-0.3606601059436798,0.1769392192363739,-141.90673828125,-326.5380859375,126.8310546875
3.191006898880005,-1268165535,1,0.3118937611579895,-0.1574920117855072,0.4591083526611328,-138.85498046875,215.88134765625,141.4794921875
3.191082000732422,-1268165516,1,0.2735636830329895,-0.4831756055355072,0.5462665557861328,-135.3759765625,272.0947265625,105.16357421875
3.2129709720611572,-1268165495,0,1.3489867448806763,-0.4085116684436798,0.3141462504863739,-164.6728515625,-345.947265625,185.1806640625
3.230998992919922,-1268165497,1,0.3267863392829895,-0.5710662007331848,0.5738544464111328,-104.00390625,292.48046875,-22.216796875
3.243204116821289,-1268165476,0,1.6197386980056763,-0.4356112778186798,0.3341657817363739,-181.45751953125,-341.552734375,229.248046875
3.2433111667633057,-1268165457,0,1.8470336198806763,-0.4924960434436798,0.3029157817363739,-197.69287109375,-338.0126953125,240.78369140625
3.2505879402160645,-1268165478,1,0.1590617299079895,-0.4536345899105072,0.5296649932861328,-79.16259765625,227.9052734375,-156.79931640625
3.2507030963897705,-1268165459,1,0.015751179307699203,-0.3586638867855072,0.4176044464111328,-124.267578125,136.16943359375,-226.86767578125
3.281785011291504,-1268165438,0,2.0591917037963867,-0.5205722451210022,0.2936384379863739,-203.30810546875,-359.31396484375,228.1494140625
3.2833468914031982,-1268165440,1,-0.1656453013420105,-0.3921111524105072,0.3619403839111328,-207.8857421875,101.86767578125,-274.2919921875
3.283353090286255,-1268165421,1,-0.3990437388420105,-0.3613494336605072,0.4212665557861328,-310.302734375,129.5166015625,-352.23388671875
3.3031370639801025,-1268165419,0,2.3043088912963867,-0.4153476059436798,0.3253767192363739,-215.087890625,-399.84130859375,249.20654296875
3.303241014480591,-1268165400,0,2.5843381881713867,-0.3599276840686798,0.3436872661113739,-250.18310546875,-408.26416015625,278.25927734375
3.3103621006011963,-1268165402,1,-0.6949421763420105,-0.2944549024105072,0.6380634307861328,-392.27294921875,199.0966796875,-428.1005859375
3.3331289291381836,-1268165381,0,3.0037717819213867,-0.3284335434436798,0.3048689067363739,-351.13525390625,-370.30029296875,295.41015625
3.340963125228882,-1268165383,1,-1.3204305171966553,-0.1855681836605072,1.1793231964111328,-462.646484375,249.6337890625,-476.50146484375
3.3410539627075195,-1268165364,1,-2.0552937984466553,-0.040792789310216904,2.039918899536133,-501.77001953125,251.64794921875,-460.99853515625
3.375709056854248,-1268165362,0,3.3170042037963867,-0.139468714594841,0.3297712504863739,-475.89111328125,-362.12158203125,184.38720703125
3.392336130142212,-1268165326,0,4.155383110046387,-0.2652011215686798,1.4835798740386963,-612.1826171875,-515.2587890625,49.49951171875
3.396311044692993,-1268165307,0,4.016222953796387,-0.3899569809436798,2.1627790927886963,-573.91357421875,-451.2939453125,54.74853515625
3.400786876678467,-1268165328,1,-2.3697469234466553,1.0380645990371704,3.573366165161133,-285.2783203125,301.69677734375,-243.2861328125
3.4008960723876953,-1268165309,1,-1.9564168453216553,1.0033966302871704,3.314577102661133,-53.1005859375,292.236328125,-63.41552734375
3.4305260181427,-1268165290,1,-0.8936726450920105,-0.2678435742855072,3.121950149536133,31.73828125,238.95263671875,-24.10888671875
3.4306509494781494,-1268165271,1,-0.6470906138420105,-0.8520720601081848,3.269411087036133,86.48681640625,105.5908203125,-129.45556640625
3.45314621925354,-1268165288,0,4.144396781921387,-0.4304843246936798,1.9696638584136963,-515.68603515625,-395.3857421875,-20.5078125
3.453258991241455,-1268165269,0,4.362658500671387,-1.1370272636413574,2.1405622959136963,-494.56787109375,-421.20361328125,-94.66552734375
3.4543650150299072,-1268165250,0,4.170763969421387,-1.8328280448913574,2.6124861240386963,-556.82373046875,-278.99169921875,-104.8583984375
3.4602210521698,-1268165252,1,-1.2850301265716553,-0.5307829976081848,3.451051712036133,102.6611328125,-5.859375,-207.09228515625
3.483891010284424,-1268165231,0,3.4078245162963867,-1.9368319511413574,2.8280622959136963,-508.72802734375,-21.42333984375,-162.17041015625
3.490708112716675,-1268165233,1,-1.7777059078216553,-0.3842986524105072,3.045534133911133,34.97314453125,-107.2998046875,-166.68701171875
3.4908359050750732,-1268165214,1,-1.1304891109466553,-0.9560759663581848,3.162233352661133,114.44091796875,-144.4091796875,-186.82861328125
3.5264179706573486,-1268165212,0,2.8670530319213867,-1.3543124198913574,2.4091169834136963,-356.4453125,88.19580078125,-206.97021484375
3.5264251232147217,-1268165193,0,2.3260374069213867,-0.9964023232460022,1.5360701084136963,-289.0625,160.15625,-202.880859375
3.52903413772583,-1268165195,1,-1.1951863765716553,-0.8432829976081848,2.997682571411133,308.9599609375,-215.27099609375,-229.248046875
3.5432698726654053,-1268165174,0,1.9957152605056763,-0.6841464638710022,0.6647322177886963,-333.31298828125,179.38232421875,-255.4931640625
3.5433390140533447,-1268165155,0,1.9493285417556763,-1.1431307792663574,1.4081404209136963,-369.873046875,205.26123046875,-322.6318359375
3.5505919456481934,-1268165176,1,-1.4024617671966553,-0.6374724507331848,2.398561477661133,341.49169921875,-277.4658203125,-228.1494140625
3.5506591796875,-1268165157,1,-1.6856648921966553,-0.7885954976081848,1.6378192901611328,209.1064453125,-363.1591796875,-187.80517578125
3.5836029052734375,-1268165136,0,1.9017211198806763,-1.9214510917663574,1.5490095615386963,-204.89501953125,170.34912109375,-343.81103515625
3.583620071411133,-1268165138,1,-1.4486043453216553,-0.8874724507331848,1.5162372589111328,144.04296875,-408.14208984375,-212.0361328125
3.6032278537750244,-1268165117,0,1.8961058855056763,-1.6799960136413574,1.2772810459136963,-57.18994140625,225.4638671875,-270.1416015625
3.603311061859131,-1268165098,0,1.8145629167556763,-1.6768221855163574,1.3483259677886963,0.6103515625,312.01171875,-207.51953125
3.612468957901001,-1268165119,1,-1.8809773921966553,-0.8452361226081848,1.2420673370361328,110.2294921875,-383.11767578125,-237.24365234375
3.6124789714813232,-1268165100,1,-1.6553914546966553,-0.6567595601081848,1.0343036651611328,115.8447265625,-399.96337890625,-269.6533203125
3.640989065170288,-1268165064,1,-1.3885457515716553,-0.8564665913581848,0.9249286651611328,132.4462890625,-373.35205078125,-333.984375
3.676077127456665,-1268165045,1,-1.6226766109466553,-1.0395721197128296,0.7745380401611328,200.62255859375,-305.7861328125,-343.07861328125
3.6937520503997803,-1268165062,0,1.7757445573806763,-1.2569003105163574,0.9735701084136963,158.69140625,354.79736328125,-199.8291015625
3.693850040435791,-1268165043,0,1.6424437761306763,-1.0020174980163574,0.7245466709136963,187.31689453125,372.1923828125,-225.341796875
3.693938970565796,-1268165024,0,1.5513793230056763,-0.6550937294960022,0.3458845317363739,178.8330078125,390.869140625,-262.939453125
3.69439697265625,-1268165005,0,1.1319457292556763,-0.6858554482460022,0.3973982036113739,181.2744140625,396.1181640625,-293.8232421875
3.7292768955230713,-1268164986,0,0.8372679352760315,-0.9939609169960022,0.5280134677886963,277.28271484375,348.57177734375,-239.56298828125
3.7313170433044434,-1268165026,1,-1.3819539546966553,-0.5637419819831848,0.09143257886171341,275.08544921875,-250.30517578125,-390.13671875
3.731326103210449,-1268165007,1,-1.7149617671966553,-0.0713103711605072,-0.6129131317138672,223.388671875,-190.12451171875,-285.46142578125
3.7313320636749268,-1268164988,1,-1.8555867671966553,0.2472931444644928,0.6854267120361328,241.51611328125,-186.1572265625,-86.3037109375
3.7318241596221924,-1268164969,1,-0.4676472544670105,0.1828400194644928,0.4627704620361328,477.05078125,-293.212890625,-241.63818359375
3.7597970962524414,-1268164950,1,-1.3575398921966553,-0.3078826367855072,-0.1300029754638672,490.41748046875,-182.92236328125,-225.15869140625
3.7849159240722656,-1268164967,0,0.7947874665260315,-0.8140292763710022,0.4035017192363739,320.80078125,323.3642578125,-221.37451171875
3.784924030303955,-1268164948,0,0.8387327790260315,-0.5952792763710022,0.1654646098613739,286.07177734375,306.33544921875,-227.47802734375
3.784929037094116,-1268164929,0,0.7256956696510315,-0.5676913857460022,0.1161482110619545,221.37451171875,286.376953125,-221.0693359375
3.790781021118164,-1268164931,1,-1.8511922359466553,-0.1311248242855072,-0.1959209442138672,541.8701171875,-169.0673828125,-78.18603515625
3.7909021377563477,-1268164912,1,-1.0421102046966553,0.1088654100894928,-0.2200908660888672,568.29833984375,-84.04541015625,-77.20947265625
3.8260300159454346,-1268164910,0,0.5533323884010315,-0.5589023232460022,0.1862165629863739,189.5751953125,262.63427734375,-182.6171875
3.826038122177124,-1268164891,0,0.4268675744533539,-0.5017734169960022,0.2926618754863739,184.6923828125,255.31005859375,-158.935546875
3.8287580013275146,-1268164893,1,-1.0511434078216553,-0.4653533399105072,-0.2757549285888672,580.810546875,-38.87939453125,-139.22119140625
3.843132972717285,-1268164872,0,0.3489867150783539,-0.4309726059436798,0.3585798442363739,198.3642578125,258.9111328125,-105.8349609375
3.8507280349731445,-1268164874,1,-0.9256550669670105,-0.5988982319831848,-0.3116436004638672,543.9453125,-51.7578125,-141.05224609375
3.850847005844116,-1268164855,1,-0.9713093638420105,-0.7888396382331848,-0.4056377410888672,412.4755859375,-140.13671875,-101.806640625
3.882204055786133,-1268164853,0,0.3702269494533539,-0.4473300278186798,0.3451521098613739,181.0302734375,284.48486328125,-40.95458984375
3.882211208343506,-1268164834,0,0.3685179650783539,-0.4749179184436798,0.3329450786113739,157.470703125,307.67822265625,15.93017578125
3.882265090942383,-1268164836,1,-0.9686238169670105,-0.8633025288581848,-0.4864482879638672,196.83837890625,-268.12744140625,-36.56005859375
3.9030561447143555,-1268164798,0,0.4310179650783539,-0.4192538559436798,0.2809431254863739,106.50634765625,327.33154296875,118.5302734375
3.9103291034698486,-1268164800,1,-0.8951374888420105,-1.0097869634628296,-0.5462627410888672,-72.265625,-271.6064453125,-104.43115234375
3.935059070587158,-1268164779,0,0.4312621057033539,-0.5303378701210022,0.4086286723613739,127.0751953125,304.01611328125,165.71044921875
3.9408059120178223,-1268164781,1,-1.0433309078216553,-0.9382537007331848,-0.5560283660888672,-38.0859375,-240.72265625,-168.9453125
3.9752488136291504,-1268164760,0,0.5711546540260315,-0.5830722451210022,0.5382673740386963,192.3828125,299.072265625,215.75927734375
3.9752562046051025,-1268164741,0,0.8152952790260315,-0.4893222153186798,0.4984724223613739,247.6806640625,302.24609375,243.5302734375
3.9778010845184326,-1268164762,1,-1.2830770015716553,-0.6828826069831848,-0.7120342254638672,-1.5869140625,-208.1298828125,-231.75048828125
3.97780704498291,-1268164743,1,-1.4339559078216553,-0.5012419819831848,-0.6746807098388672,-66.2841796875,-202.81982421875,-233.45947265625
4.001520156860352,-1268164724,1,-1.5618855953216553,-0.5132048726081848,-0.5262432098388672,-129.94384765625,-195.80078125,-247.98583984375
4.001529216766357,-1268164705,1,-1.6737020015716553,-0.5840056538581848,-0.4969463348388672,-116.943359375,-150.5126953125,-276.67236328125
4.029646158218384,-1268164722,0,1.0225707292556763,-0.4578280746936798,0.4520857036113739,265.56396484375,297.05810546875,234.4970703125
4.029654026031494,-1268164703,0,1.2020140886306763,-0.4985995590686798,0.5355818271636963,283.50830078125,307.92236328125,251.5869140625
4.029659271240234,-1268164684,0,1.5196410417556763,-0.6638827919960022,0.6010115146636963,307.80029296875,340.63720703125,317.5048828125
4.031698942184448,-1268164686,1,-1.9237020015716553,-0.5239470601081848,-0.3536357879638672,-59.326171875,-77.33154296875,-311.34033203125
4.053336143493652,-1268164665,0,1.9669066667556763,-0.8025546669960022,0.4735700786113739,355.712890625,361.572265625,397.8271484375
4.0534751415252686,-1268164646,0,2.4893674850463867,-0.6983066201210022,0.1010114923119545,398.3154296875,344.17724609375,414.0625
4.060641050338745,-1268164667,1,-2.2806355953216553,-0.3196013867855072,-0.3253154754638672,-36.80419921875,-53.28369140625,-341.30859375
4.060741186141968,-1268164648,1,-2.5548055171966553,-0.1909392774105072,-0.3084697723388672,-69.64111328125,-68.2373046875,-326.171875
4.082988023757935,-1268164627,0,2.7171506881713867,-0.4500155746936798,-0.3726213276386261,434.9365234375,265.13671875,290.52734375
4.09086799621582,-1268164629,1,-2.7493855953216553,-0.2890838086605072,-0.4586162567138672,-105.40771484375,-64.51416015625,-318.4814453125
4.090986013412476,-1268164610,1,-3.0508992671966553,-0.2424529492855072,-0.4967021942138672,-119.93408203125,-23.49853515625,-304.6875
4.114720106124878,-1268164608,0,2.9337034225463867,-0.8106113076210022,-0.6992814540863037,461.60888671875,181.2744140625,192.2607421875
4.126085042953491,-1268164589,0,3.1815061569213867,-1.1538729667663574,-0.7305314540863037,511.5966796875,126.708984375,225.4638671875
4.128885984420776,-1268164591,1,-3.1566121578216553,-0.3242400586605072,-0.3629131317138672,-133.9111328125,20.3857421875,-263.48876953125
4.143013954162598,-1268164570,0,3.4693479537963867,-0.9312167763710022,-0.4983537495136261,547.2412109375,91.9189453125,185.24169921875
4.150449991226196,-1268164572,1,-3.1727254390716553,-0.4831756055355072,-0.2716045379638672,-153.3203125,57.67822265625,-253.96728515625
4.18130898475647,-1268164534,0,3.3680295944213867,-1.2422518730163574,-0.0747697576880455,610.90087890625,130.92041015625,-197.021484375
4.182952880859375,-1268164536,1,-3.0987508296966553,-0.2453826367855072,-0.11535453051328659,-221.923828125,95.03173828125,-197.509765625
4.203258991241455,-1268164515,0,3.2928342819213867,-1.5269198417663574,-0.4924943745136261,588.623046875,104.736328125,-281.06689453125
4.203380107879639,-1268164496,0,3.0330686569213867,-1.2835116386413574,-0.8882462978363037,501.77001953125,28.86962890625,-267.333984375
4.210706949234009,-1268164517,1,-2.8861043453216553,-0.5632537007331848,0.1585712432861328,-239.3798828125,111.87744140625,-185.60791015625
4.210813999176025,-1268164498,1,-2.8807332515716553,-0.5219939351081848,0.2652606964111328,-241.02783203125,136.71875,-196.044921875
4.233263254165649,-1268164477,0,2.8377561569213867,-1.2041659355163574,-0.8591935634613037,453.857421875,-31.73828125,-293.76220703125
4.240715026855469,-1268164479,1,-2.7554891109466553,-0.3659881055355072,0.4281024932861328,-261.71875,126.52587890625,-205.322265625
4.240801095962524,-1268164460,1,-2.8299520015716553,-0.014181461185216904,0.1964130401611328,-336.181640625,136.8408203125,-143.12744140625
4.276052951812744,-1268164458,0,3.1507444381713867,-0.9634433388710022,-0.7537248134613037,396.97265625,-86.42578125,-406.92138671875
4.276059865951538,-1268164439,0,2.9695920944213867,-1.2866854667663574,-0.5037248134613037,330.6884765625,-112.48779296875,-374.6337890625
4.278519153594971,-1268164441,1,-2.4261434078216553,-0.2509978711605072,0.4344501495361328,-351.13525390625,176.33056640625,-101.6845703125
4.292986154556274,-1268164420,0,2.8372678756713867,-1.3753085136413574,0.1718122661113739,333.49609375,-212.0361328125,-264.7705078125
4.300421237945557,-1268164422,1,-2.1839559078216553,-0.2209685742855072,0.5804462432861328,-338.2568359375,199.64599609375,-123.96240234375
4.300504207611084,-1268164403,1,-1.9761922359466553,0.0866486132144928,0.6361103057861328,-381.4697265625,202.57568359375,-105.40771484375
4.3305768966674805,-1268164401,0,3.6031370162963867,-0.7957187294960022,0.1215193048119545,308.4716796875,-291.8701171875,-358.09326171875
4.330589056015015,-1268164382,0,3.5836057662963867,-1.0042147636413574,0.1896345317363739,143.49365234375,-223.20556640625,-417.3583984375
4.331075191497803,-1268164384,1,-1.9256551265716553,0.2038361132144928,0.5802021026611328,-461.181640625,195.068359375,-6.77490234375
4.353097915649414,-1268164363,0,2.5308713912963867,-1.7898592948913574,0.4406110942363739,174.01123046875,-200.8056640625,-316.10107421875
4.3532609939575195,-1268164344,0,2.3287229537963867,-0.9431796669960022,-0.2820451557636261,104.4921875,-311.1572265625,-324.0966796875
4.36058497428894,-1268164365,1,-1.5872762203216553,0.0700470507144928,0.7203388214111328,-496.337890625,180.7861328125,63.8427734375
4.360692024230957,-1268164346,1,-1.3865926265716553,0.1430450975894928,0.8172626495361328,-496.15478515625,182.43408203125,94.29931640625
4.382993936538696,-1268164325,0,2.4437131881713867,-0.9119296669960022,-0.0918596014380455,36.0107421875,-337.40234375,-347.5341796875
4.390442132949829,-1268164327,1,-1.3421590328216553,0.2719513475894928,0.8912372589111328,-487.548828125,195.37353515625,165.4052734375
4.4260780811309814,-1268164306,0,2.3431272506713867,-1.0471835136413574,0.1066267266869545,-65.7958984375,-304.19921875,-399.10888671875
4.428661108016968,-1268164308,1,-1.0196492671966553,0.4101349413394928,1.2137470245361328,-434.87548828125,167.96875,228.1494140625
4.443064212799072,-1268164270,0,1.3592406511306763,-0.9785800576210022,0.1671735942363739,-137.87841796875,-204.58984375,-330.99365234375
4.450643062591553,-1268164272,1,-0.5831257700920105,0.4230743944644928,1.0992450714111328,-424.01123046875,145.99609375,339.9658203125
4.450700044631958,-1268164253,1,-0.2122761607170105,0.0878693163394928,1.1295185089111328,-365.66162109375,116.943359375,335.44921875
4.480924844741821,-1268164234,1,0.1461222767829895,-0.060568179935216904,1.0855731964111328,-302.734375,128.173828125,310.60791015625
4.503277063369751,-1268164251,0,1.1041136980056763,-0.6709628701210022,0.0792829766869545,-110.65673828125,-260.8642578125,-311.95068359375
4.5033910274505615,-1268164232,0,1.0948363542556763,-0.6177402138710022,0.0277693048119545,-110.16845703125,-312.19482421875,-318.05419921875
4.504981994628906,-1268164213,0,1.0552855730056763,-0.7507968544960022,0.0326521173119545,-133.1787109375,-305.11474609375,-318.90869140625
4.505084037780762,-1268164194,0,0.9896116852760315,-0.8784824013710022,0.1369001567363739,-171.9970703125,-240.3564453125,-257.568359375
4.510415077209473,-1268164215,1,0.6929972767829895,-0.1743377149105072,1.1844501495361328,-219.3603515625,166.44287109375,283.26416015625
4.510432958602905,-1268164196,1,0.9896281361579895,-0.1711638867855072,1.3809833526611328,-148.4375,133.1787109375,207.3974609375
4.533262014389038,-1268164175,0,0.7098265290260315,-0.8355136513710022,0.2355329692363739,-191.22314453125,-182.0068359375,-177.55126953125
4.540816068649292,-1268164177,1,0.8636515736579895,0.009744320064783096,1.5640888214111328,-71.2890625,90.9423828125,196.96044921875
4.564327955245972,-1268164156,0,0.6785765290260315,-0.7366366982460022,0.1972028911113739,-186.279296875,-197.265625,-145.01953125
4.5643370151519775,-1268164137,0,0.8321409821510315,-0.7766757607460022,0.2025739848613739,-187.01171875,-232.421875,-148.8037109375
4.5798749923706055,-1268164158,1,0.6532023549079895,0.1708771288394928,1.4735126495361328,-7.26318359375,89.29443359375,220.703125
4.580733060836792,-1268164139,1,0.3919718861579895,0.4618927538394928,1.2149677276611328,4.21142578125,130.67626953125,256.40869140625
4.593033075332642,-1268164118,0,0.9796019196510315,-0.9505038857460022,0.3546735942363739,-217.7734375,-284.60693359375,-145.56884765625
4.600492000579834,-1268164120,1,-0.031123820692300797,0.3498322069644928,1.2554950714111328,-48.095703125,135.3759765625,264.2822265625
4.600592136383057,-1268164101,1,0.1688273549079895,-0.032492008060216904,1.1434345245361328,-88.134765625,140.2587890625,295.83740234375
4.629756927490234,-1268164099,0,0.7842894196510315,-0.9798007607460022,0.4230329692363739,-207.70263671875,-272.15576171875,-118.1640625
4.631396055221558,-1268164080,0,0.6910277009010315,-0.9287753701210022,0.3693220317363739,-198.486328125,-262.8173828125,-76.2939453125
4.631968975067139,-1268164082,1,0.2686808705329895,-0.4663299024105072,1.1490497589111328,-78.9794921875,166.259765625,315.0634765625
4.653093099594116,-1268164061,0,0.6963987946510315,-0.9497714638710022,0.2433454692363739,-184.5703125,-284.24072265625,-44.189453125
4.6606221199035645,-1268164063,1,0.3360636830329895,-0.6855681538581848,1.1553974151611328,-39.48974609375,185.1806640625,295.0439453125
4.660704135894775,-1268164044,1,0.2999308705329895,-0.9009001851081848,1.1285419464111328,-0.42724609375,194.2138671875,214.4775390625
4.6830668449401855,-1268164042,0,0.7200804352760315,-0.9595370888710022,0.2135603129863739,-167.78564453125,-331.0546875,-20.5078125
4.712368965148926,-1268164006,0,0.8463011384010315,-0.9697909951210022,0.1178571954369545,-164.4287109375,-340.14892578125,61.82861328125
4.724642992019653,-1268163987,0,1.0787230730056763,-0.9175449013710022,0.0473005548119545,-176.7578125,-348.32763671875,115.3564453125
4.7264649868011475,-1268164008,1,0.3853800892829895,-0.8571990132331848,1.0711688995361328,-35.888671875,111.51123046875,-0.30517578125
4.726470947265625,-1268163989,1,0.1644328236579895,-0.8271697163581848,1.0572528839111328,-129.5166015625,30.029296875,-96.37451171875
4.743058919906616,-1268163968,0,1.2596312761306763,-0.9151034951210022,-0.0203263983130455,-186.279296875,-380.67626953125,136.65771484375
4.750591993331909,-1268163970,1,-0.0816609263420105,-0.7710173726081848,0.9742450714111328,-208.92333984375,-21.05712890625,-175.78125
4.750704050064087,-1268163951,1,-0.2408406138420105,-0.7614958882331848,0.9044208526611328,-240.234375,-23.74267578125,-237.9150390625
4.780385971069336,-1268163949,0,1.6172972917556763,-0.9634433388710022,-0.0906388983130455,-192.56591796875,-451.96533203125,165.771484375
4.780397176742554,-1268163930,0,2.2484006881713867,-0.9619784951210022,-0.0530412420630455,-222.0458984375,-521.240234375,225.28076171875
4.780907154083252,-1268163932,1,-0.4674031138420105,-0.6421111226081848,0.8631610870361328,-259.6435546875,-4.7607421875,-326.47705078125
4.803490161895752,-1268163911,0,2.9500608444213867,-0.8784824013710022,0.2123396098613739,-281.18896484375,-560.24169921875,251.03759765625
4.810542106628418,-1268163913,1,-0.6776081919670105,-0.4009002149105072,0.9615497589111328,-306.70166015625,10.92529296875,-421.32568359375
4.810611963272095,-1268163894,1,-0.9009968638420105,-0.0825408399105072,1.1920185089111328,-382.32421875,16.9677734375,-491.3330078125
4.8335700035095215,-1268163892,0,3.4847288131713867,-0.8296542763710022,0.4218122661113739,-342.22412109375,-584.77783203125,238.46435546875
4.833579063415527,-1268163873,0,3.9588499069213867,-0.9990878701210022,0.7667829990386963,-425.537109375,-598.388671875,213.31787109375
4.84069299697876,-1268163875,1,-1.3243367671966553,0.1530548632144928,1.6317157745361328,-447.75390625,33.8134765625,-532.89794921875
4.877115964889526,-1268163854,0,3.6688108444213867,-0.8799472451210022,0.7079451084136963,-490.17333984375,-591.12548828125,240.90576171875
4.877124071121216,-1268163835,0,4.071398735046387,-1.5330233573913574,0.4923689067363739,-558.837890625,-645.32470703125,313.1103515625
4.88040018081665,-1268163856,1,-1.8983113765716553,0.7233673930168152,2.474733352661133,-482.666015625,49.98779296875,-532.04345703125
4.880407094955444,-1268163837,1,-2.2476766109466553,1.2409454584121704,3.321168899536133,-399.4140625,93.68896484375,-388.3056640625
4.899505853652954,-1268163818,1,-2.2413289546966553,1.8029571771621704,3.369508743286133,-238.09814453125,158.02001953125,-158.935546875
4.929352045059204,-1268163816,0,5.317004203796387,-3.1135897636413574,1.0045759677886963,-707.45849609375,-646.30126953125,280.45654296875
4.930928945541382,-1268163797,0,5.294787406921387,-2.7131991386413574,2.9281599521636963,-750.0,-502.44140625,148.4375
4.930938959121704,-1268163778,0,5.011096000671387,-1.7280917167663574,3.4464704990386963,-521.484375,-309.99755859375,-6.2255859375
4.931473016738892,-1268163799,1,-1.6575887203216553,1.3017364740371704,2.801637649536133,-202.2705078125,188.41552734375,-21.3623046875
4.931478977203369,-1268163780,1,-0.2713581919670105,-0.2507537305355072,3.105104446411133,-219.3603515625,141.05224609375,-85.205078125
4.959496974945068,-1268163744,1,-1.3416707515716553,-0.055685367435216904,3.923707962036133,70.37353515625,-76.11083984375,-311.34033203125
4.9834370613098145,-1268163742,0,3.6402463912963867,-0.8963046669960022,3.1732771396636963,-371.09375,-126.46484375,-154.4189453125
4.983551979064941,-1268163723,0,3.2422971725463867,-0.8064609169960022,3.0624372959136963,-405.76171875,-17.7001953125,-125.48828125
5.0122880935668945,-1268163704,0,2.9334592819213867,-0.6023593544960022,2.9508650302886963,-381.16455078125,98.876953125,-170.22705078125
5.024549245834351,-1268163685,0,2.2879514694213867,-0.5252109169960022,1.6430037021636963,-418.76220703125,164.85595703125,-170.5322265625
5.02633810043335,-1268163725,1,-1.4942586421966553,0.1630646288394928,2.977663040161133,136.65771484375,-161.19384765625,-256.4697265625
5.026344060897827,-1268163706,1,-0.7921101450920105,-0.5483611226081848,2.769899368286133,230.16357421875,-220.03173828125,-264.09912109375
5.026349067687988,-1268163687,1,-1.1871297359466553,-0.4865935742855072,2.166383743286133,326.0498046875,-261.53564453125,-270.81298828125
5.0429770946502686,-1268163666,0,2.6880979537963867,-1.4837069511413574,2.3073103427886963,-401.0009765625,285.58349609375,-227.05078125
5.050477027893066,-1268163668,1,-1.4322469234466553,-0.7263396382331848,1.6126728057861328,249.755859375,-356.14013671875,-251.89208984375
5.079384088516235,-1268163647,0,2.9886350631713867,-1.5549960136413574,2.1410505771636963,-138.97705078125,286.43798828125,-379.8828125
5.079393148422241,-1268163628,0,2.1644163131713867,-1.7686190605163574,1.2526228427886963,22.88818359375,350.5859375,-371.58203125
5.082799196243286,-1268163649,1,-1.3045613765716553,-0.5588591694831848,1.4705829620361328,244.68994140625,-395.93505859375,-306.15234375
5.0828070640563965,-1268163630,1,-1.7569539546966553,-0.6325896382331848,1.0408954620361328,109.9853515625,-401.67236328125,-233.21533203125
5.103085041046143,-1268163609,0,1.7134886980056763,-1.6782870292663574,0.9850447177886963,22.0947265625,393.12744140625,-255.92041015625
5.110528945922852,-1268163611,1,-1.3997762203216553,-0.1970427930355072,0.8790302276611328,117.61474609375,-376.8310546875,-238.22021484375
5.110630035400391,-1268163592,1,-1.3968465328216553,-0.5500701069831848,0.7132587432861328,157.71484375,-336.5478515625,-280.76171875
5.133486032485962,-1268163590,0,1.5587035417556763,-1.5371737480163574,1.1840193271636963,83.43505859375,425.6591796875,-198.05908203125
5.133495092391968,-1268163571,0,1.5858031511306763,-1.2263827323913574,0.8825056552886963,130.67626953125,423.4619140625,-210.44921875
5.140718221664429,-1268163573,1,-1.1343953609466553,-0.4775603711605072,0.8641376495361328,277.40478515625,-303.52783203125,-278.74755859375
5.1924521923065186,-1268163552,0,1.4432250261306763,-1.0982089042663574,0.6569197177886963,179.13818359375,412.109375,-282.8369140625
5.193297863006592,-1268163533,0,1.2059203386306763,-1.0867342948913574,0.5621931552886963,272.88818359375,370.54443359375,-327.5146484375
5.200433015823364,-1268163554,1,-1.1639363765716553,-0.6135466694831848,0.6055927276611328,332.275390625,-282.28759765625,-347.96142578125
5.200506210327148,-1268163535,1,-1.3704793453216553,-0.2905486524105072,0.2227802276611328,329.77294921875,-260.68115234375,-307.92236328125
5.201749086380005,-1268163516,1,-1.8841512203216553,0.7057892680168152,-0.1973857879638672,217.8955078125,-217.46826171875,-173.9501953125
5.231519937515259,-1268163514,0,1.0186644792556763,-1.0012850761413574,0.4721052348613739,338.31787109375,330.13916015625,-336.60888671875
5.231526851654053,-1268163478,0,0.8721800446510315,-0.6531406044960022,0.1864607036113739,300.47607421875,249.6337890625,-321.22802734375
5.233154058456421,-1268163480,1,-0.9818074107170105,-0.1736052930355072,0.8182392120361328,348.69384765625,-120.17822265625,-140.07568359375
5.253046035766602,-1268163459,0,0.8167601227760315,-0.4966464340686798,0.1442243754863739,238.4033203125,199.462890625,-314.0869140625
5.260534048080444,-1268163461,1,-1.1014363765716553,-0.2785857617855072,0.3870868682861328,525.20751953125,-111.9384765625,-247.55859375
5.260641098022461,-1268163442,1,-1.2603719234466553,-0.4121306836605072,0.01550484448671341,494.384765625,-146.728515625,-196.8994140625
5.283196926116943,-1268163440,0,0.7823362946510315,-0.4331698715686798,0.2057478129863739,188.720703125,150.5126953125,-297.607421875
5.283318042755127,-1268163421,0,0.6546507477760315,-0.5459628701210022,0.3890974223613739,164.48974609375,144.1650390625,-256.16455078125
5.290442943572998,-1268163423,1,-0.9300495982170105,-0.6054900288581848,-0.2076396942138672,304.50439453125,-192.44384765625,-148.3154296875
5.325545072555542,-1268163402,0,0.5460081696510315,-0.5713534951210022,0.5709822177886963,178.1005859375,170.47119140625,-194.15283203125
5.328145980834961,-1268163404,1,-0.7220417857170105,-0.7788298726081848,-0.1883525848388672,164.48974609375,-220.5810546875,-137.14599609375
5.32815408706665,-1268163385,1,-0.6812703013420105,-0.9060271382331848,-0.11901663988828659,76.5380859375,-238.34228515625,-164.24560546875
5.343400955200195,-1268163383,0,0.4214964807033539,-0.5296054482460022,0.5924665927886963,183.89892578125,224.06005859375,-132.2021484375
5.343410015106201,-1268163364,0,0.4156371057033539,-0.5281406044960022,0.5236189365386963,147.76611328125,266.29638671875,-55.35888671875
5.350387096405029,-1268163366,1,-0.7676960825920105,-0.9570525288581848,-0.06164359301328659,25.93994140625,-262.63427734375,-213.9892578125
5.380620002746582,-1268163345,0,0.4498167932033539,-0.5686679482460022,0.4996931254863739,106.4453125,296.142578125,18.1884765625
5.380630016326904,-1268163326,0,0.4114867150783539,-0.6275058388710022,0.5138533115386963,103.3935546875,308.10546875,65.24658203125
5.38112211227417,-1268163347,1,-1.0955770015716553,-0.8762419819831848,-0.2532939910888672,14.70947265625,-245.9716796875,-272.15576171875
5.3811280727386475,-1268163328,1,-1.5760457515716553,-0.5698454976081848,-0.7210674285888672,19.53125,-188.5986328125,-273.01025390625
5.403077125549316,-1268163307,0,0.4134398400783539,-0.6372714638710022,0.5226423740386963,125.67138671875,322.1435546875,115.90576171875
5.410536050796509,-1268163309,1,-1.4073445796966553,-0.4094451367855072,-0.9591045379638672,14.404296875,-126.5869140625,-221.86279296875
5.410638093948364,-1268163290,1,-1.5692098140716553,-0.4255584180355072,-0.8892803192138672,-16.29638671875,-97.900390625,-226.25732421875
5.433375120162964,-1268163288,0,0.4659300744533539,-0.5491366982460022,0.5094587802886963,150.2685546875,347.47314453125,165.46630859375
5.433398962020874,-1268163269,0,0.6485472321510315,-0.5032382607460022,0.5101912021636963,170.83740234375,354.18701171875,203.18603515625
5.44083309173584,-1268163271,1,-1.7725789546966553,-0.2949431836605072,-0.8267803192138672,-77.57568359375,-109.2529296875,-249.81689453125
5.4774010181427,-1268163250,0,0.8431273102760315,-0.4885897934436798,0.4838239848613739,188.720703125,359.9853515625,233.5205078125
5.481401205062866,-1268163252,1,-2.0059773921966553,-0.1499236524105072,-0.8350811004638672,-137.26806640625,-113.70849609375,-237.12158203125
5.49955415725708,-1268163216,1,-2.2144734859466553,-0.3147185742855072,-0.5208721160888672,-150.5126953125,15.19775390625,-191.2841796875
5.535003900527954,-1268163197,1,-2.3614461421966553,-0.2815154492855072,-0.2781963348388672,-141.05224609375,52.42919921875,-223.32763671875
5.535012245178223,-1268163178,1,-2.6485555171966553,-0.050802554935216904,-0.2510967254638672,-137.87841796875,53.40576171875,-257.9345703125
5.553254842758179,-1268163214,0,1.1912719011306763,-0.5408359169960022,0.5004255771636963,258.4228515625,425.9033203125,338.623046875
5.55332088470459,-1268163195,0,1.4498168230056763,-0.6809726357460022,0.2824079692363739,315.673828125,434.5703125,417.48046875
5.5545971393585205,-1268163176,0,1.9075804948806763,-0.9221835732460022,-0.005677960813045502,367.12646484375,410.400390625,496.09375
5.554686069488525,-1268163157,0,2.0909299850463867,-1.1277499198913574,-0.0842912420630455,415.58837890625,372.0703125,508.7890625
5.560565948486328,-1268163159,1,-3.0330770015716553,0.1181427538394928,-0.4947490692138672,-115.1123046875,83.80126953125,-256.8359375
5.560724973678589,-1268163140,1,-3.2821004390716553,0.2865997850894928,-0.5338115692138672,-94.29931640625,111.63330078125,-248.53515625
5.583233118057251,-1268163138,0,2.5433225631713867,-1.3057284355163574,-0.3381974995136261,526.2451171875,236.328125,439.14794921875
5.583301067352295,-1268163119,0,4.152697563171387,-1.3926424980163574,-0.9041154384613037,695.86181640625,57.861328125,302.79541015625
5.59042501449585,-1268163121,1,-3.4691121578216553,0.2392365038394928,-0.6754131317138672,-104.4921875,139.58740234375,-219.90966796875
5.6144561767578125,-1268163100,0,4.843127250671387,-1.0554842948913574,-1.0747697353363037,797.54638671875,-51.33056640625,148.92578125
5.628637075424194,-1268163102,1,-3.5098836421966553,-0.015158023685216904,-0.4625225067138672,-161.56005859375,162.78076171875,-175.35400390625
5.628644227981567,-1268163083,1,-3.5552937984466553,-0.2077849805355072,-0.2625713348388672,-195.3125,201.59912109375,-135.31494140625
5.645925998687744,-1268163081,0,4.443469047546387,-0.6409335732460022,-0.7605607509613037,748.4130859375,-70.73974609375,-3.90625
5.645938873291016,-1268163062,0,3.6634397506713867,-0.8242831826210022,-0.3045060932636261,595.76416015625,-30.45654296875,-243.46923828125
5.65029501914978,-1268163064,1,-3.3934285640716553,-0.2773650586605072,-0.07482718676328659,-204.7119140625,234.2529296875,-113.037109375
5.679478168487549,-1268163043,0,3.0977659225463867,-1.1690096855163574,-0.2400529682636261,478.8818359375,62.8662109375,-375.06103515625
5.681226015090942,-1268163024,0,3.7444944381713867,-2.2381014823913574,-0.6145646572113037,378.23486328125,80.2001953125,-361.63330078125
5.681753158569336,-1268163045,1,-3.2056844234466553,-0.3310759961605072,-0.01012992113828659,-225.89111328125,254.150390625,-102.23388671875
5.68176007270813,-1268163026,1,-2.7633016109466553,-0.4817107617855072,0.2987079620361328,-254.82177734375,270.99609375,-68.603515625
5.7031941413879395,-1268163005,0,3.0674924850463867,-1.1514315605163574,-0.5108048915863037,372.13134765625,67.626953125,-423.76708984375
5.710278034210205,-1268163007,1,-3.3323934078216553,-0.4267791211605072,-0.3153057098388672,-314.94140625,297.54638671875,-5.79833984375
5.735167026519775,-1268162986,0,3.2293577194213867,-1.4776034355163574,-0.3013322651386261,410.46142578125,-15.44189453125,-448.8525390625
5.740797996520996,-1268162988,1,-3.0313680171966553,-0.7090056538581848,0.01306343823671341,-382.38525390625,295.0439453125,65.36865234375
5.7758872509002686,-1268162950,0,3.9717893600463867,-1.4500155448913574,0.5097029209136963,435.546875,-177.24609375,-347.2900390625
5.778456211090088,-1268162952,1,-2.1458699703216553,-0.8506072163581848,0.7520771026611328,-330.38330078125,323.974609375,14.58740234375
5.778461933135986,-1268162933,1,-2.0826375484466553,-0.5320037007331848,0.9495868682861328,-384.8876953125,326.904296875,79.28466796875
5.793212890625,-1268162931,0,3.4688596725463867,-0.8245273232460022,-0.4610002338886261,213.0126953125,-200.98876953125,-441.95556640625
5.793313026428223,-1268162912,0,2.3770627975463867,-1.8674960136413574,0.5250837802886963,170.654296875,-229.1259765625,-331.23779296875
5.800585031509399,-1268162914,1,-2.0452840328216553,-0.7573454976081848,1.1488056182861328,-435.05859375,288.39111328125,133.6669921875
5.831747055053711,-1268162893,0,2.1509885787963867,-1.7910799980163574,-0.3054826557636261,161.4990234375,-307.9833984375,-253.11279296875
5.8317530155181885,-1268162874,0,2.2750120162963867,-0.8672519326210022,-0.3176896870136261,54.443359375,-340.63720703125,-317.626953125
5.833388090133667,-1268162895,1,-1.5225789546966553,-0.7238982319831848,1.2325458526611328,-454.58984375,243.5302734375,178.1005859375
5.8333940505981445,-1268162876,1,-1.5631062984466553,-0.3423064649105072,1.2054462432861328,-442.93212890625,233.0322265625,228.759765625
5.853018045425415,-1268162855,0,2.0291624069213867,-0.7114902138710022,0.1576521098613739,-39.24560546875,-267.2119140625,-368.1640625
5.862021207809448,-1268162857,1,-1.3087117671966553,-0.3196013867855072,1.2838153839111328,-418.27392578125,224.06005859375,271.17919921875
5.88299298286438,-1268162836,0,1.8958617448806763,-0.7385898232460022,0.0922224298119545,-97.83935546875,-241.02783203125,-415.4052734375
5.883141994476318,-1268162817,0,1.5193969011306763,-0.9568515419960022,-0.0659806951880455,-156.8603515625,-296.5087890625,-366.51611328125
5.890919923782349,-1268162838,1,-0.8746296763420105,-0.3630584180355072,1.4881610870361328,-335.63232421875,214.78271484375,248.10791015625
5.890984058380127,-1268162819,1,-0.8099324107170105,-0.4848845899105072,1.6373310089111328,-240.29541015625,201.2939453125,250.3662109375
5.926084041595459,-1268162798,0,1.3133422136306763,-0.8982577919960022,0.1832868754863739,-113.4033203125,-350.52490234375,-285.15625
5.928804159164429,-1268162800,1,-0.4205281138420105,-0.3713591992855072,1.6168231964111328,-164.00146484375,202.57568359375,251.64794921875
5.928811073303223,-1268162781,1,-0.1824910044670105,-0.3337615430355072,1.5172138214111328,-105.3466796875,209.77783203125,211.669921875
5.94317102432251,-1268162779,0,1.2078734636306763,-0.6235995888710022,0.1105329766869545,-63.3544921875,-378.173828125,-245.05615234375
5.943237066268921,-1268162760,0,1.1458617448806763,-0.5689120888710022,-0.0567033514380455,-83.1298828125,-379.57763671875,-234.0087890625
5.950447082519531,-1268162762,1,-0.2249714732170105,-0.3945525586605072,1.1256122589111328,-110.29052734375,253.35693359375,206.35986328125
5.980264902114868,-1268162741,0,1.0574828386306763,-0.6423984169960022,-0.1504533588886261,-154.23583984375,-364.990234375,-222.0458984375
5.980819940567017,-1268162743,1,-0.0025593675673007965,-0.5573943257331848,1.0311298370361328,-185.9130859375,288.87939453125,259.1552734375
5.980828046798706,-1268162724,1,0.3265421986579895,-0.6042693257331848,1.7235126495361328,-182.06787109375,283.14208984375,210.693359375
6.002995014190674,-1268162722,0,1.0884886980056763,-0.7827792763710022,-0.0318010076880455,-202.392578125,-394.6533203125,-214.41650390625
6.034719944000244,-1268162686,0,1.1343871355056763,-1.0486483573913574,0.5306990146636963,-200.927734375,-352.11181640625,-113.58642578125
6.03472900390625,-1268162667,0,1.1358519792556763,-0.9658847451210022,0.5226423740386963,-180.17578125,-318.66455078125,-61.70654296875
6.06220006942749,-1268162648,0,0.9966917634010315,-0.9170566201210022,0.3717634379863739,-174.62158203125,-320.6787109375,-50.35400390625
6.076887130737305,-1268162688,1,-0.017451945692300797,0.2814728319644928,1.8458271026611328,44.49462890625,198.91357421875,233.58154296875
6.076894998550415,-1268162669,1,-0.3675495982170105,0.032205257564783096,1.4854755401611328,44.61669921875,213.37890625,280.1513671875
6.076900243759155,-1268162650,1,-0.015254680067300797,-0.2732146680355072,1.2540302276611328,9.58251953125,260.92529296875,260.68115234375
6.093306064605713,-1268162629,0,1.0599242448806763,-1.1714510917663574,0.2858259379863739,-183.9599609375,-341.6748046875,-38.39111328125
6.093391180038452,-1268162610,0,1.0784789323806763,-1.2981600761413574,0.4152204692363739,-182.55615234375,-326.0498046875,33.8134765625
6.100435972213745,-1268162631,1,-0.0025593675673007965,-0.4729216992855072,1.5550556182861328,8.9111328125,293.15185546875,228.08837890625
6.100542068481445,-1268162612,1,0.3817179799079895,-0.9326384663581848,1.6615009307861328,6.7138671875,237.4267578125,126.15966796875
6.131680965423584,-1268162591,0,1.0811644792556763,-1.2429842948913574,0.3131696879863739,-184.87548828125,-273.25439453125,128.41796875
6.152335166931152,-1268162572,0,1.2007933855056763,-1.2127108573913574,0.1215193048119545,-188.29345703125,-267.88330078125,159.423828125
6.153210878372192,-1268162553,0,1.3284789323806763,-1.1797518730163574,-0.0259416326880455,-180.72509765625,-311.82861328125,186.4013671875
6.160862922668457,-1268162593,1,0.2716105580329895,-0.9958708882331848,1.4835224151611328,-26.9775390625,148.193359375,57.7392578125
6.161067008972168,-1268162574,1,0.1251261830329895,-1.2109588384628296,1.0526142120361328,-143.98193359375,39.73388671875,-51.94091796875
6.161091089248657,-1268162555,1,-0.0819050669670105,-1.4489959478378296,0.8016376495361328,-228.57666015625,19.1650390625,-201.11083984375
6.183951139450073,-1268162534,0,1.5491820573806763,-1.1069979667663574,-0.0464494451880455,-171.81396484375,-369.20166015625,249.3896484375
6.183958053588867,-1268162515,0,2.1507444381713867,-0.9846835732460022,-0.013002179563045502,-204.4677734375,-421.5087890625,341.36962890625
6.190853118896484,-1268162536,1,-0.3526570200920105,-1.3288787603378296,0.8992938995361328,-218.07861328125,69.64111328125,-337.2802734375
6.190994024276733,-1268162517,1,-0.6778523325920105,-1.0407928228378296,1.0755634307861328,-166.1376953125,95.52001953125,-400.93994140625
6.225360155105591,-1268162496,0,2.8675413131713867,-0.8538241982460022,-0.0466935858130455,-270.08056640625,-492.67578125,363.09814453125
6.228009939193726,-1268162498,1,-1.1351277828216553,-0.5410369038581848,1.3160419464111328,-113.22021484375,83.06884765625,-464.41650390625
6.243179082870483,-1268162477,0,3.5130491256713867,-0.9263339638710022,0.2218610942363739,-374.1455078125,-635.31494140625,334.77783203125
6.243255138397217,-1268162458,0,4.028674125671387,-1.0838046073913574,0.6835310459136963,-431.57958984375,-659.423828125,331.1767578125
6.251192092895508,-1268162479,1,-1.4571492671966553,-0.056173648685216904,1.6658954620361328,-102.35595703125,43.5791015625,-519.34814453125
6.251199960708618,-1268162460,1,-1.9251668453216553,0.3703400194644928,2.095582962036133,-103.21044921875,35.7666015625,-565.97900390625
6.280850887298584,-1268162424,1,-2.4114949703216553,1.4345489740371704,2.481813430786133,-155.6396484375,-40.34423828125,-451.23291015625
6.303153038024902,-1268162422,0,4.319689750671387,-0.8652988076210022,0.4640485942363739,-439.697265625,-571.83837890625,254.45556640625
6.303246021270752,-1268162403,0,4.402941703796387,-2.1944003105163574,0.7108747959136963,-534.0576171875,-667.6025390625,328.369140625
6.310233116149902,-1268162405,1,-2.4407918453216553,1.5099884271621704,2.332155227661133,-226.74560546875,-38.57421875,-319.9462890625
6.333093166351318,-1268162384,0,5.159045219421387,-3.0188632011413574,2.0258162021636963,-616.3330078125,-653.38134765625,370.42236328125
6.333110094070435,-1268162365,0,5.171496391296387,-1.9507479667663574,3.4613630771636963,-652.64892578125,-458.251953125,280.8837890625
6.340611219406128,-1268162386,1,-2.2945516109466553,1.1449981927871704,2.353151321411133,-270.93505859375,-0.91552734375,-237.85400390625
6.340741157531738,-1268162367,1,-1.7706258296966553,0.2643829882144928,2.823854446411133,-259.82666015625,4.69970703125,-235.77880859375
6.37559700012207,-1268162346,0,5.069933891296387,-0.9800449013710022,3.3812849521636963,-481.99462890625,-247.6806640625,101.25732421875
6.378345012664795,-1268162348,1,-1.7017781734466553,-0.1645720899105072,3.319948196411133,-92.4072265625,-63.41552734375,-328.55224609375
6.399873971939087,-1268162329,1,-2.3770711421966553,0.033914241939783096,3.259889602661133,124.267578125,-142.39501953125,-356.4453125
6.400657892227173,-1268162310,1,-2.3353230953216553,-0.037130679935216904,2.694704055786133,239.6240234375,-187.6220703125,-314.02587890625
6.432296991348267,-1268162327,0,4.476428031921387,-0.2827792465686798,2.9879744052886963,-388.0615234375,-182.67822265625,-13.85498046875
6.432304859161377,-1268162308,0,3.8104124069213867,0.4381680190563202,2.9393904209136963,-370.361328125,-89.35546875,-100.09765625
6.432310104370117,-1268162289,0,3.2442502975463867,0.3243984878063202,2.5702497959136963,-387.5732421875,7.50732421875,-143.61572265625
6.432318925857544,-1268162291,1,-2.0487020015716553,-0.4375213086605072,2.442262649536133,352.05078125,-231.93359375,-297.119140625
6.432735919952393,-1268162272,1,-2.1971395015716553,-0.3550017774105072,1.7845478057861328,361.083984375,-320.556640625,-286.68212890625
6.453223943710327,-1268162270,0,2.8155393600463867,-0.194644495844841,2.0162947177886963,-448.91357421875,112.1826171875,-201.2939453125
6.453333139419556,-1268162251,0,2.7403440475463867,-0.6795077919960022,1.6198103427886963,-472.5341796875,169.86083984375,-221.61865234375
6.4602251052856445,-1268162253,1,-2.3655965328216553,-0.5285857319831848,0.8778095245361328,192.138671875,-403.01513671875,-263.48876953125
6.483314037322998,-1268162232,0,2.5130491256713867,-0.8726230263710022,1.6994001865386963,-363.83056640625,269.59228515625,-308.28857421875
6.490648031234741,-1268162234,1,-2.0577352046966553,-0.7256072163581848,1.1207294464111328,122.25341796875,-417.66357421875,-288.818359375
6.490760087966919,-1268162215,1,-2.4515340328216553,-0.6643279194831848,1.0582294464111328,155.94482421875,-334.16748046875,-276.611328125
6.526257038116455,-1268162213,0,2.1111936569213867,-1.5457186698913574,1.1854841709136963,-154.72412109375,303.40576171875,-287.29248046875
6.526264190673828,-1268162194,0,1.5359984636306763,-1.4849276542663574,1.0399763584136963,-46.875,354.30908203125,-204.52880859375
6.528823137283325,-1268162196,1,-1.8460652828216553,-0.5405486226081848,1.1878681182861328,322.021484375,-246.7041015625,-273.01025390625
6.543003082275391,-1268162158,0,1.3384886980056763,-1.1355624198913574,0.9266951084136963,100.2197265625,341.4306640625,-204.16259765625
6.550310850143433,-1268162160,1,-1.3311727046966553,-0.5061247944831848,0.5499286651611328,248.10791015625,-266.78466796875,-197.93701171875
6.580873012542725,-1268162141,1,-1.8253133296966553,-0.4680388867855072,0.8441181182861328,274.90234375,-278.13720703125,-133.056640625
6.5808820724487305,-1268162122,1,-2.1910359859466553,-0.1870330274105072,0.5177021026611328,285.15625,-255.18798828125,-65.3076171875
6.603395223617554,-1268162139,0,1.1729613542556763,-0.7859531044960022,0.9662458896636963,242.919921875,366.8212890625,-274.4140625
6.603590965270996,-1268162120,0,1.1522094011306763,-0.8323398232460022,0.6556990146636963,334.5947265625,363.28125,-374.267578125
6.6036059856414795,-1268162101,0,1.1177855730056763,-0.7722812294960022,0.3131696879863739,391.78466796875,314.02587890625,-443.9697265625
6.610350131988525,-1268162103,1,-1.8558309078216553,-0.3252166211605072,0.8460712432861328,435.72998046875,-221.5576171875,21.91162109375
6.633258104324341,-1268162082,0,1.1661254167556763,-0.4732089340686798,-0.009828351438045502,371.337890625,255.18798828125,-498.47412109375
6.6405229568481445,-1268162084,1,-1.7039754390716553,-0.7856658101081848,0.5858173370361328,722.16796875,-152.7099609375,-44.37255859375
6.640661954879761,-1268162065,1,-1.8077352046966553,-0.5847380757331848,0.06604195386171341,811.279296875,-112.3046875,-43.88427734375
6.675052165985107,-1268162063,0,0.9879027009010315,-0.184390589594841,0.0321638360619545,292.05322265625,167.236328125,-495.91064453125
6.676087141036987,-1268162044,0,0.6107054352760315,-0.4888339340686798,0.4579450786113739,233.70361328125,80.9326171875,-424.25537109375
6.677748918533325,-1268162046,1,-1.6644246578216553,-0.5063689351081848,-0.2266826629638672,699.21875,-126.03759765625,11.90185546875
6.693124055862427,-1268162025,0,0.2203245908021927,-0.8638339638710022,0.9681990146636963,270.93505859375,74.70703125,-279.23583984375
6.693247079849243,-1268162006,0,0.5140257477760315,-0.5059238076210022,0.8241560459136963,260.25390625,115.72265625,-222.412109375
6.700638055801392,-1268162027,1,-1.3619344234466553,-0.8591521382331848,-0.3858623504638672,431.0302734375,-200.927734375,69.9462890625
6.70075798034668,-1268162008,1,-1.0013387203216553,-1.2741912603378296,-0.5323467254638672,237.48779296875,-231.99462890625,46.630859375
6.730956077575684,-1268161987,0,0.9451780915260315,-0.133853480219841,0.5048201084136963,124.45068359375,177.91748046875,-230.04150390625
6.731498956680298,-1268161989,1,-0.7366902232170105,-1.3103240728378296,-0.6080303192138672,203.55224609375,-201.66015625,-40.83251953125
6.731508016586304,-1268161970,1,-0.7501179575920105,-1.1941131353378296,-0.5489482879638672,161.31591796875,-185.9130859375,-102.11181640625
6.753247022628784,-1268161968,0,0.8299437165260315,-0.6753574013710022,0.7789900302886963,25.146484375,223.20556640625,-224.853515625
6.7533650398254395,-1268161949,0,0.3499632775783539,-1.1233553886413574,1.2750837802886963,120.54443359375,237.24365234375,-101.9287109375
6.760404109954834,-1268161951,1,-0.6851765513420105,-1.1716521978378296,-0.5296611785888672,91.00341796875,-219.66552734375,-109.130859375
6.7829670906066895,-1268161930,0,0.5235472321510315,-1.0044589042663574,1.2098982334136963,225.5859375,267.9443359375,-3.0517578125
6.790552139282227,-1268161932,1,-0.6810261607170105,-1.1714080572128296,-0.7591533660888672,43.45703125,-248.53515625,-161.0107421875
6.813690900802612,-1268161894,0,0.9009886384010315,-0.7664218544960022,0.7565290927886963,178.64990234375,388.85498046875,133.1787109375
6.829992055892944,-1268161896,1,-1.0145223140716553,-0.8091033101081848,-1.0950908660888672,16.7236328125,-176.20849609375,-258.7890625
6.843515872955322,-1268161875,0,1.1673461198806763,-0.7241855263710022,0.7780134677886963,148.8037109375,417.78564453125,227.72216796875
6.843573093414307,-1268161856,0,1.6182738542556763,-0.6973300576210022,0.7933943271636963,200.0732421875,450.68359375,309.50927734375
6.850510120391846,-1268161877,1,-1.2474324703216553,-0.6831267476081848,-0.9754619598388672,-22.94921875,-145.20263671875,-265.13671875
6.850620985031128,-1268161858,1,-1.5081746578216553,-0.7710173726081848,-0.9051494598388672,-20.99609375,-128.2958984375,-291.44287109375
6.880434989929199,-1268161837,0,2.1775999069213867,-0.7114902138710022,0.5924665927886963,331.9091796875,477.84423828125,380.7373046875
6.880955934524536,-1268161839,1,-1.8028523921966553,-0.8388884663581848,-0.9857158660888672,1.8310546875,-111.6943359375,-344.6044921875
6.880963087081909,-1268161820,1,-2.5186727046966553,-0.5693572163581848,-1.1866436004638672,12.20703125,-104.736328125,-406.8603515625
6.903153896331787,-1268161818,0,2.9007444381713867,-0.6836581826210022,0.2274763286113739,434.02099609375,482.177734375,418.8232421875
6.903239011764526,-1268161799,0,3.6282835006713867,-0.221499964594841,-0.4851701557636261,515.0146484375,474.42626953125,369.0185546875
6.910480260848999,-1268161801,1,-3.0772664546966553,-0.2038787305355072,-1.4263896942138672,6.2255859375,-81.0546875,-364.74609375
6.933263063430786,-1268161780,0,3.5743284225463867,-0.029849570244550705,-1.1463029384613037,510.498046875,410.82763671875,199.52392578125
6.9433300495147705,-1268161782,1,-3.2279012203216553,-0.1882537305355072,-1.7044658660888672,22.64404296875,-37.2314453125,-313.65966796875
6.943340063095093,-1268161763,1,-3.1973836421966553,-0.3298552930355072,-1.7994365692138672,63.90380859375,18.61572265625,-316.58935546875
6.975482940673828,-1268161761,0,3.5018186569213867,-0.3054843246936798,-1.5112931728363037,490.53955078125,341.85791015625,132.75146484375
6.975490093231201,-1268161742,0,3.1932249069213867,-0.5418124794960022,-1.5110490322113037,466.00341796875,254.21142578125,105.3466796875
6.978113174438477,-1268161744,1,-3.2957723140716553,-0.5351775288581848,-2.046018600463867,25.5126953125,44.921875,-316.95556640625
6.993349075317383,-1268161723,0,2.7874631881713867,-0.9680820107460022,-1.1323869228363037,459.716796875,167.41943359375,91.61376953125
6.993442058563232,-1268161704,0,2.6089963912963867,-1.2097811698913574,-0.8335587978363037,548.88916015625,98.876953125,37.841796875
7.001062870025635,-1268161725,1,-3.2325398921966553,-0.8811247944831848,-2.097288131713867,-113.46435546875,46.7529296875,-282.77587890625
7.001173973083496,-1268161706,1,-3.2274129390716553,-1.0652068853378296,-1.7232646942138672,-181.884765625,84.3505859375,-235.29052734375
7.031109094619751,-1268161685,0,2.4588499069213867,-1.1807284355163574,-0.6851212978363037,628.47900390625,34.0576171875,-83.80126953125
7.031625986099243,-1268161687,1,-2.9779012203216553,-1.1294158697128296,-1.3865947723388672,-198.42529296875,141.90673828125,-207.1533203125
7.053174018859863,-1268161666,0,2.1888303756713867,-1.2661776542663574,-0.2454240620136261,687.255859375,-35.0341796875,-249.08447265625
7.060533046722412,-1268161668,1,-2.9080770015716553,-1.2561248540878296,-0.7728252410888672,-212.58544921875,192.9931640625,-211.48681640625
7.083185911178589,-1268161630,0,3.1563596725463867,-0.7268710732460022,0.1788923442363739,631.40869140625,8.30078125,-544.3115234375
7.1122071743011475,-1268161611,0,3.3123655319213867,-1.1631503105163574,-0.4014299213886261,494.9951171875,142.4560546875,-558.4716796875
7.116260051727295,-1268161592,0,2.5523557662963867,-0.5581699013710022,-0.8682267665863037,302.30712890625,78.4912109375,-381.7138671875
7.129441022872925,-1268161632,1,-2.9620320796966553,-1.0600799322128296,-0.6863994598388672,-285.82763671875,205.56640625,-239.013671875
7.129447937011719,-1268161613,1,-2.8865926265716553,-1.1010955572128296,-0.4224834442138672,-373.10791015625,217.71240234375,-168.64013671875
7.143187999725342,-1268161573,0,3.2108030319213867,-0.5601230263710022,-0.7859513759613037,227.47802734375,-137.14599609375,-354.248046875
7.143270969390869,-1268161554,0,3.1951780319213867,-0.3645663559436798,-0.3945939838886261,168.701171875,-303.466796875,-382.01904296875
7.150829076766968,-1268161594,1,-2.5447957515716553,-1.2468475103378296,0.3448505401611328,-392.76123046875,247.37548828125,-174.86572265625
7.150987148284912,-1268161575,1,-2.4603230953216553,-0.9153044819831848,0.8348407745361328,-343.017578125,271.240234375,-214.35546875
7.151005029678345,-1268161556,1,-2.4432332515716553,-0.6374724507331848,1.2484149932861328,-357.36083984375,238.95263671875,-220.21484375
7.179531097412109,-1268161535,0,2.4195432662963867,-1.2854647636413574,0.6300642490386963,200.1953125,-307.861328125,-224.4873046875
7.181753158569336,-1268161537,1,-2.1204793453216553,-0.1809295117855072,1.4237079620361328,-391.6015625,177.1240234375,-145.751953125
7.20366907119751,-1268161516,0,2.3228635787963867,-0.4197421371936798,-0.2708146870136261,120.54443359375,-329.52880859375,-254.21142578125
7.203683137893677,-1268161497,0,2.4095335006713867,-0.5142245888710022,0.0433943048119545,28.13720703125,-306.15234375,-302.42919921875
7.210310935974121,-1268161518,1,-1.9127156734466553,-0.2072966992855072,1.2164325714111328,-431.15234375,146.66748046875,-119.32373046875
7.210397958755493,-1268161499,1,-2.0184285640716553,0.026101741939783096,1.0404071807861328,-489.013671875,138.61083984375,-14.0380859375
7.233338832855225,-1268161478,0,2.1470823287963867,-0.3648104965686798,0.3153669536113739,-47.36328125,-257.8125,-349.42626953125
7.241051197052002,-1268161480,1,-1.6361043453216553,-0.019796695560216904,1.2247333526611328,-526.4892578125,108.33740234375,72.1435546875
7.241194009780884,-1268161461,1,-1.0269734859466553,0.0031525231897830963,1.6077899932861328,-482.48291015625,62.255859375,59.26513671875
7.275920152664185,-1268161459,0,2.0894651412963867,-0.6958652138710022,0.3988630473613739,-97.7783203125,-261.90185546875,-420.2880859375
7.2759270668029785,-1268161440,0,1.5872679948806763,-0.8162265419960022,0.3944685161113739,-114.8681640625,-239.44091796875,-349.12109375
7.278467178344727,-1268161442,1,-1.0279500484466553,0.2995392382144928,1.6422138214111328,-439.27001953125,68.42041015625,164.00146484375
7.2997660636901855,-1268161423,1,-0.6805378794670105,0.4941193163394928,1.6859149932861328,-397.5830078125,117.24853515625,302.001953125
7.300554037094116,-1268161404,1,-0.5867878794670105,0.3818146288394928,1.4417743682861328,-375.9765625,163.75732421875,383.48388671875
7.352381944656372,-1268161421,0,1.3035765886306763,-0.6714511513710022,0.3207380473613739,-74.0966796875,-248.1689453125,-255.67626953125
7.353255987167358,-1268161402,0,1.1993285417556763,-0.4544101059436798,0.007261492311954498,-64.75830078125,-296.9970703125,-266.66259765625
7.353339910507202,-1268161366,0,1.4920531511306763,-0.9487949013710022,0.0878278985619545,-168.0908203125,-373.84033203125,-321.47216796875
7.354349136352539,-1268161347,0,1.4444457292556763,-1.3443026542663574,0.2116071879863739,-210.38818359375,-349.4873046875,-210.44921875
7.360660076141357,-1268161368,1,0.5675089955329895,-0.8093474507331848,1.4771747589111328,-288.818359375,228.69873046875,344.1162109375
7.360682010650635,-1268161349,1,0.2410929799079895,-0.8388884663581848,1.9923114776611328,-158.75244140625,225.341796875,305.35888671875
7.382960081100464,-1268161328,0,1.0440551042556763,-1.2036776542663574,0.2894880473613739,-212.34130859375,-331.60400390625,-139.58740234375
7.390668153762817,-1268161330,1,0.0033000074326992035,-0.4250701367855072,1.6473407745361328,-67.81005859375,196.1669921875,325.74462890625
7.390728950500488,-1268161311,1,-0.3358113169670105,-0.5207732319831848,1.2767353057861328,-69.580078125,182.373046875,394.4091796875
7.427173137664795,-1268161309,0,1.1697875261306763,-1.0342440605163574,0.2897321879863739,-207.3974609375,-378.5400390625,-139.22119140625
7.427181005477905,-1268161290,0,1.4598265886306763,-1.4036288261413574,0.3002302348613739,-224.365234375,-432.6171875,-165.4052734375
7.43060302734375,-1268161292,1,0.023807819932699203,-1.0849822759628296,1.2213153839111328,-88.37890625,200.37841796875,351.806640625
7.443144083023071,-1268161271,0,1.5296508073806763,-1.5344882011413574,0.4625837504863739,-232.421875,-398.74267578125,-90.39306640625
7.450414180755615,-1268161273,1,0.5355265736579895,-1.3122771978378296,1.4593524932861328,-21.97265625,263.5498046875,167.78564453125
7.450497150421143,-1268161254,1,0.4149211049079895,-1.2951873540878296,1.7518329620361328,49.25537109375,233.33740234375,-45.59326171875
7.48053503036499,-1268161252,0,1.4608031511306763,-1.4480624198913574,0.4218122661113739,-226.1962890625,-341.1865234375,8.7890625
7.480544090270996,-1268161233,0,1.3751097917556763,-1.3174471855163574,0.1603376567363739,-223.14453125,-350.15869140625,43.5791015625
7.482795000076294,-1268161235,1,-0.1343953013420105,-1.1447967290878296,1.5936298370361328,0.48828125,101.5625,-164.24560546875
7.505223035812378,-1268161214,0,1.5423461198806763,-1.3228182792663574,-0.0300920233130455,-212.646484375,-416.748046875,72.021484375
7.505234956741333,-1268161195,0,1.8880492448806763,-1.3006014823913574,-0.0276506170630455,-182.92236328125,-461.0595703125,143.5546875
7.51045823097229,-1268161216,1,-0.4693562388420105,-1.1152557134628296,1.1776142120361328,-110.4736328125,31.92138671875,-182.0068359375
7.510538101196289,-1268161197,1,-0.5953328013420105,-1.3103240728378296,0.9329853057861328,-222.16796875,48.40087890625,-260.80322265625
7.533214092254639,-1268161176,0,2.1724729537963867,-1.1856112480163574,-0.1958635151386261,-176.8798828125,-481.0791015625,218.017578125
7.5407092571258545,-1268161178,1,-0.9002644419670105,-1.2993377447128296,0.9813251495361328,-259.33837890625,109.0087890625,-416.80908203125
7.576884984970093,-1268161157,0,2.6951780319213867,-0.9439120888710022,-0.3670060932636261,-208.80126953125,-547.8515625,277.34375
7.576894044876099,-1268161138,0,3.6822385787963867,-0.8150058388710022,-0.4915178120136261,-324.76806640625,-710.02197265625,286.376953125
7.579565048217773,-1268161159,1,-1.2305867671966553,-0.8669646382331848,1.2777118682861328,-308.7158203125,129.2724609375,-529.84619140625
7.579571008682251,-1268161140,1,-1.6917684078216553,-0.4978240430355072,1.7625751495361328,-324.21875,124.81689453125,-583.55712890625
7.599523067474365,-1268161104,1,-2.8065145015716553,0.4299103319644928,3.168336868286133,-271.728515625,129.94384765625,-530.2734375
7.631293058395386,-1268161085,1,-2.8870809078216553,1.2997833490371704,3.379762649536133,-154.84619140625,140.68603515625,-337.5244140625
7.653593063354492,-1268161102,0,5.411730766296387,-1.6616854667663574,0.7045271396636963,-601.9287109375,-808.41064453125,321.83837890625
7.653734922409058,-1268161083,0,5.839465141296387,-1.5774569511413574,1.1920759677886963,-597.412109375,-690.4296875,246.15478515625
7.653765916824341,-1268161064,0,5.703967094421387,-2.7283358573913574,1.7426130771636963,-585.3271484375,-713.68408203125,70.98388671875
7.654328107833862,-1268161045,0,5.423205375671387,-3.5078768730163574,2.5709822177886963,-534.1796875,-748.22998046875,98.81591796875
7.684948921203613,-1268161026,0,4.651232719421387,-2.8577303886413574,3.4579451084136963,-537.841796875,-552.18505859375,89.90478515625
7.712406158447266,-1268161007,0,3.8184690475463867,-2.2598299980163574,3.4323103427886963,-468.44482421875,-356.50634765625,82.3974609375
7.728096008300781,-1268161066,1,-2.4498250484466553,0.9723908305168152,2.993288040161133,-107.5439453125,134.1552734375,-154.9072265625
7.728103876113892,-1268161047,1,-1.2689168453216553,-0.4289763867855072,2.959840774536133,-140.625,40.46630859375,-166.015625
7.728109121322632,-1268161028,1,-1.4832723140716553,-0.9497283101081848,3.386598587036133,-51.20849609375,-45.654296875,-310.11962890625
7.728113889694214,-1268161009,1,-2.7886922359466553,-0.4865935742855072,3.603151321411133,144.34814453125,-158.14208984375,-418.3349609375
7.74313497543335,-1268160988,0,3.4273557662963867,-0.8711581826210022,2.7655622959136963,-326.904296875,-252.01416015625,43.45703125
7.743296146392822,-1268160969,0,3.8819456100463867,0.9501308798789978,3.0429060459136963,-349.4873046875,-212.5244140625,-79.77294921875
7.750760078430176,-1268160990,1,-2.8345906734466553,-0.2326873242855072,2.765260696411133,257.38525390625,-239.013671875,-376.46484375
7.750918865203857,-1268160971,1,-2.4761922359466553,-0.8423064351081848,2.564821243286133,237.24365234375,-295.22705078125,-322.509765625
7.75101900100708,-1268160952,1,-2.7254598140716553,-0.7036345601081848,2.380983352661133,370.05615234375,-316.650390625,-373.59619140625
7.781949996948242,-1268160950,0,3.3775510787963867,0.171810582280159,3.1969587802886963,-392.578125,-132.62939453125,-191.10107421875
7.781957149505615,-1268160931,0,3.0784788131713867,-0.3252597153186798,3.2885115146636963,-380.9814453125,-36.865234375,-248.84033203125
7.78520393371582,-1268160933,1,-2.8800008296966553,-0.6277068257331848,1.8619403839111328,355.5908203125,-404.84619140625,-324.8291015625
7.802987098693848,-1268160912,0,2.7010374069213867,-0.5159335732460022,2.2926619052886963,-344.54345703125,123.84033203125,-232.177734375
7.810534954071045,-1268160914,1,-2.9830281734466553,-0.5959685444831848,1.2435321807861328,217.041015625,-443.54248046875,-315.3076171875
7.810632944107056,-1268160895,1,-2.7105672359466553,-0.6831267476081848,1.2906513214111328,165.0390625,-400.69580078125,-332.82470703125
7.833193063735962,-1268160893,0,2.7249631881713867,-1.0986971855163574,1.9354841709136963,-313.3544921875,225.830078125,-277.587890625
7.833309888839722,-1268160874,0,2.6592893600463867,-0.9878574013710022,1.5617048740386963,-45.41015625,265.68603515625,-297.9736328125
7.84075403213501,-1268160876,1,-3.7449910640716553,-1.4526580572128296,0.7088642120361328,3.90625,-329.345703125,-256.40869140625
7.8766772747039795,-1268160838,0,1.3970824480056763,-1.5694003105163574,0.6625349521636963,-106.4453125,283.935546875,-150.57373046875
7.87934422492981,-1268160840,1,-1.7437703609466553,-1.1391814947128296,1.5018329620361328,242.5537109375,-345.5810546875,-287.353515625
7.895049095153809,-1268160819,0,1.8253051042556763,-1.1331210136413574,1.2772810459136963,122.49755859375,282.2265625,-157.16552734375
7.900483131408691,-1268160821,1,-2.6793172359466553,-1.1150115728378296,0.6141376495361328,409.7900390625,-326.66015625,-281.55517578125
7.900592088699341,-1268160802,1,-2.4366414546966553,-1.0009979009628296,0.1519794464111328,479.67529296875,-297.54638671875,-268.85986328125
7.929228067398071,-1268160800,0,1.6063109636306763,-0.8799472451210022,0.9154646396636963,256.53076171875,359.55810546875,-281.55517578125
7.930789232254028,-1268160781,0,1.3392211198806763,-1.0564608573913574,0.7916853427886963,390.56396484375,403.62548828125,-432.31201171875
7.9313459396362305,-1268160783,1,-2.9796102046966553,0.2018829882144928,-0.3992900848388672,413.87939453125,-219.29931640625,-153.4423828125
7.9531121253967285,-1268160762,0,1.3265258073806763,-0.7156406044960022,0.0993025079369545,420.5322265625,378.47900390625,-520.99609375
7.960493087768555,-1268160764,1,-1.9969441890716553,-0.4821990430355072,0.5372333526611328,445.6787109375,-253.35693359375,-158.75244140625
7.960576057434082,-1268160745,1,-1.6846883296966553,-1.1264861822128296,0.4014911651611328,620.9716796875,-282.1044921875,-249.267578125
7.984478950500488,-1268160743,0,1.0643187761306763,-0.8225741982460022,0.1517927348613739,399.84130859375,326.0498046875,-562.43896484375
7.984487056732178,-1268160724,0,0.9586058259010315,-0.5457187294960022,0.1586286723613739,365.53955078125,243.896484375,-543.76220703125
7.990356922149658,-1268160726,1,-1.9205281734466553,-1.6804412603378296,-0.4634990692138672,823.8525390625,-267.63916015625,-267.39501953125
8.025696039199829,-1268160705,0,0.9564085602760315,-0.061587851494550705,0.1691267192363739,280.76171875,178.466796875,-557.9833984375
8.02570390701294,-1268160686,0,0.9576292634010315,0.126400426030159,0.3490583598613739,195.00732421875,166.3818359375,-556.33544921875
8.02841591835022,-1268160707,1,-1.3758504390716553,-1.5473846197128296,-1.0089092254638672,766.29638671875,-160.888671875,-177.1240234375
8.028422832489014,-1268160688,1,-0.5689656138420105,-1.2859100103378296,-0.9810771942138672,455.74951171875,-66.71142578125,-119.93408203125
8.043025016784668,-1268160667,0,0.3426390588283539,-0.8123202919960022,1.1420271396636963,153.4423828125,220.88623046875,-410.15625
8.050579071044922,-1268160669,1,-0.4119831919670105,-1.0810760259628296,-0.4627666473388672,193.78662109375,-93.3837890625,-121.39892578125
8.050687074661255,-1268160650,1,-0.5809285044670105,-1.1841033697128296,-0.4034404754638672,0.9765625,-282.3486328125,-166.1376953125
8.082283973693848,-1268160648,0,0.06602771580219269,-1.0249667167663574,1.2057478427886963,200.439453125,300.1708984375,-148.86474609375
8.082293033599854,-1268160629,0,0.5936155915260315,-0.6316562294960022,0.8458845615386963,124.93896484375,369.7509765625,37.9638671875
8.084965229034424,-1268160631,1,-0.9444538950920105,-1.0268768072128296,-0.9700908660888672,-15.31982421875,-327.392578125,-290.95458984375
8.103099822998047,-1268160610,0,0.8755980134010315,-0.3591952621936798,0.7670271396636963,29.6630859375,414.48974609375,119.68994140625
8.111934900283813,-1268160612,1,-1.7467000484466553,-0.5634978413581848,-1.2667217254638672,8.23974609375,-171.0205078125,-317.68798828125
8.162507057189941,-1268160574,0,0.9984007477760315,-0.5645175576210022,0.7074568271636963,78.125,452.5146484375,241.0888671875
8.17506194114685,-1268160555,0,1.2796508073806763,-0.5169101357460022,0.6278669834136963,238.22021484375,440.97900390625,292.6025390625
8.175068855285645,-1268160536,0,1.7728148698806763,-0.4292636215686798,0.3639509379863739,415.283203125,431.0302734375,311.58447265625
8.176927089691162,-1268160576,1,-1.9945027828216553,-0.3845427930355072,-1.0609111785888672,24.5361328125,-51.20849609375,-187.19482421875
8.17693305015564,-1268160557,1,-1.9644734859466553,-0.5569060444831848,-1.2425518035888672,23.62060546875,-59.08203125,-212.95166015625
8.1769380569458,-1268160538,1,-2.0406453609466553,-0.7153533101081848,-1.5557842254638672,-33.3251953125,-48.27880859375,-266.41845703125
8.193011045455933,-1268160517,0,2.3599729537963867,-0.2810702621936798,-0.010072492063045502,536.7431640625,436.5234375,351.806640625
8.200891017913818,-1268160519,1,-2.5108602046966553,-0.6826384663581848,-1.4947490692138672,-95.5810546875,-23.92578125,-289.48974609375
8.200997829437256,-1268160500,1,-2.6358602046966553,-0.7461150288581848,-1.4857158660888672,-56.21337890625,42.6025390625,-271.240234375
8.230417013168335,-1268160498,0,2.6358518600463867,-0.144351527094841,-0.5982072353363037,569.88525390625,438.3544921875,402.4658203125
8.230425119400024,-1268160479,0,3.0196409225463867,-0.3240390121936798,-1.3818986415863037,539.00146484375,374.267578125,400.32958984375
8.23189091682434,-1268160481,1,-2.6602742671966553,-0.8759978413581848,-1.3455791473388672,-13.916015625,95.5810546875,-313.04931640625
8.2537260055542,-1268160460,0,2.9073362350463867,-0.2515292465686798,-1.5999162197113037,513.00048828125,270.5078125,228.69873046875
8.260509014129639,-1268160462,1,-2.8348348140716553,-1.0237029790878296,-1.2742900848388672,-46.142578125,103.271484375,-351.6845703125
8.260592222213745,-1268160443,1,-3.1971395015716553,-1.2448943853378296,-1.3682842254638672,-167.54150390625,70.12939453125,-345.88623046875
8.284653186798096,-1268160441,0,2.6568479537963867,-1.0562167167663574,-1.3267228603363037,523.4375,150.0244140625,95.15380859375
8.28466796875,-1268160422,0,2.5237913131713867,-1.2532382011413574,-0.7305314540863037,640.19775390625,-5.7373046875,-1.15966796875
8.290448904037476,-1268160424,1,-3.3482625484466553,-1.3496307134628296,-1.2679424285888672,-238.34228515625,105.77392578125,-277.83203125
8.325553894042969,-1268160403,0,2.9058713912963867,-1.1011385917663574,-0.0208146795630455,723.5107421875,-38.6962890625,-149.169921875
8.325562953948975,-1268160384,0,3.2957639694213867,-1.0012850761413574,0.5333845615386963,685.36376953125,43.9453125,-467.529296875
8.328497886657715,-1268160405,1,-3.2000691890716553,-1.5102752447128296,-0.6385478973388672,-243.65234375,177.79541015625,-261.962890625
8.328505039215088,-1268160386,1,-3.2530477046966553,-1.3188689947128296,-0.2791728973388672,-280.33447265625,202.33154296875,-250.732421875
8.343087196350098,-1268160365,0,3.4280881881713867,-1.7027010917663574,1.0387556552886963,697.81494140625,90.33203125,-667.29736328125
8.350870132446289,-1268160367,1,-3.5521199703216553,-1.1662811040878296,-0.2786846160888672,-353.515625,196.71630859375,-206.9091796875
8.382158041000366,-1268160346,0,3.5191526412963867,-1.1887850761413574,-0.2791154682636261,525.390625,308.28857421875,-718.505859375
8.384383916854858,-1268160348,1,-3.4764363765716553,-0.9697478413581848,0.00940132886171341,-408.87451171875,214.111328125,-144.71435546875
8.403832197189331,-1268160310,0,3.2977170944213867,-1.3516268730163574,-0.5906388759613037,294.7998046875,-160.7666015625,-313.232421875
8.413942098617554,-1268160312,1,-2.8333699703216553,-1.0512908697128296,1.0045185089111328,-396.6064453125,270.56884765625,-109.4970703125
8.413952112197876,-1268160293,1,-2.8301961421966553,-0.2666228711605072,1.1932392120361328,-407.04345703125,285.70556640625,-41.56494140625
8.434700012207031,-1268160291,0,4.124133110046387,-0.7617831826210022,-0.6736466884613037,182.18994140625,-278.564453125,-385.92529296875
8.43470811843872,-1268160272,0,2.9969358444213867,-1.4788241386413574,-0.0220353826880455,75.01220703125,-260.68115234375,-376.40380859375
8.442329168319702,-1268160274,1,-2.5479695796966553,-0.3640349805355072,1.3863544464111328,-407.1044921875,256.53076171875,-2.38037109375
8.476552963256836,-1268160253,0,2.6199827194213867,-2.0713534355163574,-0.2986467182636261,2.197265625,-243.0419921875,-333.80126953125
8.476560831069946,-1268160234,0,2.3304319381713867,-1.3972811698913574,-0.1900041401386261,-18.24951171875,-224.18212890625,-373.22998046875
8.479120969772339,-1268160255,1,-2.1954305171966553,-0.2524627149105072,1.3509540557861328,-354.4921875,271.05712890625,0.48828125
8.479127168655396,-1268160236,1,-2.0313680171966553,0.046365413814783096,1.2078876495361328,-393.73779296875,294.0673828125,80.2001953125
8.494574069976807,-1268160215,0,1.9879027605056763,-0.9798007607460022,-0.0662248358130455,-87.40234375,-247.74169921875,-432.4951171875
8.501188039779663,-1268160217,1,-1.8978230953216553,0.027566585689783096,1.1541767120361328,-443.29833984375,263.3056640625,126.220703125
8.53000020980835,-1268160196,0,1.8365355730056763,-1.0632967948913574,0.3473493754863739,-124.51171875,-286.31591796875,-430.7861328125
8.53000807762146,-1268160177,0,1.5526000261306763,-1.1372714042663574,0.0787946954369545,-133.7890625,-286.865234375,-341.24755859375
8.53216004371643,-1268160198,1,-1.5784871578216553,-0.2597869336605072,1.4940204620361328,-473.9990234375,221.19140625,154.296875
8.532167911529541,-1268160179,1,-1.0804402828216553,-0.3232634961605072,1.7203388214111328,-510.43701171875,162.90283203125,193.05419921875
8.552932024002075,-1268160158,0,1.4859496355056763,-0.7461581826210022,0.1525251567363739,-129.0283203125,-307.67822265625,-238.46435546875
8.560467958450317,-1268160160,1,0.1751750111579895,-0.2629607617855072,2.764528274536133,-435.1806640625,100.28076171875,165.22216796875
8.56056022644043,-1268160141,1,-0.2745320200920105,0.0702911913394928,2.323610305786133,-264.892578125,173.76708984375,301.20849609375
8.583208084106445,-1268160139,0,1.4212523698806763,-0.6150546669960022,-0.0249650701880455,-179.13818359375,-392.15087890625,-278.564453125
8.583316087722778,-1268160120,0,1.7059203386306763,-1.0877108573913574,0.3761579692363739,-240.3564453125,-461.36474609375,-318.4814453125
8.590420007705688,-1268160122,1,-0.5611531138420105,0.1469513475894928,1.8277606964111328,-180.6640625,281.494140625,405.8837890625
8.62556505203247,-1268160101,0,1.8423949480056763,-1.5088534355163574,0.8573591709136963,-252.50244140625,-468.68896484375,-311.4013671875
8.628402948379517,-1268160103,1,0.1048625111579895,-1.4406951665878296,1.1192646026611328,-228.08837890625,365.3564453125,415.95458984375
8.62841010093689,-1268160084,1,0.8192179799079895,-1.5486053228378296,2.184938430786133,-167.17529296875,366.39404296875,176.69677734375
8.64294719696045,-1268160082,0,1.6946898698806763,-1.4519686698913574,0.9262068271636963,-227.6611328125,-412.04833984375,-225.40283203125
8.681427955627441,-1268160046,0,1.6949340105056763,-1.5093417167663574,0.5626814365386963,-189.51416015625,-434.99755859375,-191.162109375
8.681435108184814,-1268160027,0,1.6873656511306763,-1.9378085136413574,0.4552595317363739,-161.9873046875,-425.72021484375,-84.716796875
8.68312406539917,-1268160048,1,-0.0941120982170105,-1.0459197759628296,1.6131610870361328,-158.38623046875,155.57861328125,159.66796875
8.683130979537964,-1268160029,1,0.0828898549079895,-1.3662322759628296,1.5584735870361328,-90.63720703125,218.07861328125,114.07470703125
8.702908039093018,-1268160008,0,1.4351683855056763,-1.8919100761413574,0.3558942973613739,-125.79345703125,-363.09814453125,82.45849609375
8.710756063461304,-1268160010,1,-0.2401081919670105,-1.1670135259628296,1.5977802276611328,-43.45703125,264.7705078125,47.8515625
8.710929870605469,-1268159991,1,-0.2528035044670105,-1.3633025884628296,1.6532001495361328,-35.5224609375,260.986328125,-97.96142578125
8.733191967010498,-1268159989,0,1.5753051042556763,-1.6502108573913574,-0.0469377264380455,-127.99072265625,-364.013671875,177.18505859375
8.73326587677002,-1268159970,0,1.8328734636306763,-1.6409335136413574,-0.2883928120136261,-177.8564453125,-454.2236328125,215.02685546875
8.762425184249878,-1268159951,0,2.4383420944213867,-1.7005038261413574,-0.1533830463886261,-236.02294921875,-539.12353515625,258.36181640625
8.77855896949768,-1268159972,1,-0.6295124888420105,-1.3037322759628296,1.3013935089111328,-82.58056640625,181.396484375,-223.0224609375
8.778566837310791,-1268159953,1,-0.6812703013420105,-1.4582732915878296,0.9693622589111328,-174.86572265625,132.38525390625,-302.91748046875
8.778572082519531,-1268159934,1,-0.9146687388420105,-1.2934783697128296,1.0074481964111328,-234.86328125,160.58349609375,-398.3154296875
8.793456077575684,-1268159932,0,2.9800901412963867,-1.3601717948913574,-0.1773088276386261,-307.4951171875,-583.740234375,320.25146484375
8.79352593421936,-1268159913,0,3.9297971725463867,-0.8755527138710022,-0.4151017963886261,-472.0458984375,-685.791015625,378.173828125
8.8032808303833,-1268159915,1,-1.4158895015716553,-0.8896697163581848,1.6610126495361328,-305.17578125,207.33642578125,-499.0234375
8.830971002578735,-1268159894,0,5.166857719421387,-1.1895174980163574,-0.4048478901386261,-686.4013671875,-824.3408203125,346.3134765625
8.830981969833374,-1268159875,0,6.129748344421387,-2.7058749198913574,0.7450544834136963,-782.470703125,-853.21044921875,327.20947265625
8.831523180007935,-1268159896,1,-2.4019734859466553,-0.4109099805355072,2.900026321411133,-317.3828125,217.46826171875,-529.1748046875
8.831528902053833,-1268159877,1,-2.7769734859466553,0.2841583788394928,3.759401321411133,-231.8115234375,133.4228515625,-383.11767578125
8.853061199188232,-1268159856,0,6.208605766296387,-2.6321444511413574,2.2501814365386963,-679.443359375,-775.0244140625,290.1611328125
