sync_time,timestamp_ms,device_id,ax,ay,az,gx,gy,gz
0.0030059814453125,-1267284129,0,0.5269652009010315,0.7865566611289978,0.3314802348613739,-55.0537109375,-38.818359375,122.86376953125
0.007328987121582031,-1267284129,1,-0.1961628794670105,0.6347443461418152,0.2620868682861328,-124.45068359375,-36.31591796875,-200.68359375
0.04093170166015625,-1267284093,0,0.7430296540260315,0.9308437705039978,0.3983747661113739,-52.978515625,-83.740234375,117.00439453125
0.05932188034057617,-1267284074,0,0.8758421540260315,0.9862636923789978,0.4542829692363739,-65.73486328125,-85.5712890625,111.14501953125
0.06010174751281738,-1267284055,0,0.9649534821510315,1.0128750801086426,0.4401228129863739,-75.439453125,-71.6552734375,118.22509765625
0.06741595268249512,-1267284093,1,-0.5506550669670105,0.9064728617668152,0.3885517120361328,-79.58984375,-16.11328125,-231.8115234375
0.06749677658081055,-1267284074,1,-0.6585652232170105,1.0864044427871704,0.4412860870361328,-84.9609375,-15.44189453125,-200.68359375
0.06876993179321289,-1267284055,1,-0.8931843638420105,1.1298614740371704,0.4969501495361328,-108.3984375,-37.90283203125,-181.21337890625
0.09503889083862305,-1267284036,0,0.9210081696510315,0.9911465048789978,0.4135114848613739,-72.20458984375,-56.70166015625,119.140625
0.09754276275634766,-1267284036,1,-1.0191609859466553,1.1193634271621704,0.5233173370361328,-105.46875,-70.4345703125,-151.30615234375
0.12679290771484375,-1267284017,1,-0.9473835825920105,1.1315704584121704,0.5186786651611328,-86.73095703125,-104.91943359375,-105.224609375
0.14038300514221191,-1267283998,1,-0.8111531138420105,1.1374298334121704,0.5579853057861328,-56.7626953125,-108.45947265625,-56.2744140625
0.15083599090576172,-1267284017,0,0.8089476227760315,0.9579433798789978,0.3668806254863739,-62.744140625,-56.7626953125,111.81640625
0.15084481239318848,-1267283998,0,0.7012816071510315,0.8702968955039978,0.2897321879863739,-63.4765625,-69.091796875,110.2294921875
0.15085697174072266,-1267283979,0,0.7242308259010315,0.8727383017539978,0.2619001567363739,-79.4677734375,-74.76806640625,101.74560546875
0.15729999542236328,-1267283979,1,-0.7315632700920105,1.0700470209121704,0.5506610870361328,-34.66796875,-101.5625,-42.78564453125
0.15739989280700684,-1267283960,1,-0.7139851450920105,1.0644317865371704,0.5145282745361328,-19.8974609375,-93.505859375,-46.56982421875
0.19310903549194336,-1267283960,0,0.9300413727760315,0.9257168173789978,0.3261091411113739,-110.29052734375,-71.6552734375,79.04052734375
0.1931159496307373,-1267283941,0,1.0496703386306763,0.9674648642539978,0.4520857036113739,-130.2490234375,-49.8046875,31.6162109375
0.1971898078918457,-1267283941,1,-0.7679402232170105,1.0978790521621704,0.4061298370361328,7.01904296875,-92.95654296875,-50.537109375
0.21001076698303223,-1267283922,0,1.0157347917556763,0.9088711142539978,0.5575544834136963,-130.4931640625,-15.19775390625,4.5166015625
0.21008086204528809,-1267283903,0,0.9395628571510315,0.8414883017539978,0.6268904209136963,-114.2578125,-5.2490234375,-7.9345703125
0.21721482276916504,-1267283922,1,-0.7562214732170105,1.1196075677871704,0.3192157745361328,26.30615234375,-99.2431640625,-31.55517578125
0.21735501289367676,-1267283903,1,-0.6890828013420105,1.1130157709121704,0.2850360870361328,25.87890625,-98.14453125,-10.009765625
0.2477879524230957,-1267283884,0,0.8270140290260315,0.7548183798789978,0.6884138584136963,-67.56591796875,-20.5078125,-24.47509765625
0.2482759952545166,-1267283884,1,-0.6466023325920105,1.0590606927871704,0.2794208526611328,26.2451171875,-91.4306640625,-0.732421875
0.26969385147094727,-1267283865,0,0.7733030915260315,0.7597011923789978,0.6910994052886963,-22.8271484375,-40.58837890625,-43.701171875
0.2927689552307129,-1267283865,1,-0.6402546763420105,1.0112091302871704,0.2489032745361328,26.0009765625,-84.89990234375,-0.06103515625
0.30005598068237305,-1267283829,0,0.7410765290260315,0.8226894736289978,0.6349470615386963,-1.5869140625,-33.99658203125,-55.23681640625
0.3073537349700928,-1267283829,1,-0.6009480357170105,0.9824005961418152,0.1488056182861328,48.76708984375,-70.1904296875,-4.7607421875
0.3074307441711426,-1267283810,1,-0.5540730357170105,0.9816681742668152,0.1436786651611328,51.20849609375,-54.01611328125,-0.54931640625
0.34169983863830566,-1267283810,0,0.7010374665260315,0.7701992392539978,0.6178572177886963,-11.90185546875,-19.6533203125,-52.06298828125
0.3417069911956787,-1267283791,0,0.6541624665260315,0.7326015830039978,0.5953962802886963,-18.310546875,-6.77490234375,-43.15185546875
0.34422874450683594,-1267283791,1,-0.5098835825920105,0.9584748148918152,0.1732196807861328,39.306640625,-40.34423828125,-0.30517578125
0.3610098361968994,-1267283772,0,0.6158323884010315,0.6827968955039978,0.5968611240386963,-12.939453125,-1.708984375,-36.92626953125
0.3610188961029053,-1267283753,0,0.5938597321510315,0.6664394736289978,0.5846540927886963,-7.99560546875,-4.638671875,-35.09521484375
0.36783695220947266,-1267283772,1,-0.5030476450920105,0.9072052836418152,0.1949481964111328,23.25439453125,-28.80859375,-0.42724609375
0.36789870262145996,-1267283753,1,-0.4976765513420105,0.8495880961418152,0.1912860870361328,11.29150390625,-16.29638671875,-2.86865234375
0.39634203910827637,-1267283734,1,-0.5018269419670105,0.7978302836418152,0.2176532745361328,9.6435546875,-3.23486328125,-3.7841796875
0.42054295539855957,-1267283734,0,0.6226683259010315,0.6561855673789978,0.5895369052886963,-5.67626953125,-7.87353515625,-34.912109375
0.42072081565856934,-1267283715,0,0.6146116852760315,0.6307949423789978,0.6112654209136963,-3.84521484375,-7.26318359375,-36.31591796875
0.420745849609375,-1267283696,0,0.6487913727760315,0.6159023642539978,0.5763533115386963,-0.8544921875,-4.45556640625,-31.005859375
0.43999266624450684,-1267283715,1,-0.5164753794670105,0.7482697367668152,0.2283954620361328,14.16015625,7.14111328125,-6.7138671875
0.4399998188018799,-1267283696,1,-0.5228230357170105,0.7341095805168152,0.2266864776611328,14.16015625,14.95361328125,-11.16943359375
0.45041489601135254,-1267283677,0,0.6297484040260315,0.5819668173789978,0.5883162021636963,-3.35693359375,2.44140625,-24.4140625
0.45749688148498535,-1267283677,1,-0.5184285044670105,0.7494904398918152,0.2403583526611328,9.09423828125,17.39501953125,-11.29150390625
0.4900679588317871,-1267283658,0,0.6382933259010315,0.5365566611289978,0.5797712802886963,2.74658203125,2.0751953125,-20.08056640625
0.49007487297058105,-1267283639,0,0.6365843415260315,0.5453457236289978,0.5660994052886963,14.34326171875,3.662109375,-14.0380859375
0.4955768585205078,-1267283658,1,-0.5352742075920105,0.7416779398918152,0.2686786651611328,-2.99072265625,22.216796875,-9.82666015625
0.49562907218933105,-1267283639,1,-0.5706745982170105,0.7385041117668152,0.3052997589111328,-11.23046875,27.77099609375,-5.4931640625
0.50978684425354,-1267283620,0,0.6724730134010315,0.5536465048789978,0.5465681552886963,20.01953125,7.99560546875,-10.80322265625
0.5177919864654541,-1267283620,1,-0.5965535044670105,0.7375275492668152,0.3472919464111328,-13.48876953125,27.83203125,1.953125
0.5178639888763428,-1267283601,1,-0.5980183482170105,0.7419220805168152,0.3875751495361328,-13.85498046875,25.08544921875,6.77490234375
0.5477368831634521,-1267283601,0,0.6834593415260315,0.5939297080039978,0.5243513584136963,17.333984375,13.48876953125,-14.2822265625
0.5691089630126953,-1267283565,0,0.6905394196510315,0.6168789267539978,0.5048201084136963,7.99560546875,16.357421875,-21.8505859375
0.5699310302734375,-1267283546,0,0.6678343415260315,0.5975918173789978,0.4977400004863739,0.244140625,20.20263671875,-27.7099609375
0.5912418365478516,-1267283565,1,-0.5677449107170105,0.7189728617668152,0.4124774932861328,-19.22607421875,7.080078125,12.87841796875
0.591249942779541,-1267283546,1,-0.5323445200920105,0.6991974711418152,0.3966083526611328,-22.94921875,0.9765625,12.0849609375
0.6002628803253174,-1267283527,0,0.6429319977760315,0.6034511923789978,0.4633161723613739,-0.54931640625,17.578125,-28.99169921875
0.6074769496917725,-1267283527,1,-0.4954792857170105,0.6938263773918152,0.3812274932861328,-24.658203125,-1.220703125,9.33837890625
0.6436190605163574,-1267283508,0,0.5914183259010315,0.6063808798789978,0.4564802348613739,-2.01416015625,7.87353515625,-27.7099609375
0.6436269283294678,-1267283489,0,0.5855589509010315,0.6180996298789978,0.4520857036113739,-4.150390625,-1.5869140625,-28.6865234375
0.6452689170837402,-1267283508,1,-0.4681355357170105,0.6706330180168152,0.3804950714111328,-24.5361328125,1.708984375,6.40869140625
0.6452798843383789,-1267283489,1,-0.4581257700920105,0.6535431742668152,0.3907489776611328,-23.193359375,5.9814453125,1.64794921875
0.6652417182922363,-1267283470,0,0.5796995759010315,0.6249355673789978,0.4320661723613739,-7.26318359375,-19.6533203125,-25.7568359375
0.6677539348602295,-1267283470,1,-0.4556843638420105,0.6476837992668152,0.3995380401611328,-19.47021484375,5.79833984375,-3.41796875
0.6678328514099121,-1267283451,1,-0.4632527232170105,0.6799103617668152,0.3985614776611328,-18.06640625,4.7607421875,-7.8125
0.6964008808135986,-1267283451,0,0.5960569977760315,0.6676601767539978,0.4176618754863739,-14.95361328125,-29.052734375,-25.7568359375
0.6964118480682373,-1267283432,0,0.6607542634010315,0.6818203330039978,0.3917829692363739,-14.70947265625,-39.4287109375,-10.8642578125
0.7012088298797607,-1267283432,1,-0.4678913950920105,0.7038361430168152,0.3900165557861328,-19.775390625,3.7841796875,-11.90185546875
0.7205519676208496,-1267283413,0,0.6546507477760315,0.6881679892539978,0.4025251567363739,-11.04736328125,-40.4052734375,0.9765625
0.7206211090087891,-1267283394,0,0.6409788727760315,0.7177090048789978,0.3925153911113739,-4.82177734375,-46.142578125,20.32470703125
0.7406678199768066,-1267283413,1,-0.4630085825920105,0.7175080180168152,0.3946552276611328,-22.94921875,4.0283203125,-12.939453125
0.740675687789917,-1267283394,1,-0.4649617075920105,0.7265412211418152,0.3870868682861328,-25.7568359375,5.0048828125,-14.22119140625
0.7565708160400391,-1267283375,1,-0.4666706919670105,0.7365509867668152,0.3963642120361328,-28.62548828125,4.94384765625,-15.625
0.7896146774291992,-1267283375,0,0.7051878571510315,0.7059902548789978,0.3637067973613739,-2.25830078125,-47.91259765625,37.109375
0.7896246910095215,-1267283356,0,0.7764769196510315,0.6996425986289978,0.3175642192363739,0.1220703125,-37.109375,46.142578125
0.7896339893341064,-1267283337,0,0.7523069977760315,0.6586269736289978,0.3251325786113739,7.99560546875,-18.06640625,51.6357421875
0.7930638790130615,-1267283356,1,-0.4703328013420105,0.7438752055168152,0.4088153839111328,-29.35791015625,7.4462890625,-16.41845703125
0.7930717468261719,-1267283337,1,-0.4859578013420105,0.7487580180168152,0.4151630401611328,-25.87890625,10.92529296875,-16.7236328125
0.8167600631713867,-1267283301,1,-0.5108601450920105,0.7951447367668152,0.4085712432861328,-22.27783203125,14.83154296875,-12.87841796875
0.8483760356903076,-1267283301,0,0.7288694977760315,0.6459316611289978,0.3141462504863739,45.2880859375,21.17919921875,59.814453125
0.848383903503418,-1267283282,0,0.7234984040260315,0.6959804892539978,0.3368513286113739,51.33056640625,21.42333984375,50.9033203125
0.8488659858703613,-1267283282,1,-0.5377156138420105,0.8115021586418152,0.4110126495361328,-23.681640625,15.869140625,-10.1318359375
0.8700747489929199,-1267283263,0,0.6829710602760315,0.7201504111289978,0.3612653911113739,48.9501953125,19.8974609375,47.4853515625
0.8701448440551758,-1267283244,0,0.6683226227760315,0.6940273642539978,0.3580915629863739,36.0107421875,16.7236328125,44.189453125
0.8802769184112549,-1267283263,1,-0.5452839732170105,0.7892853617668152,0.4105243682861328,-25.634765625,15.07568359375,-3.96728515625
0.8802859783172607,-1267283244,1,-0.5306355357170105,0.7834259867668152,0.3978290557861328,-24.23095703125,16.7236328125,-0.1220703125
0.900397777557373,-1267283225,0,0.6954222321510315,0.7189297080039978,0.3549177348613739,30.09033203125,15.625,49.072265625
0.9076590538024902,-1267283225,1,-0.5308796763420105,0.7978302836418152,0.3863544464111328,-23.8037109375,21.42333984375,3.2958984375
0.9439589977264404,-1267283206,0,0.7598753571510315,0.7587246298789978,0.3619978129863739,27.587890625,7.4462890625,55.84716796875
0.9439668655395508,-1267283187,0,0.8001585602760315,0.7216152548789978,0.3556501567363739,31.73828125,-1.953125,66.34521484375
0.9665858745574951,-1267283206,1,-0.5291706919670105,0.8102814555168152,0.3773212432861328,-26.611328125,27.7099609375,6.8359375
0.9676170349121094,-1267283187,1,-0.5303913950920105,0.7883087992668152,0.3905048370361328,-31.43310546875,35.64453125,11.3525390625
0.967756986618042,-1267283168,1,-0.5474812388420105,0.8019806742668152,0.4144306182861328,-34.36279296875,42.41943359375,11.90185546875
0.9685907363891602,-1267283149,1,-0.5779988169670105,0.7905060648918152,0.4249286651611328,-34.48486328125,43.27392578125,15.9912109375
0.9949328899383545,-1267283168,0,0.8311644196510315,0.7618984580039978,0.3544294536113739,41.07666015625,-9.94873046875,72.57080078125
0.9949407577514648,-1267283149,0,0.8726683259010315,0.7052578330039978,0.3605329692363739,51.1474609375,-19.4091796875,66.650390625
0.9949488639831543,-1267283130,0,0.9105101227760315,0.6537441611289978,0.3385603129863739,59.50927734375,-21.1181640625,56.7626953125
0.9973797798156738,-1267283130,1,-0.5862995982170105,0.8244416117668152,0.4388446807861328,-31.79931640625,44.189453125,13.85498046875
1.0202159881591797,-1267283111,0,0.9669066071510315,0.7169765830039978,0.2926618754863739,46.142578125,-7.32421875,29.96826171875
1.027350902557373,-1267283111,1,-0.6099812388420105,0.8639923930168152,0.4266376495361328,-28.50341796875,44.25048828125,14.46533203125
1.0274608135223389,-1267283092,1,-0.6380574107170105,0.8979279398918152,0.3839130401611328,-28.6865234375,49.25537109375,16.11328125
1.0536136627197266,-1267283092,0,1.0037719011306763,0.7155117392539978,0.2177107036113739,39.6728515625,5.0048828125,13.916015625
1.053623914718628,-1267283073,0,1.0325804948806763,0.7221035361289978,0.1754743754863739,28.80859375,24.169921875,-4.8828125
1.0574960708618164,-1267283073,1,-0.6744343638420105,0.9606720805168152,0.3468036651611328,-27.4658203125,56.70166015625,15.68603515625
1.1091248989105225,-1267283037,0,0.9859495759010315,0.7929043173789978,0.1688825786113739,21.97265625,42.78564453125,-39.0625
1.10996675491333,-1267283018,0,0.9793577790260315,0.8077968955039978,0.1327497661113739,23.13232421875,39.97802734375,-56.640625
1.1176230907440186,-1267283037,1,-0.7567097544670105,1.0329376459121704,0.2862567901611328,-16.66259765625,58.16650390625,17.27294921875
1.1177449226379395,-1267283018,1,-0.8690144419670105,1.0409942865371704,0.2098407745361328,2.13623046875,72.08251953125,20.99609375
1.11887788772583,-1267282999,1,-0.9774128794670105,1.0781036615371704,0.1317157745361328,31.8603515625,65.7958984375,30.76171875
1.1480038166046143,-1267282999,0,0.9603148102760315,0.7916836142539978,0.1098005548119545,23.4375,40.771484375,-70.98388671875
1.1480169296264648,-1267282980,0,0.9505491852760315,0.7731289267539978,0.1195661798119545,23.8037109375,41.19873046875,-77.81982421875
1.1496379375457764,-1267282980,1,-1.0335652828216553,1.1271759271621704,0.11779976636171341,38.87939453125,47.119140625,52.79541015625
1.1698417663574219,-1267282961,0,0.9210081696510315,0.7767910361289978,0.1178571954369545,24.10888671875,40.46630859375,-86.0595703125
1.1772820949554443,-1267282961,1,-0.8987995982170105,1.1225372552871704,0.1929950714111328,26.67236328125,25.69580078125,74.15771484375
1.1773779392242432,-1267282942,1,-0.7630574107170105,1.0981231927871704,0.2911396026611328,22.705078125,28.80859375,79.89501953125
1.1999397277832031,-1267282942,0,0.8858519196510315,0.7658047080039978,0.1493513286113739,20.3857421875,32.71484375,-92.59033203125
1.2000539302825928,-1267282923,0,0.8631468415260315,0.7687343955039978,0.1774275004863739,7.75146484375,25.390625,-93.1396484375
1.2076778411865234,-1267282923,1,-0.6297566294670105,1.0468536615371704,0.4432392120361328,10.8642578125,51.20849609375,83.984375
1.2431139945983887,-1267282904,0,0.8694944977760315,0.7614101767539978,0.1708357036113739,0.3662109375,21.3623046875,-94.23828125
1.2431228160858154,-1267282885,0,0.8550902009010315,0.7279629111289978,0.1820661723613739,-6.9580078125,23.4375,-98.69384765625
1.2448320388793945,-1267282904,1,-0.5550495982170105,0.9555451273918152,0.5802021026611328,9.82666015625,82.94677734375,85.8154296875
1.2455668449401855,-1267282885,1,-0.5277058482170105,0.8688752055168152,0.6600360870361328,23.13232421875,105.712890625,88.43994140625
1.2601189613342285,-1267282866,0,0.8189573884010315,0.7094082236289978,0.1950056254863739,-14.46533203125,27.34375,-102.96630859375
1.2690188884735107,-1267282866,1,-0.5216023325920105,0.8188263773918152,0.6749286651611328,36.4990234375,106.99462890625,88.7451171875
1.2950949668884277,-1267282847,0,0.7930784821510315,0.6967129111289978,0.2111189067363739,-15.869140625,29.4189453125,-104.55322265625
1.295102834701538,-1267282828,0,0.7357054352760315,0.6845058798789978,0.2091657817363739,-13.5498046875,30.029296875,-107.177734375
1.2973709106445312,-1267282847,1,-0.4508015513420105,0.8097931742668152,0.6805438995361328,50.10986328125,98.81591796875,88.68408203125
1.297461986541748,-1267282828,1,-0.3763386607170105,0.8210236430168152,0.6492938995361328,56.396484375,86.42578125,86.181640625
1.3200418949127197,-1267282809,0,0.7059202790260315,0.6835293173789978,0.2189314067363739,-13.00048828125,29.72412109375,-107.0556640625
1.3397469520568848,-1267282809,1,-0.3126179575920105,0.7961212992668152,0.6097431182861328,58.16650390625,79.1015625,83.0078125
1.3498759269714355,-1267282773,0,0.6043577790260315,0.6632656455039978,0.2235700786113739,-17.578125,34.66796875,-98.20556640625
1.3906428813934326,-1267282754,0,0.5562620759010315,0.6459316611289978,0.2299177348613739,-14.892578125,31.25,-92.59033203125
1.3915760517120361,-1267282735,0,0.5035277009010315,0.6405605673789978,0.2274763286113739,-13.61083984375,30.82275390625,-88.8671875
1.3938868045806885,-1267282773,1,-0.1888386607170105,0.7314240336418152,0.5184345245361328,66.162109375,66.22314453125,77.7587890625
1.393892765045166,-1267282754,1,-0.1375691294670105,0.7211701273918152,0.4581317901611328,66.7724609375,60.6689453125,77.69775390625
1.4098739624023438,-1267282716,0,0.4842406213283539,0.6583828330039978,0.2228376567363739,-15.5029296875,29.541015625,-84.228515625
1.4174399375915527,-1267282735,1,-0.1077839732170105,0.7226349711418152,0.4224872589111328,63.17138671875,57.6171875,74.52392578125
1.4175479412078857,-1267282716,1,-0.1060749888420105,0.7289826273918152,0.3844013214111328,56.5185546875,51.3916015625,72.265625
1.445044994354248,-1267282697,0,0.4207640588283539,0.6945156455039978,0.2470075786113739,-22.705078125,33.87451171875,-71.044921875
1.4490580558776855,-1267282697,1,-0.0784870982170105,0.7341095805168152,0.3455829620361328,42.6025390625,41.44287109375,68.54248046875
1.4490668773651123,-1267282678,1,-0.054561320692300797,0.7009064555168152,0.3138446807861328,26.55029296875,29.84619140625,65.5517578125
1.4699897766113281,-1267282678,0,0.3753539025783539,0.6950039267539978,0.2374860942363739,-36.0107421875,36.1328125,-58.7158203125
1.4701087474822998,-1267282659,0,0.3741331994533539,0.7101406455039978,0.2472517192363739,-49.98779296875,39.97802734375,-49.25537109375
1.4772789478302002,-1267282659,1,-0.040157023817300797,0.6840607523918152,0.2830829620361328,22.27783203125,20.93505859375,61.46240234375
1.479435920715332,-1267282640,1,-0.010371867567300797,0.6723420023918152,0.2545185089111328,19.34814453125,16.9677734375,53.52783203125
1.5004198551177979,-1267282640,0,0.3340941369533539,0.6535000205039978,0.2767927348613739,-73.66943359375,43.8232421875,-38.6962890625
1.5004878044128418,-1267282621,0,0.2916136682033539,0.6378750205039978,0.2797224223613739,-71.8994140625,37.78076171875,-27.9541015625
1.5075137615203857,-1267282621,1,-0.0052449144423007965,0.6518341898918152,0.2237567901611328,19.47021484375,13.916015625,46.5087890625
1.5425028800964355,-1267282602,0,0.2466917783021927,0.5717129111289978,0.2858259379863739,-54.99267578125,20.751953125,-20.263671875
1.5425117015838623,-1267282583,0,0.2796507775783539,0.5897793173789978,0.2921735942363739,-32.28759765625,2.9296875,-12.87841796875
1.5451948642730713,-1267282602,1,0.0033000074326992035,0.6496369242668152,0.1900653839111328,20.8740234375,10.986328125,38.14697265625
1.5459346771240234,-1267282583,1,0.016727741807699203,0.6552521586418152,0.1722431182861328,18.98193359375,8.11767578125,33.935546875
1.5601747035980225,-1267282564,0,0.2750121057033539,0.6244472861289978,0.3322126567363739,-7.14111328125,-15.07568359375,-1.64794921875
1.5674238204956055,-1267282564,1,0.028934773057699203,0.6603791117668152,0.1502704620361328,12.20703125,4.2724609375,25.634765625
1.5968530178070068,-1267282545,0,0.3553343713283539,0.6288418173789978,0.3368513286113739,4.8828125,-27.89306640625,11.474609375
1.619041919708252,-1267282509,0,0.3777953088283539,0.6156582236289978,0.3182966411113739,16.9677734375,-14.70947265625,33.447265625
1.6393368244171143,-1267282545,1,0.024784382432699203,0.6813752055168152,0.1434345245361328,4.39453125,1.0986328125,13.36669921875
1.6393449306488037,-1267282509,1,0.0753214955329895,0.6630646586418152,0.11194039136171341,-6.28662109375,-6.77490234375,-5.615234375
1.6393508911132812,-1267282490,1,0.0921671986579895,0.6576935648918152,0.1319599151611328,-11.474609375,-1.89208984375,-18.73779296875
1.6500039100646973,-1267282490,0,0.4002562463283539,0.6188320517539978,0.3219587504863739,21.05712890625,-11.41357421875,41.93115234375
1.650080919265747,-1267282471,0,0.4122191369533539,0.6149258017539978,0.3327009379863739,26.0009765625,-8.97216796875,57.4951171875
1.6581408977508545,-1267282471,1,0.0936320424079895,0.6459748148918152,0.1663837432861328,-17.39501953125,3.72314453125,-29.4189453125
1.6914570331573486,-1267282452,0,0.4063597619533539,0.6149258017539978,0.3226911723613739,27.77099609375,-11.77978515625,72.32666015625
1.6914639472961426,-1267282433,0,0.3831664025783539,0.5543789267539978,0.3041364848613739,20.99609375,-16.54052734375,83.92333984375
1.6938109397888184,-1267282452,1,0.0743449330329895,0.5927521586418152,0.2169208526611328,-22.39990234375,8.97216796875,-45.59326171875
1.6938178539276123,-1267282433,1,0.0743449330329895,0.4804474413394928,0.2305927276611328,-24.5361328125,11.90185546875,-61.09619140625
1.7097218036651611,-1267282414,0,0.3682738244533539,0.4694180190563202,0.2877790629863739,17.4560546875,-23.86474609375,92.529296875
1.7174489498138428,-1267282414,1,0.0992472767829895,0.3613068163394928,0.2410907745361328,-24.2919921875,10.009765625,-73.3642578125
1.7448599338531494,-1267282395,0,0.4022093713283539,0.4235195815563202,0.2269880473613739,27.9541015625,-42.8466796875,106.38427734375
1.744872808456421,-1267282376,0,0.4700804650783539,0.4791836440563202,0.2348005473613739,30.8837890625,-62.744140625,132.99560546875
1.74867582321167,-1267282395,1,0.0882609486579895,0.3234650194644928,0.2611103057861328,-30.76171875,8.6669921875,-86.73095703125
1.7486848831176758,-1267282376,1,0.044315632432699203,0.2570587694644928,0.3250751495361328,-48.583984375,6.28662109375,-112.12158203125
1.7698488235473633,-1267282357,0,0.5987425446510315,0.4611172378063202,0.1969587504863739,19.34814453125,-81.1767578125,163.14697265625
1.7855827808380127,-1267282357,1,-0.0709187388420105,0.2875763475894928,0.4219989776611328,-80.13916015625,0.3662109375,-148.01025390625
1.7999627590179443,-1267282338,0,0.7122679352760315,0.4166836440563202,0.1815778911113739,9.1552734375,-83.31298828125,183.837890625
1.800096035003662,-1267282319,0,0.8272581696510315,0.3202480971813202,0.1627790629863739,5.0048828125,-72.998046875,210.51025390625
1.8078389167785645,-1267282338,1,-0.1932331919670105,0.2692658007144928,0.5255146026611328,-120.78857421875,-3.60107421875,-202.20947265625
1.8079237937927246,-1267282319,1,-0.2796589732170105,0.2172638475894928,0.6141376495361328,-142.9443359375,0.6103515625,-247.1923828125
1.8415658473968506,-1267282300,0,0.9263792634010315,0.2902188003063202,0.0861189141869545,16.11328125,-62.6220703125,226.9287109375
1.845602035522461,-1267282300,1,-0.4185749888420105,0.1689240038394928,0.6619892120361328,-147.3388671875,15.44189453125,-283.8134765625
1.8456099033355713,-1267282281,1,-0.6265828013420105,0.1699005663394928,0.7513446807861328,-142.08984375,33.935546875,-320.61767578125
1.8598389625549316,-1267282281,0,1.0274535417556763,0.3815273940563202,0.007505632936954498,24.658203125,-55.11474609375,229.736328125
1.8948948383331299,-1267282245,0,1.2698851823806763,0.4254727065563202,-0.0798967108130455,-15.13671875,-20.1416015625,208.3740234375
1.8949048519134521,-1267282226,0,1.3419066667556763,0.4164395034313202,-0.0938127264380455,-43.39599609375,17.76123046875,194.2138671875
1.897486686706543,-1267282245,1,-1.1956746578216553,0.0969025194644928,0.9039325714111328,-113.83056640625,17.27294921875,-358.7646484375
1.8976147174835205,-1267282226,1,-1.5740926265716553,-0.1572478711605072,1.0208759307861328,-60.48583984375,-43.27392578125,-331.72607421875
1.9201207160949707,-1267282207,0,1.3831664323806763,0.4721035659313202,-0.1538713276386261,-55.419921875,40.4052734375,171.08154296875
1.927452802658081,-1267282207,1,-1.7796590328216553,-0.1797088086605072,1.1065692901611328,37.41455078125,-137.75634765625,-315.3076171875
1.9499080181121826,-1267282188,0,1.4022094011306763,0.5607265830039978,-0.2234514057636261,-68.05419921875,42.8466796875,147.216796875
1.9500279426574707,-1267282169,0,1.3760863542556763,0.5817226767539978,-0.2805803120136261,-83.0078125,37.9638671875,127.13623046875
1.960817813873291,-1267282188,1,-1.7012898921966553,-0.1413787305355072,1.1536884307861328,127.3193359375,-209.228515625,-312.07275390625
1.9608278274536133,-1267282169,1,-1.5425984859466553,-0.053488101810216904,1.1087665557861328,191.7724609375,-251.220703125,-323.66943359375
1.99180006980896,-1267282150,0,1.3567992448806763,0.5719570517539978,-0.3189103901386261,-106.201171875,32.77587890625,121.88720703125
1.994215965270996,-1267282150,1,-1.5657918453216553,-0.026876773685216904,0.9967060089111328,230.46875,-237.060546875,-342.10205078125
1.99422287940979,-1267282131,1,-1.6878621578216553,0.047097835689783096,0.8490009307861328,249.57275390625,-215.27099609375,-336.73095703125
2.0099618434906006,-1267282131,0,1.3250609636306763,0.5905117392539978,-0.3020646870136261,-126.708984375,26.611328125,135.25390625
2.0100820064544678,-1267282112,0,1.3228636980056763,0.5812343955039978,-0.2678849995136261,-135.7421875,17.7001953125,135.07080078125
2.017503023147583,-1267282112,1,-1.7481648921966553,0.1218048632144928,0.7518329620361328,262.451171875,-194.03076171875,-310.48583984375
2.044929027557373,-1267282093,0,1.3306761980056763,0.6373867392539978,-0.2688615620136261,-147.94921875,11.04736328125,122.61962890625
2.0449378490448,-1267282074,0,1.3353148698806763,0.6976894736289978,-0.2473771870136261,-173.9501953125,-9.94873046875,97.2900390625
2.0485477447509766,-1267282093,1,-1.8133504390716553,0.2502228319644928,0.5916767120361328,284.1796875,-157.28759765625,-258.60595703125
2.048555850982666,-1267282074,1,-1.7867391109466553,0.3359161913394928,0.4061298370361328,307.43408203125,-109.0087890625,-195.25146484375
2.0699069499969482,-1267282055,0,1.3541136980056763,0.6088222861289978,-0.0906388983130455,-206.54296875,-34.36279296875,59.63134765625
2.0899088382720947,-1267282055,1,-1.7806355953216553,0.3481232225894928,0.2225360870361328,332.58056640625,-63.29345703125,-145.263671875
2.0998950004577637,-1267282036,0,1.4139281511306763,0.5424160361289978,0.0560896173119545,-218.994140625,-55.60302734375,35.15625
2.1000189781188965,-1267282017,0,1.4319945573806763,0.5182461142539978,0.1893903911113739,-215.8203125,-78.43017578125,12.8173828125
2.107484817504883,-1267282036,1,-1.8035848140716553,0.3556915819644928,0.11145211011171341,336.9140625,-42.66357421875,-106.99462890625
2.1076290607452393,-1267282017,1,-1.6917684078216553,0.3935333788394928,0.01355171948671341,326.2939453125,-24.84130859375,-65.3076171875
2.159409761428833,-1267281981,0,1.5391722917556763,0.4845547378063202,0.4376814067363739,-187.19482421875,-169.921875,-60.05859375
2.1605629920959473,-1267281962,0,1.7010375261306763,0.5243496298789978,0.4669782817363739,-170.41015625,-195.068359375,-96.923828125
2.167232036590576,-1267281981,1,-1.6297566890716553,0.4047638475894928,0.06433296948671341,217.10205078125,-27.16064453125,4.57763671875
2.167306900024414,-1267281962,1,-1.5054891109466553,0.2851349413394928,0.04773140698671341,173.9501953125,-24.47509765625,36.80419921875
2.1966309547424316,-1267281943,0,1.7972289323806763,0.5553554892539978,0.5590193271636963,-169.61669921875,-200.62255859375,-117.3095703125
2.1966419219970703,-1267281924,0,1.9210082292556763,0.4769863784313202,0.5939314365386963,-158.14208984375,-197.998046875,-154.6630859375
2.197831869125366,-1267281943,1,-1.4615437984466553,0.2209259569644928,0.05359078198671341,150.08544921875,4.638671875,67.68798828125
2.19791579246521,-1267281924,1,-1.4017293453216553,0.2160431444644928,0.09460640698671341,143.49365234375,30.21240234375,87.21923828125
2.2223188877105713,-1267281905,0,1.9146605730056763,0.4794277846813202,0.6119978427886963,-138.85498046875,-192.626953125,-195.9228515625
2.2408769130706787,-1267281905,1,-1.3651082515716553,0.2380158007144928,0.12365914136171341,126.64794921875,64.14794921875,104.98046875
2.249964952468872,-1267281886,0,1.9561644792556763,0.5529140830039978,0.6293318271636963,-141.2353515625,-178.1005859375,-230.28564453125
2.250154972076416,-1267281867,0,2.0777463912963867,0.5092129111289978,0.5712263584136963,-173.2177734375,-136.1083984375,-252.0751953125
2.2573587894439697,-1267281886,1,-1.3023641109466553,0.3232208788394928,0.1636981964111328,107.2998046875,95.458984375,116.76025390625
2.2574567794799805,-1267281867,1,-1.2327840328216553,0.3566681444644928,0.1285419464111328,70.9228515625,118.408203125,125.0
2.292022943496704,-1267281848,0,2.0496702194213867,0.3041348159313202,0.5343611240386963,-194.2138671875,-88.134765625,-252.5634765625
2.2944138050079346,-1267281848,1,-1.1732137203216553,0.3158966600894928,0.11804390698671341,47.42431640625,137.20703125,130.43212890625
2.310203790664673,-1267281829,0,1.9131957292556763,0.174984410405159,0.5487654209136963,-186.279296875,-48.2177734375,-259.33837890625
2.3102867603302,-1267281810,0,1.7391234636306763,0.083675816655159,0.5497419834136963,-175.537109375,-25.69580078125,-269.34814453125
2.3174850940704346,-1267281829,1,-1.0435750484466553,0.2958771288394928,0.11340523511171341,20.263671875,161.80419921875,137.26806640625
2.3175899982452393,-1267281810,1,-0.9969441294670105,0.2463165819644928,0.1763935089111328,-3.41796875,181.884765625,141.17431640625
2.3453359603881836,-1267281791,0,1.6324340105056763,0.050960976630449295,0.5216658115386963,-176.81884765625,3.662109375,-276.2451171875
2.3692069053649902,-1267281772,0,1.5489379167556763,-0.034976523369550705,0.5560896396636963,-185.546875,33.935546875,-271.484375
2.3699729442596436,-1267281753,0,1.4420043230056763,-0.150699183344841,0.5878279209136963,-176.8798828125,74.0966796875,-253.662109375
2.3883309364318848,-1267281791,1,-0.9000203013420105,0.2436310350894928,0.1729755401611328,-35.58349609375,187.68310546875,128.23486328125
2.3883378505706787,-1267281772,1,-0.8314167857170105,0.2292267382144928,0.1463642120361328,-54.931640625,199.15771484375,121.337890625
2.38834285736084,-1267281753,1,-0.7481648325920105,0.2099396288394928,0.1517353057861328,-68.66455078125,205.2001953125,116.51611328125
2.4000067710876465,-1267281717,0,1.3870726823806763,-0.160464808344841,0.6007673740386963,-127.38037109375,113.037109375,-233.33740234375
2.407474994659424,-1267281717,1,-0.6136433482170105,0.1528107225894928,0.2047138214111328,-97.0458984375,202.08740234375,93.81103515625
2.4413797855377197,-1267281698,0,1.3763304948806763,-0.125796839594841,0.5558454990386963,-111.99951171875,130.31005859375,-218.93310546875
2.4451777935028076,-1267281698,1,-0.5196492075920105,0.1083771288394928,0.2030048370361328,-95.52001953125,206.84814453125,76.35498046875
2.4606688022613525,-1267281679,0,1.3233519792556763,-0.175601527094841,0.5695173740386963,-100.28076171875,162.353515625,-193.4814453125
2.4607977867126465,-1267281660,0,1.1834594011306763,-0.153628870844841,0.4906599223613739,-86.73095703125,194.580078125,-170.95947265625
2.4678337574005127,-1267281679,1,-0.4566609263420105,0.1598908007144928,0.2249774932861328,-90.27099609375,216.97998046875,53.16162109375
2.467949867248535,-1267281660,1,-0.5194050669670105,0.2958771288394928,0.2943134307861328,-87.46337890625,230.40771484375,32.71484375
2.498203754425049,-1267281641,0,0.9788694977760315,-0.196353480219841,0.3820173442363739,-69.76318359375,225.5859375,-124.20654296875
2.4996957778930664,-1267281641,1,-0.6004597544670105,0.2802521288394928,0.4891376495361328,-88.56201171875,232.97119140625,18.5546875
2.499701976776123,-1267281622,1,-0.6744343638420105,0.3896271288394928,0.6964130401611328,-73.8525390625,209.716796875,5.79833984375
2.5230839252471924,-1267281622,0,0.9161253571510315,-0.240298792719841,0.2738630473613739,-37.78076171875,256.7138671875,-75.3173828125
2.5230939388275146,-1267281603,0,0.8895140290260315,-0.222720667719841,0.2343122661113739,21.240234375,266.41845703125,-57.2509765625
2.5406100749969482,-1267281603,1,-0.6798054575920105,0.6127716898918152,0.5311298370361328,-82.94677734375,192.32177734375,9.033203125
2.5499236583709717,-1267281584,0,0.9007444977760315,-0.190494105219841,0.1207868829369545,73.66943359375,251.708984375,-56.94580078125
2.550049066543579,-1267281565,0,0.9454222321510315,-0.132876917719841,-0.003968976438045502,139.34326171875,246.88720703125,-70.6787109375
2.5908946990966797,-1267281546,0,0.9048948884010315,-0.199771448969841,-0.1069963201880455,191.40625,267.08984375,-95.0927734375
2.594233751296997,-1267281584,1,-0.8675495982170105,0.5158478617668152,0.3573017120361328,-94.6044921875,180.84716796875,3.72314453125
2.595667839050293,-1267281565,1,-0.6439167857170105,0.3420197069644928,0.2347431182861328,-111.99951171875,185.85205078125,-13.427734375
2.595674753189087,-1267281546,1,-0.6915242075920105,0.5136505961418152,0.1722431182861328,-125.91552734375,191.71142578125,-10.19287109375
2.595728874206543,-1267281527,1,-0.7359578013420105,0.4382111132144928,0.1802997589111328,-134.1552734375,190.7958984375,-5.615234375
2.610934019088745,-1267281527,0,0.7913694977760315,-0.2652011215686798,-0.1914689838886261,224.30419921875,279.4189453125,-113.8916015625
2.610942840576172,-1267281508,0,0.6160765290260315,-0.3491854965686798,-0.2517717182636261,253.23486328125,282.89794921875,-129.8828125
2.617466926574707,-1267281508,1,-0.7144734263420105,0.3173615038394928,0.2208271026611328,-124.0234375,190.24658203125,-19.10400390625
2.644657850265503,-1267281489,0,0.5811644196510315,-0.4158358871936798,-0.4485490620136261,292.96875,275.81787109375,-114.92919921875
2.6473710536956787,-1267281489,1,-0.6968953013420105,0.2880646288394928,0.2017841339111328,-98.5107421875,193.2373046875,-35.21728515625
2.669816017150879,-1267281453,0,0.5716429352760315,-0.3728671371936798,-0.8308732509613037,353.3935546875,259.033203125,-124.8779296875
2.6774210929870605,-1267281453,1,-0.6741902232170105,0.3053986132144928,0.1512470245361328,-47.607421875,210.205078125,-76.5380859375
2.700087070465088,-1267281434,0,0.3526488244533539,-0.3430819809436798,-0.9697892665863037,362.548828125,259.09423828125,-142.578125
2.700195789337158,-1267281415,0,0.1605101376771927,-0.3645663559436798,-0.9610002040863037,349.4873046875,239.56298828125,-141.11328125
2.7073278427124023,-1267281434,1,-0.7139851450920105,0.3425079882144928,0.1588153839111328,-18.5546875,219.23828125,-97.900390625
2.707418918609619,-1267281415,1,-0.8565632700920105,0.4750763475894928,0.1981220245361328,-9.27734375,209.5947265625,-109.31396484375
2.7416088581085205,-1267281396,0,0.07896716892719269,-0.5237460732460022,-0.9487931728363037,341.4306640625,205.01708984375,-108.09326171875
2.7439627647399902,-1267281396,1,-0.8807331919670105,0.5080353617668152,0.2264423370361328,-30.8837890625,176.8798828125,-126.64794921875
2.760100841522217,-1267281377,0,0.2523070275783539,-0.6770663857460022,-1.0850236415863037,361.4501953125,179.5654296875,-74.89013671875
2.760222911834717,-1267281358,0,0.3287230432033539,-0.6797519326210022,-1.2276017665863037,403.3203125,170.5322265625,-65.185546875
2.7676658630371094,-1267281377,1,-0.8382527232170105,0.4267365038394928,0.2169208526611328,-38.6962890625,157.65380859375,-144.53125
2.7677791118621826,-1267281358,1,-0.8099324107170105,0.3273712694644928,0.2235126495361328,-15.2587890625,152.099609375,-168.8232421875
2.797532796859741,-1267281339,0,0.2535277307033539,-0.6436191201210022,-1.2986466884613037,420.10498046875,151.67236328125,-63.90380859375
2.79799485206604,-1267281339,1,-0.8492390513420105,0.2375275194644928,0.1883563995361328,28.9306640625,157.3486328125,-195.25146484375
2.7980008125305176,-1267281320,1,-0.8843953013420105,0.2199493944644928,0.11438179761171341,73.974609375,158.63037109375,-224.2431640625
2.818763017654419,-1267281320,0,0.2950316369533539,-0.7051425576210022,-1.2129533290863037,426.57470703125,116.455078125,-42.05322265625
2.819606065750122,-1267281301,0,0.6082640290260315,-0.9212070107460022,-1.2713029384613037,426.94091796875,86.85302734375,-38.51318359375
2.82698392868042,-1267281301,1,-0.8985554575920105,0.1847931444644928,0.04699898511171341,99.91455078125,159.72900390625,-250.1220703125
2.849883794784546,-1267281282,0,0.7252073884010315,-1.0205721855163574,-1.3567521572113037,446.8994140625,87.646484375,-65.12451171875
2.85001802444458,-1267281263,0,0.6785765290260315,-0.9822421669960022,-1.5051896572113037,434.75341796875,107.60498046875,-80.56640625
2.857752799987793,-1267281282,1,-1.0303914546966553,0.1591583788394928,-0.05163382738828659,119.44580078125,165.10009765625,-277.099609375
2.8577747344970703,-1267281263,1,-1.2545125484466553,0.1454865038394928,-0.1627178192138672,112.060546875,159.1796875,-312.3779296875
2.890920877456665,-1267281244,0,0.6832152009010315,-0.9841952919960022,-1.7149064540863037,384.6435546875,127.25830078125,-71.96044921875
2.8943769931793213,-1267281244,1,-1.4542195796966553,0.1777130663394928,-0.1475811004638672,111.81640625,123.291015625,-336.9140625
2.9162118434906006,-1267281225,1,-1.5198934078216553,0.2150665819644928,-0.1483135223388672,96.98486328125,58.349609375,-348.08349609375
2.945446729660034,-1267281225,0,0.5963011384010315,-0.8975253701210022,-1.8450334072113037,335.38818359375,115.17333984375,-88.7451171875
2.94545578956604,-1267281189,0,0.8758421540260315,0.079525426030159,-2.6436173915863037,233.09326171875,50.6591796875,-143.798828125
2.9474167823791504,-1267281189,1,-1.6302449703216553,0.1454865038394928,-0.2220439910888672,20.44677734375,-88.68408203125,-355.04150390625
2.9474899768829346,-1267281170,1,-1.7217977046966553,-0.2685759961605072,-0.1456279754638672,23.5595703125,-75.01220703125,-280.57861328125
2.970237970352173,-1267281170,0,1.0252562761306763,-0.7713046669960022,-2.2173478603363037,111.63330078125,25.20751953125,-221.435546875
2.9702978134155273,-1267281151,0,1.1002074480056763,-0.7920566201210022,-2.0405900478363037,52.79541015625,72.998046875,-223.32763671875
2.989193916320801,-1267281151,1,-1.5167195796966553,-0.5800994038581848,0.02649117261171341,125.67138671875,-144.10400390625,-305.908203125
2.999858856201172,-1267281132,0,1.7332640886306763,-1.6345858573913574,-2.1531388759613037,62.01171875,98.57177734375,-182.4951171875
2.999997854232788,-1267281113,0,1.1368285417556763,-1.2131991386413574,-1.7654435634613037,58.9599609375,172.66845703125,-188.65966796875
3.0072219371795654,-1267281132,1,-1.4996297359466553,-0.4170134961605072,0.08044625073671341,205.01708984375,-180.35888671875,-331.48193359375
3.0073468685150146,-1267281113,1,-1.4498250484466553,-0.2627166211605072,-0.06677054613828659,206.54296875,-228.6376953125,-346.8017578125
3.0413949489593506,-1267281094,0,1.0943480730056763,-0.9995761513710022,-1.8726212978363037,33.99658203125,134.46044921875,-250.42724609375
3.0439329147338867,-1267281094,1,-1.6307332515716553,-0.6386931538581848,-0.1414775848388672,132.14111328125,-261.8408203125,-325.927734375
3.059851884841919,-1267281075,0,1.1946898698806763,-1.3071932792663574,-1.7202775478363037,-18.9208984375,74.40185546875,-301.81884765625
3.05993390083313,-1267281056,0,1.0015746355056763,-1.7212557792663574,-1.3862931728363037,-31.31103515625,28.13720703125,-288.330078125
3.067314863204956,-1267281075,1,-1.3778035640716553,-0.9489958882331848,0.3170185089111328,206.0546875,-302.490234375,-273.5595703125
3.06745982170105,-1267281056,1,-1.5679891109466553,-0.8298552632331848,0.6492938995361328,260.7421875,-359.619140625,-234.375
3.09700083732605,-1267281037,0,0.6578245759010315,-1.4971346855163574,-1.2576310634613037,8.11767578125,-92.46826171875,-285.58349609375
3.0975728034973145,-1267281037,1,-1.6544148921966553,-0.1631072461605072,0.01770211011171341,268.73779296875,-397.15576171875,-192.9931640625
3.1198747158050537,-1267281018,0,1.3087035417556763,-1.5115389823913574,-1.2769181728363037,47.05810546875,-181.45751953125,-301.69677734375
3.1199491024017334,-1267280999,0,0.9149046540260315,-1.3723788261413574,-1.2158830165863037,35.888671875,-199.5849609375,-232.2998046875
3.128948926925659,-1267281018,1,-1.7571980953216553,-0.1845916211605072,-0.11388968676328659,207.03125,-390.9912109375,-133.60595703125
3.128959894180298,-1267280999,1,-1.1468465328216553,-0.5847380757331848,0.3929462432861328,233.33740234375,-320.9228515625,-59.6923828125
3.1501917839050293,-1267280980,0,1.6944457292556763,-0.5183749794960022,-1.4849259853363037,-2.86865234375,-183.65478515625,-273.01025390625
3.158022880554199,-1267280980,1,-1.0589559078216553,-0.8493865132331848,0.4754657745361328,130.31005859375,-275.81787109375,-10.68115234375
3.1582000255584717,-1267280961,1,-1.0521199703216553,-0.5761931538581848,1.0477313995361328,191.95556640625,-238.037109375,34.423828125
3.192499876022339,-1267280961,0,2.2071409225463867,-0.8152499794960022,-1.5862443447113037,-131.2255859375,-131.16455078125,-350.15869140625
3.2094006538391113,-1267280925,0,1.5394164323806763,-1.2258944511413574,-0.4964006245136261,-134.58251953125,-105.52978515625,-325.74462890625
3.2102620601654053,-1267280906,0,1.2222777605056763,-0.6873202919960022,0.0531599298119545,-7.01904296875,-247.00927734375,-352.5390625
3.2172720432281494,-1267280925,1,-0.4791218638420105,-0.3960174024105072,0.6099872589111328,133.4228515625,-246.7041015625,33.14208984375
3.217369794845581,-1267280906,1,-0.2347370982170105,-0.4389861524105072,0.5469989776611328,96.6796875,-194.580078125,17.88330078125
3.2444727420806885,-1267280887,0,2.0589475631713867,0.006283242255449295,-0.3572404682636261,161.0107421875,-315.0634765625,-488.28125
3.2471978664398193,-1267280887,1,0.1283000111579895,-0.7961638569831848,1.0440692901611328,95.21484375,-136.16943359375,-43.02978515625
3.269922971725464,-1267280868,0,2.2588987350463867,0.5873379111289978,-0.5706193447113037,-61.34033203125,-287.29248046875,-449.951171875
3.270033836364746,-1267280849,0,1.8506957292556763,-0.095035120844841,-0.2695939838886261,-121.7041015625,-212.0361328125,-372.55859375
3.2900500297546387,-1267280868,1,-0.5967976450920105,-0.1020720899105072,1.5394306182861328,148.193359375,-152.89306640625,-67.68798828125
3.2900569438934326,-1267280849,1,-0.4136921763420105,0.034890804439783096,0.8863544464111328,104.8583984375,-232.11669921875,13.73291015625
3.302946090698242,-1267280830,0,1.3306761980056763,-0.3062167465686798,0.0226423516869545,-100.341796875,-178.22265625,-308.65478515625
3.3074288368225098,-1267280830,1,-0.1163288950920105,-0.3093474805355072,0.9134540557861328,100.5859375,-208.6181640625,55.6640625
3.307501792907715,-1267280811,1,0.4420207142829895,-0.8701384663581848,0.7003192901611328,61.70654296875,-145.44677734375,-7.14111328125
3.340749740600586,-1267280811,0,0.8726683259010315,-0.200015589594841,0.0604841485619545,-28.076171875,-232.0556640625,-260.80322265625
3.340756893157959,-1267280792,0,0.7376585602760315,-0.016421835869550705,-0.0647599920630455,-1.40380859375,-315.4296875,-200.3173828125
3.3432488441467285,-1267280792,1,0.059696491807699203,-0.9072478413581848,1.0118427276611328,79.833984375,-59.6923828125,-112.48779296875
3.3599319458007812,-1267280773,0,0.7166624665260315,-0.047183554619550705,-0.1001603826880455,-2.3193359375,-371.826171875,-154.60205078125
3.360100746154785,-1267280754,0,0.6898069977760315,-0.064517542719841,-0.1555803120136261,-46.0205078125,-418.27392578125,-125.48828125
3.3671798706054688,-1267280773,1,-0.3231160044670105,-0.3584197461605072,1.1507587432861328,80.56640625,-65.36865234375,-123.10791015625
3.3672919273376465,-1267280754,1,-0.1959187388420105,-0.3772185742855072,1.2481708526611328,97.96142578125,-90.8203125,-94.482421875
3.397157907485962,-1267280735,0,0.7762327790260315,-0.240542933344841,-0.1228654608130455,-114.31884765625,-439.14794921875,-125.30517578125
3.3976387977600098,-1267280735,1,-0.2008015513420105,-0.0974334180355072,1.1365985870361328,122.4365234375,-115.6005859375,-41.259765625
3.4199087619781494,-1267280716,0,0.9002562165260315,-0.4863925278186798,-0.0232560858130455,-141.357421875,-428.03955078125,-125.0
3.4200358390808105,-1267280697,0,0.8743773102760315,-0.5791659951210022,0.0797712579369545,-126.89208984375,-399.2919921875,-101.4404296875
3.4405598640441895,-1267280716,1,-0.4266316294670105,-0.049337711185216904,0.8187274932861328,133.97216796875,-131.40869140625,2.74658203125
3.4405670166015625,-1267280697,1,-0.6304890513420105,-0.2019256055355072,0.5745868682861328,59.26513671875,-109.4970703125,88.68408203125
3.456578016281128,-1267280661,1,-0.5985066294670105,-0.3633025586605072,0.9222431182861328,24.169921875,-45.47119140625,157.3486328125
3.4896349906921387,-1267280661,0,0.7369261384010315,-0.5237460732460022,0.1757185161113739,-86.669921875,-385.986328125,-67.9931640625
3.4896440505981445,-1267280642,0,0.7430296540260315,-0.5857577919960022,0.2528669536113739,-78.125,-373.9013671875,-84.9609375
3.492987871170044,-1267280642,1,-0.5653035044670105,-0.1404021680355072,0.7994403839111328,22.5830078125,-14.34326171875,168.27392578125
3.5100138187408447,-1267280623,0,0.5801878571510315,-0.7080722451210022,0.2636091411113739,-58.837890625,-338.80615234375,-114.013671875
3.5101349353790283,-1267280604,0,0.3179808557033539,-0.9954257607460022,0.1708357036113739,-41.93115234375,-290.71044921875,-121.88720703125
3.5183889865875244,-1267280623,1,-0.5438191294670105,0.038064632564783096,0.7359638214111328,17.333984375,16.54052734375,196.6552734375
3.518397808074951,-1267280604,1,-0.5394245982170105,0.0661408007144928,0.6419696807861328,-1.52587890625,48.27880859375,248.9013671875
3.5448927879333496,-1267280585,0,0.0054808445274829865,-1.1506991386413574,0.0475446954369545,-35.2783203125,-256.89697265625,-109.92431640625
3.547118663787842,-1267280585,1,-0.4378620982170105,-0.0786345899105072,0.6097431182861328,-22.88818359375,64.94140625,284.66796875
3.569945812225342,-1267280566,0,-0.5877808928489685,-1.2349276542663574,-0.0520646795630455,-4.150390625,-266.54052734375,-39.4287109375
3.5700559616088867,-1267280547,0,-0.8690308928489685,-1.3089022636413574,-0.1856096088886261,28.74755859375,-371.9482421875,57.6171875
3.5897789001464844,-1267280566,1,-0.3397175669670105,-0.3022674024105072,0.6788349151611328,-37.109375,74.76806640625,287.353515625
3.589787721633911,-1267280547,1,-0.1741902232170105,-0.3132537305355072,0.6190204620361328,-46.08154296875,74.70703125,257.01904296875
3.599949836730957,-1267280528,0,-0.6109742522239685,-1.4861483573913574,-0.4241349995136261,73.91357421875,-522.3388671875,141.17431640625
3.607213020324707,-1267280528,1,0.014042194932699203,-0.2600310742855072,0.5596942901611328,-54.0771484375,85.8154296875,203.55224609375
3.6417078971862793,-1267280509,0,0.2144652158021927,-1.7495760917663574,-0.7871720790863037,133.48388671875,-696.71630859375,263.7939453125
3.6426479816436768,-1267280490,0,1.3409301042556763,-2.1821932792663574,-1.2761857509613037,167.66357421875,-788.63525390625,383.72802734375
3.6443347930908203,-1267280509,1,0.036258991807699203,-0.021993961185216904,0.5125751495361328,-52.06298828125,118.71337890625,161.56005859375
3.645155668258667,-1267280490,1,-0.011348430067300797,0.0641876757144928,0.6693134307861328,-44.98291015625,142.15087890625,161.68212890625
3.6597487926483154,-1267280471,0,2.2388792037963867,-2.6536288261413574,-1.6755998134613037,202.2705078125,-769.59228515625,502.74658203125
3.6675519943237305,-1267280471,1,0.0030558668076992035,0.0007111169397830963,0.8145771026611328,-53.64990234375,139.7705078125,150.69580078125
3.6676957607269287,-1267280452,1,0.028690632432699203,-0.3496306836605072,1.1033954620361328,-58.04443359375,122.314453125,129.39453125
3.6952297687530518,-1267280452,0,2.8318967819213867,-2.8855624198913574,-1.8533341884613037,231.38427734375,-747.13134765625,616.8212890625
3.695237874984741,-1267280433,0,3.7515745162963867,-3.4307284355163574,-2.0523087978363037,299.62158203125,-715.27099609375,756.8359375
3.6987829208374023,-1267280433,1,0.025028523057699203,-0.6198943257331848,1.3573017120361328,-27.7099609375,93.56689453125,82.21435546875
3.719883918762207,-1267280397,0,4.533801078796387,-2.9651522636413574,-2.2573869228363037,434.2041015625,-588.5009765625,880.43212890625
3.7271759510040283,-1267280397,1,-0.3362995982170105,-1.3056854009628296,1.7882099151611328,26.42822265625,-35.46142578125,-20.32470703125
3.750067949295044,-1267280378,0,4.526476860046387,-2.8775057792663574,-1.7283341884613037,308.41064453125,-494.0185546875,963.68408203125
3.7575900554656982,-1267280378,1,-0.3074910044670105,-1.5085662603378296,1.5733661651611328,55.11474609375,-141.7236328125,-57.31201171875
3.794510841369629,-1267280359,0,5.335070610046387,-4.039859294891357,-2.1724259853363037,393.310546875,-347.900390625,986.6943359375
3.7945218086242676,-1267280340,0,6.086779594421387,-3.9014315605163574,-4.205141067504883,517.333984375,-268.1884765625,975.4638671875
3.796194076538086,-1267280359,1,-0.1514851450920105,-1.5786346197128296,1.3031024932861328,50.72021484375,-200.74462890625,-64.14794921875
3.7961997985839844,-1267280340,1,0.1629679799079895,-1.9975799322128296,1.2252216339111328,34.3017578125,-255.43212890625,-84.9609375
3.8098528385162354,-1267280321,0,7.279894828796387,-2.5713534355163574,-5.077699661254883,293.51806640625,-304.38232421875,959.65576171875
3.8173177242279053,-1267280321,1,0.5550578236579895,-2.44215989112854,1.1060810089111328,75.3173828125,-329.2236328125,-136.65771484375
3.817340850830078,-1267280302,1,0.5675089955329895,-2.05031418800354,0.2210712432861328,104.06494140625,-405.57861328125,-163.818359375
3.847087860107422,-1267280302,0,7.540637016296387,0.4533047378063202,-3.4722306728363037,-22.94921875,-174.01123046875,575.68359375
3.847097873687744,-1267280283,0,3.9178342819213867,-1.8753085136413574,0.7648298740386963,-303.8330078125,137.02392578125,389.46533203125
3.847608804702759,-1267280283,1,0.6258586049079895,-1.4421600103378296,-0.3060283660888672,76.0498046875,-365.17333984375,-153.4423828125
3.869788885116577,-1267280264,0,3.2151975631713867,-1.5996737480163574,1.3749372959136963,-145.6298828125,104.4921875,399.47509765625
3.869920015335083,-1267280245,0,5.160998344421387,0.5819668173789978,-1.1565568447113037,1.28173828125,91.24755859375,223.57177734375
3.890157699584961,-1267280264,1,0.7100871205329895,-1.0388396978378296,-0.07067679613828659,-28.99169921875,-267.76123046875,-89.41650390625
3.8901660442352295,-1267280245,1,1.3177530765533447,-2.19264817237854,0.5418720245361328,-225.03662109375,-226.86767578125,-97.412109375
3.8997738361358643,-1267280226,0,3.9673948287963867,1.0170254707336426,-1.5733048915863037,-197.44873046875,201.35498046875,49.4384765625
3.907822847366333,-1267280226,1,-0.4027058482170105,-1.2404998540878296,2.527467727661133,-116.3330078125,-247.9248046875,13.73291015625
3.941118001937866,-1267280207,0,-1.1576050519943237,-2.8687167167663574,1.2018415927886963,-276.42822265625,111.02294921875,92.041015625
3.942049026489258,-1267280188,0,1.6920043230056763,1.7440762519836426,-2.3965470790863037,-340.02685546875,546.7529296875,204.7119140625
3.958739995956421,-1267280169,0,1.6924926042556763,0.6513027548789978,-0.3684709370136261,-352.1728515625,67.87109375,-192.5048828125
3.967552900314331,-1267280207,1,-4.724971294403076,2.16501784324646,0.1722431182861328,171.7529296875,-408.75244140625,580.74951171875
3.9677257537841797,-1267280188,1,0.8968546986579895,-5.551290988922119,-2.150510787963867,-581.84814453125,-764.0380859375,340.576171875
3.9677438735961914,-1267280169,1,0.5682414174079895,-2.44118332862854,-0.2276592254638672,-134.521484375,-14.2822265625,158.26416015625
3.995652914047241,-1267280133,0,1.9522582292556763,-0.158267542719841,-0.6311662197113037,-341.6748046875,333.1298828125,14.0380859375
3.9993417263031006,-1267280133,1,-0.6226765513420105,-2.15138840675354,1.6580829620361328,-425.72021484375,-72.75390625,168.5791015625
4.01991868019104,-1267280114,0,0.9183226227760315,-0.027652304619550705,-2.1279923915863037,-413.9404296875,350.40283203125,50.29296875
4.0199737548828125,-1267280095,0,2.2205686569213867,-0.5676913857460022,-0.1367814838886261,-433.9599609375,436.34033203125,-96.8017578125
4.027234077453613,-1267280114,1,-1.1907918453216553,-1.3618377447128296,2.108766555786133,-265.7470703125,-49.86572265625,271.05712890625
4.027310848236084,-1267280095,1,-1.5599324703216553,-0.3276580274105072,1.9422626495361328,-245.1171875,-130.67626953125,467.4072265625
4.049983978271484,-1267280076,0,1.4097777605056763,-0.9548984169960022,-0.8963029384613037,-303.8330078125,373.22998046875,-143.4326171875
4.057492971420288,-1267280076,1,-1.7352254390716553,0.9997345805168152,1.5838642120361328,-201.96533203125,-129.45556640625,704.1015625
4.093544960021973,-1267280057,0,2.0528440475463867,-2.6939120292663574,-0.6128556728363037,-403.6865234375,295.59326171875,-63.1103515625
4.093552827835083,-1267280038,0,1.8328734636306763,-0.8423495888710022,-1.0444962978363037,-161.9873046875,255.615234375,-229.248046875
4.108844995498657,-1267280019,0,1.3807250261306763,-0.3616366684436798,-1.4202287197113037,-236.328125,236.6943359375,-206.35986328125
4.1172568798065186,-1267280057,1,-3.2049520015716553,-1.7707732915878296,1.8121356964111328,-245.17822265625,-253.5400390625,1050.29296875
4.117340803146362,-1267280038,1,-1.5369832515716553,-4.349630832672119,2.306520462036133,-47.119140625,-261.29150390625,1017.02880859375
4.118283033370972,-1267280019,1,1.9039347171783447,-7.734396457672119,0.6634540557861328,-49.49951171875,-36.68212890625,293.02978515625
4.118349075317383,-1267280000,1,-0.6248738169670105,-1.3579314947128296,1.1700458526611328,419.0673828125,390.0146484375,300.537109375
4.147852897644043,-1267280000,0,1.7269164323806763,-1.1782870292663574,-0.4668596088886261,-229.98046875,205.99365234375,-164.55078125
4.147862911224365,-1267279981,0,1.7108031511306763,-1.8255038261413574,-0.1475236713886261,-93.07861328125,282.77587890625,-155.57861328125
4.148420810699463,-1267279981,1,-1.9183309078216553,0.2428986132144928,0.5277118682861328,124.93896484375,423.828125,331.298828125
4.16983699798584,-1267279962,0,1.7972289323806763,-2.0952792167663574,0.6166365146636963,178.89404296875,359.68017578125,-178.89404296875
4.169970989227295,-1267279943,0,1.8531371355056763,-1.6865878105163574,0.2308942973613739,318.42041015625,317.07763671875,-311.21826171875
4.190593957901001,-1267279962,1,-2.1068074703216553,-1.1382049322128296,1.5145282745361328,-42.17529296875,400.32958984375,567.32177734375
4.190601825714111,-1267279943,1,-3.3990437984466553,-1.4609588384628296,1.7943134307861328,-134.3994140625,380.0048828125,778.50341796875
4.199882984161377,-1267279924,0,1.4463988542556763,-1.3445467948913574,-0.0269181951880455,299.9267578125,197.81494140625,-458.06884765625
4.210748910903931,-1267279924,1,-3.2086141109466553,-2.79152512550354,2.265748977661133,-174.4384765625,256.8359375,866.88232421875
4.259149789810181,-1267279905,0,1.1461058855056763,-1.2161288261413574,0.1107771173119545,291.9921875,143.00537109375,-488.09814453125
4.260374069213867,-1267279869,0,0.7078734040260315,-0.8745761513710022,-0.0249650701880455,306.884765625,210.3271484375,-454.16259765625
4.267585039138794,-1267279905,1,-2.2386434078216553,-2.86940598487854,1.7327899932861328,-87.40234375,192.9931640625,783.3251953125
4.267604827880859,-1267279869,1,-2.0079305171966553,-1.3484100103378296,1.0001239776611328,12.3291015625,265.380859375,750.54931640625
4.2676918506622314,-1267279850,1,-2.0411336421966553,-1.5620330572128296,0.7674579620361328,-57.9833984375,209.65576171875,754.57763671875
4.2965147495269775,-1267279850,0,0.4285765588283539,-0.7178378701210022,-0.2761857807636261,309.63134765625,267.02880859375,-414.48974609375
4.296521902084351,-1267279831,0,0.1876097470521927,-0.5901523232460022,-0.4219377338886261,294.25048828125,273.74267578125,-386.77978515625
4.299950838088989,-1267279831,1,-1.6243855953216553,-2.16335129737854,0.8358173370361328,-120.7275390625,79.345703125,697.32666015625
4.320343017578125,-1267279812,0,-0.1363648623228073,-0.4778476059436798,-0.5440080165863037,245.9716796875,224.30419921875,-349.79248046875
4.32045578956604,-1267279793,0,-0.2098511904478073,-0.174869105219841,-0.4707658588886261,156.1279296875,138.36669921875,-287.4755859375
4.340317964553833,-1267279812,1,-1.0411336421966553,-2.17824387550354,1.0462665557861328,-66.2841796875,-1.40380859375,623.84033203125
4.340324878692627,-1267279793,1,-0.6319538950920105,-1.7258514165878296,0.8953876495361328,42.1142578125,-36.9873046875,486.572265625
4.350066900253296,-1267279774,0,-0.051648061722517014,-0.142886683344841,-0.4553849995136261,92.041015625,91.73583984375,-234.80224609375
4.357537031173706,-1267279774,1,-0.5745808482170105,-1.2185271978378296,0.5953388214111328,77.69775390625,-55.35888671875,357.84912109375
4.39225697517395,-1267279755,0,0.1653929501771927,-0.2864413559436798,-0.2959611713886261,103.08837890625,80.74951171875,-217.34619140625
4.3922648429870605,-1267279736,0,0.1590452939271927,-0.023501913994550705,-0.2466447651386261,161.865234375,83.251953125,-205.87158203125
4.396440744400024,-1267279755,1,-0.7925984263420105,-0.9929412007331848,0.5601825714111328,46.630859375,-97.900390625,267.2119140625
4.396446943283081,-1267279736,1,-0.9844929575920105,-0.8984587788581848,0.5579853057861328,28.076171875,-149.84130859375,226.5625
4.409837007522583,-1267279717,0,0.4439574182033539,0.2760586440563202,-0.2117326557636261,145.1416015625,114.19677734375,-216.30859375
4.417309999465942,-1267279717,1,-1.3050496578216553,-1.0937713384628296,0.5303974151611328,24.35302734375,-252.0751953125,190.97900390625
4.44617486000061,-1267279698,0,0.3414183557033539,-0.2793612778186798,-0.3218400776386261,137.3291015625,171.20361328125,-198.91357421875
4.4461870193481445,-1267279679,0,-0.3368043005466461,-0.2937655746936798,-0.2644670307636261,188.78173828125,162.65869140625,-118.0419921875
4.447455883026123,-1267279698,1,-0.9000203013420105,-0.7090056538581848,0.3450946807861328,46.142578125,-355.28564453125,147.216796875
4.447541952133179,-1267279679,1,-0.4403035044670105,-0.6987517476081848,-0.3387432098388672,-19.04296875,-392.2119140625,11.23046875
4.470030784606934,-1267279660,0,-0.4327515661716461,-0.052554648369550705,-0.4204728901386261,235.595703125,69.2138671875,-53.89404296875
4.48980975151062,-1267279660,1,-1.2169148921966553,-1.2712615728378296,0.5504169464111328,38.330078125,-384.27734375,7.4462890625
4.48981785774231,-1267279641,1,-1.0980184078216553,-0.9297087788581848,0.4239521026611328,167.90771484375,-368.896484375,-21.1181640625
4.500018835067749,-1267279641,0,-0.3419312536716461,0.199886754155159,-0.5139787197113037,195.98388671875,-26.42822265625,-21.66748046875
4.540803670883179,-1267279605,0,0.07921130955219269,-0.9256015419960022,-0.5628068447113037,113.83056640625,-14.404296875,36.2548828125
4.5418078899383545,-1267279586,0,-0.4762085974216461,-1.0027499198913574,-0.6782853603363037,170.166015625,44.49462890625,38.63525390625
4.544214963912964,-1267279605,1,-1.4737508296966553,-1.1211150884628296,0.3316669464111328,155.94482421875,-396.05712890625,-105.8349609375
4.544221878051758,-1267279586,1,-1.9197957515716553,-1.4358123540878296,0.3902606964111328,109.19189453125,-384.21630859375,-166.8701171875
4.559800863265991,-1267279567,0,-0.5870484709739685,-0.7598300576210022,-1.2373673915863037,222.22900390625,-6.16455078125,94.42138671875
4.567270755767822,-1267279567,1,-2.4268758296966553,-2.02150559425354,0.6209735870361328,148.0712890625,-367.431640625,-212.82958984375
4.595432996749878,-1267279548,0,0.011096078902482986,-0.8972812294960022,-1.0864884853363037,263.427734375,-142.27294921875,40.34423828125
4.595440864562988,-1267279529,0,0.4371214807033539,-1.0134921073913574,-1.2312638759613037,312.744140625,-94.29931640625,34.85107421875
4.59986686706543,-1267279548,1,-2.7437703609466553,-2.09548020362854,0.7279071807861328,271.54541015625,-377.62451171875,-244.81201171875
4.599881887435913,-1267279529,1,-3.2923543453216553,-2.16115403175354,0.6851825714111328,334.47265625,-383.30078125,-254.638671875
4.619927883148193,-1267279510,0,0.4737425744533539,-1.3213534355163574,-1.1912248134613037,373.35205078125,-18.49365234375,53.1005859375
4.6275858879089355,-1267279510,1,-3.6439168453216553,-1.3708709478378296,0.3504657745361328,351.74560546875,-422.05810546875,-260.43701171875
4.629015922546387,-1267279491,1,-4.066524028778076,-2.14894700050354,0.9627704620361328,368.65234375,-492.431640625,-184.63134765625
4.650051832199097,-1267279491,0,0.6868773102760315,-1.5969882011413574,-1.7522599697113037,522.64404296875,24.4140625,67.44384765625
4.6501359939575195,-1267279472,0,1.6177855730056763,-1.3779940605163574,-2.5166642665863037,625.30517578125,94.42138671875,49.6826171875
4.65752387046814,-1267279472,1,-4.618525981903076,-3.00368332862854,0.1798114776611328,320.80078125,-537.9638671875,-230.1025390625
4.691170930862427,-1267279453,0,1.7618285417556763,-1.6526522636413574,-2.7427384853363037,699.64599609375,207.763671875,22.4609375
4.691177845001221,-1267279434,0,1.6334105730056763,-2.1306796073913574,-2.6177384853363037,698.6083984375,300.6591796875,94.970703125
4.708806753158569,-1267279415,0,2.4691038131713867,-3.3858065605163574,-2.7034318447113037,807.43408203125,433.28857421875,174.4384765625
4.71765398979187,-1267279453,1,-4.632930278778076,-2.82155442237854,-0.03503226488828659,317.07763671875,-585.44921875,-277.83203125
4.717782974243164,-1267279434,1,-4.394649028778076,-2.70436692237854,-0.5831279754638672,341.73583984375,-498.779296875,-326.84326171875
4.747399806976318,-1267279396,0,2.5137815475463867,-2.6450839042663574,-3.2566545009613037,843.07861328125,537.353515625,257.4462890625
4.747407913208008,-1267279377,0,1.8084594011306763,-2.6795077323913574,-2.3045060634613037,660.21728515625,504.33349609375,307.92236328125
4.749442100524902,-1267279415,1,-4.122920513153076,-2.14992356300354,-0.9642314910888672,463.68408203125,-248.35205078125,-311.95068359375
4.749448776245117,-1267279396,1,-4.206172466278076,-1.4416717290878296,-1.1148662567138672,596.0693359375,44.49462890625,-188.78173828125
4.74946403503418,-1267279377,1,-4.198115825653076,-1.5012420415878296,-0.6585674285888672,571.1669921875,163.63525390625,-85.26611328125
4.7761619091033936,-1267279341,1,-3.4000203609466553,-2.77956223487854,-0.3997783660888672,550.72021484375,139.22119140625,-8.4228515625
4.799972772598267,-1267279341,0,2.6700315475463867,-1.4993319511413574,-1.8938615322113037,577.57568359375,93.994140625,78.7353515625
4.800081968307495,-1267279322,0,2.2298460006713867,-2.1497225761413574,-0.5418107509613037,458.251953125,320.86181640625,-105.95703125
4.8071129322052,-1267279322,1,-2.6561238765716553,-3.01173996925354,0.2962665557861328,623.9013671875,212.70751953125,0.30517578125
4.841773748397827,-1267279303,0,0.5804319977760315,-0.5547519326210022,-1.7764298915863037,351.07421875,427.001953125,-109.92431640625
4.844432830810547,-1267279303,1,-2.9197957515716553,-1.5486053228378296,1.1483173370361328,682.9833984375,247.49755859375,105.65185546875
4.844440698623657,-1267279284,1,-2.3126180171966553,-1.6328338384628296,1.2384052276611328,561.09619140625,215.14892578125,154.60205078125
4.859837770462036,-1267279284,0,-0.3040894567966461,0.021175820380449295,-1.3027970790863037,180.908203125,343.994140625,-116.63818359375
4.8599348068237305,-1267279265,0,-0.3431519567966461,-0.5901523232460022,0.2345564067363739,155.029296875,299.01123046875,-109.7412109375
4.867142915725708,-1267279265,1,-1.6541707515716553,-0.8537810444831848,1.1175556182861328,409.66796875,207.21435546875,148.62060546875
4.8951287269592285,-1267279246,0,-0.5516480803489685,-0.6362949013710022,0.2880232036113739,119.0185546875,351.1962890625,-56.09130859375
4.895135879516602,-1267279227,0,-0.3158082067966461,-1.0330233573913574,0.8070662021636963,177.3681640625,383.85009765625,-25.390625
4.8972437381744385,-1267279246,1,-1.4639852046966553,-0.8947966694831848,1.0587177276611328,327.57568359375,305.17578125,138.24462890625
4.897348880767822,-1267279227,1,-1.3070027828216553,-1.1057342290878296,0.7425556182861328,284.85107421875,402.9541015625,114.74609375
4.919879913330078,-1267279208,0,-0.07215587794780731,-0.7910800576210022,0.6049177646636963,208.31298828125,381.4697265625,6.28662109375
4.927186965942383,-1267279208,1,-0.6173054575920105,-0.9492400288581848,0.6170673370361328,258.7890625,437.98828125,29.35791015625
4.9501659870147705,-1267279189,0,0.1556273251771927,-0.181705042719841,0.1307966411113739,177.001953125,373.779296875,13.36669921875
4.950320720672607,-1267279170,0,-0.3094605505466461,0.4044766128063202,-0.3071916401386261,-10.009765625,389.22119140625,45.34912109375
4.957353830337524,-1267279189,1,-1.1412312984466553,-1.1052459478378296,0.2586688995361328,253.35693359375,492.67578125,-12.02392578125
4.957458972930908,-1267279170,1,-1.2327840328216553,-0.1838591992855072,-0.03454398363828659,150.2685546875,469.6044921875,-22.5830078125
4.991800785064697,-1267279151,0,-1.5474976301193237,-0.092105433344841,-0.0657365545630455,-201.11083984375,339.17236328125,136.41357421875
4.996845006942749,-1267279151,1,-1.5098836421966553,-0.1894744336605072,0.4146747589111328,7.14111328125,364.80712890625,60.60791015625
4.996851921081543,-1267279132,1,-1.0670125484466553,-0.4004119336605072,0.4281024932861328,-28.25927734375,297.42431640625,83.740234375
5.0100836753845215,-1267279132,0,-2.3316774368286133,-2.2859530448913574,0.0643903985619545,-316.10107421875,234.55810546875,354.98046875
5.010199069976807,-1267279113,0,0.08555896580219269,-1.5542635917663574,0.9511091709136963,-209.04541015625,165.83251953125,212.40234375
5.017254829406738,-1267279113,1,-0.6722370982170105,-0.2070525586605072,0.1969013214111328,-38.57421875,305.96923828125,39.85595703125
5.04819393157959,-1267279077,0,-0.2669800817966461,-1.3008456230163574,0.7235701084136963,-250.30517578125,660.888671875,366.0888671875
5.048708915710449,-1267279077,1,-0.8428913950920105,-0.0993865430355072,0.07654000073671341,-46.875,418.51806640625,9.27734375
5.069893836975098,-1267279058,0,0.4627562463283539,-0.9038730263710022,0.2587263286113739,-245.9716796875,704.9560546875,227.96630859375
5.07711386680603,-1267279058,1,-1.0660359859466553,-0.1482146680355072,0.1417255401611328,-44.0673828125,471.923828125,25.69580078125
5.100016832351685,-1267279039,0,0.1754027158021927,-0.9163241982460022,-0.3032853901386261,-260.1318359375,765.869140625,272.8271484375
5.100093841552734,-1267279020,0,0.8326292634010315,-0.6384921669960022,-0.3601701557636261,-237.4267578125,785.21728515625,198.66943359375
5.107502698898315,-1267279039,1,-1.2281453609466553,-0.055929508060216904,0.2008075714111328,-61.03515625,460.02197265625,20.44677734375
5.1076037883758545,-1267279020,1,-1.3961141109466553,-0.2678435742855072,0.1365985870361328,-75.86669921875,399.71923828125,-2.50244140625
5.142313003540039,-1267279001,0,0.6277952790260315,-0.7173495888710022,-0.7156388759613037,-243.65234375,838.31787109375,171.69189453125
5.144814729690552,-1267279001,1,-1.0562703609466553,-0.4504607617855072,0.09851265698671341,-93.81103515625,338.9892578125,-64.63623046875
5.144824028015137,-1267278982,1,-0.9144245982170105,-0.5395720601081848,0.005739219486713409,-105.89599609375,362.73193359375,-104.18701171875
5.162278890609741,-1267278982,0,-0.2401246279478073,-0.6453281044960022,-1.0337541103363037,-224.609375,863.34228515625,314.697265625
5.162292003631592,-1267278963,0,-0.7332887053489685,-0.086246058344841,-0.6902482509613037,-136.71875,735.4736328125,295.5322265625
5.16727876663208,-1267278963,1,-1.1500203609466553,-0.4863494336605072,-0.1331768035888672,-117.431640625,435.791015625,-96.00830078125
5.194521903991699,-1267278944,0,-0.7215699553489685,0.183773472905159,-0.4114396870136261,-156.982421875,520.3857421875,200.13427734375
5.194530010223389,-1267278925,0,-0.5567750334739685,-0.022281210869550705,-0.1819474995136261,-234.2529296875,245.4833984375,137.26806640625
5.197480916976929,-1267278944,1,-1.5443074703216553,-0.8398650288581848,-0.10827445238828659,-123.35205078125,457.03125,-100.830078125
5.19757080078125,-1267278925,1,-1.2752645015716553,-1.0280975103378296,0.02282906323671341,-124.32861328125,440.91796875,-171.81396484375
5.219890832901001,-1267278906,0,-0.2240113466978073,-0.210025355219841,-0.0403459295630455,-301.6357421875,5.43212890625,64.63623046875
5.227099895477295,-1267278906,1,-1.3052937984466553,-1.1313689947128296,-0.10973929613828659,-171.93603515625,487.1826171875,-201.96533203125
5.2500669956207275,-1267278887,0,0.3892699182033539,-0.5076327919960022,-0.2791154682636261,-331.1767578125,-134.21630859375,47.7294921875
5.250182867050171,-1267278868,0,0.6270628571510315,-0.7117343544960022,-0.3682267963886261,-330.74951171875,-85.205078125,56.396484375
5.257465839385986,-1267278887,1,-1.8470418453216553,-2.11257004737854,0.05529976636171341,-261.65771484375,566.22314453125,-241.3330078125
5.257583856582642,-1267278868,1,-2.2008016109466553,-2.47340989112854,0.7430438995361328,-242.85888671875,599.54833984375,-330.26123046875
5.293862819671631,-1267278849,1,-2.5452840328216553,-2.62209153175354,1.3638935089111328,-142.822265625,619.384765625,-388.97705078125
5.309966802597046,-1267278849,0,0.8521605134010315,-0.7893710732460022,-0.2835099995136261,-272.0947265625,-15.31982421875,157.71484375
5.310064792633057,-1267278813,0,0.6153441071510315,-0.6799960732460022,-0.2544572651386261,-35.94970703125,184.38720703125,256.4697265625
5.3174426555633545,-1267278813,1,-2.7886922359466553,-2.46388840675354,1.8111591339111328,-111.083984375,541.44287109375,-606.01806640625
5.348103761672974,-1267278794,0,0.7081175446510315,-0.3496737778186798,-0.3089006245136261,85.75439453125,169.86083984375,240.478515625
5.348115921020508,-1267278775,0,0.9571409821510315,-0.027408163994550705,-0.6777970790863037,104.1259765625,147.0947265625,193.78662109375
5.3485939502716064,-1267278794,1,-2.8873250484466553,-2.42580246925354,2.304811477661133,-178.3447265625,442.87109375,-652.2216796875
5.348599910736084,-1267278775,1,-2.5506551265716553,-2.64186692237854,2.602174758911133,-211.181640625,300.10986328125,-660.64453125
5.369781017303467,-1267278756,0,1.1966429948806763,0.126888707280159,-1.0310685634613037,78.91845703125,135.3759765625,155.3955078125
5.378398895263672,-1267278756,1,-2.5611531734466553,-3.04372239112854,2.251100540161133,-213.43994140625,186.1572265625,-667.66357421875
5.40008807182312,-1267278737,0,1.3394652605056763,0.181087926030159,-1.1499650478363037,52.24609375,123.4130859375,156.6162109375
5.40014386177063,-1267278718,0,1.2347289323806763,0.4655117690563202,-1.2446916103363037,18.85986328125,113.4033203125,170.59326171875
5.407655954360962,-1267278737,1,-2.8924520015716553,-3.50612473487854,2.358034133911133,-223.93798828125,99.67041015625,-746.58203125
5.407765865325928,-1267278718,1,-3.5006062984466553,-3.59963059425354,2.143678665161133,-279.296875,12.02392578125,-773.25439453125
5.442802906036377,-1267278699,0,1.7996703386306763,-0.201480433344841,-1.2461564540863037,2.50244140625,146.30126953125,180.96923828125
5.445312976837158,-1267278699,1,-3.7020223140716553,-3.68849778175354,1.8782978057861328,-399.23095703125,-108.70361328125,-779.052734375
5.445318937301636,-1267278680,1,-4.970576763153076,-4.617697238922119,1.7777118682861328,-472.22900390625,-77.1484375,-736.99951171875
5.459863901138306,-1267278680,0,2.0740842819213867,-0.185611292719841,-1.0737931728363037,23.62060546875,172.36328125,46.2646484375
5.459995746612549,-1267278661,0,2.4222288131713867,-0.3545565903186798,-1.2576310634613037,70.4345703125,231.689453125,-100.03662109375
5.467443943023682,-1267278661,1,-6.006709575653076,-3.84108567237854,2.245485305786133,-484.130859375,38.9404296875,-654.84619140625
5.495844841003418,-1267278642,0,2.7989377975463867,-0.185611292719841,-1.3052384853363037,109.06982421875,287.109375,-207.51953125
5.495852947235107,-1267278623,0,2.9708127975463867,0.037777382880449295,-1.4470841884613037,112.48779296875,322.57080078125,-268.61572265625
5.4972920417785645,-1267278642,1,-6.354854106903076,-2.70265793800354,2.633913040161133,-436.8896484375,115.78369140625,-547.7294921875
5.497389793395996,-1267278623,1,-5.455195903778076,-1.3554900884628296,2.360719680786133,-413.63525390625,43.88427734375,-382.14111328125
5.519881963729858,-1267278604,0,2.9344358444213867,-0.006900351494550705,-1.9570939540863037,97.71728515625,379.638671875,-233.88671875
5.539771795272827,-1267278604,1,-4.827022075653076,-0.9148162007331848,1.7691669464111328,-413.818359375,-24.84130859375,-278.86962890625
5.55099081993103,-1267278585,0,2.6104612350463867,0.152279332280159,-2.4241349697113037,104.98046875,434.6923828125,-227.05078125
5.590889930725098,-1267278549,0,1.4407836198806763,0.8666347861289978,-2.1724259853363037,36.2548828125,334.28955078125,-149.658203125
5.594611883163452,-1267278585,1,-5.483760356903076,-0.028341617435216904,1.4688739776611328,-372.0703125,-11.41357421875,-193.2373046875
5.5946197509765625,-1267278549,1,-5.307979106903076,0.9330841898918152,0.9298114776611328,-434.814453125,-200.1953125,114.80712890625
5.594624996185303,-1267278530,1,-3.5286824703216553,-0.032247867435216904,2.003053665161133,-467.46826171875,-201.59912109375,306.09130859375
5.6099817752838135,-1267278530,0,1.0977660417556763,0.7787441611289978,-2.5139787197113037,-136.5966796875,305.17578125,79.833984375
5.610108852386475,-1267278511,0,1.8675414323806763,0.118343785405159,-1.4578263759613037,-363.22021484375,253.23486328125,247.9248046875
5.617235898971558,-1267278511,1,-3.0867879390716553,-0.4590056836605072,1.8255634307861328,-363.525390625,-231.8115234375,318.66455078125
5.648171901702881,-1267278492,0,3.1219358444213867,-0.8679843544960022,-0.1033342108130455,55.84716796875,487.36572265625,135.07080078125
5.648184061050415,-1267278473,0,1.6456176042556763,-0.9868808388710022,-2.3162248134613037,107.91015625,590.63720703125,179.0771484375
5.64867091178894,-1267278492,1,-2.1756551265716553,-0.6767790913581848,1.9849872589111328,-256.9580078125,-377.86865234375,280.94482421875
5.648676872253418,-1267278473,1,-1.9232137203216553,-0.8049529194831848,1.0587177276611328,-210.9375,-433.4716796875,273.92578125
5.669931888580322,-1267278454,0,1.5262328386306763,-1.5447421073913574,-0.7703263759613037,213.56201171875,508.1787109375,58.65478515625
5.677499771118164,-1267278454,1,-1.6590535640716553,-0.9321501851081848,0.1761493682861328,-213.37890625,-368.83544921875,312.43896484375
5.6999170780181885,-1267278435,0,2.8506956100463867,-0.7561679482460022,-1.8255021572113037,223.5107421875,336.181640625,-296.142578125
5.700073003768921,-1267278416,0,1.7098265886306763,-1.0083651542663574,-1.6404435634613037,137.75634765625,392.27294921875,-324.03564453125
5.707451820373535,-1267278435,1,-1.4534871578216553,-1.5481170415878296,-0.4442119598388672,-275.08544921875,-308.53271484375,325.25634765625
5.707520008087158,-1267278416,1,-2.2000691890716553,-2.96779465675354,0.7454853057861328,-263.18359375,-242.24853515625,313.04931640625
5.74272894859314,-1267278397,0,1.7154418230056763,-0.9114413857460022,-0.9544084072113037,197.20458984375,478.515625,-283.203125
5.7444007396698,-1267278397,1,-1.5665242671966553,-1.8586639165878296,0.7413349151611328,78.43017578125,-274.23095703125,246.03271484375
5.759912967681885,-1267278378,0,1.8360472917556763,-1.1297030448913574,-1.4829728603363037,180.6640625,519.47021484375,-187.744140625
5.7600257396698,-1267278359,0,1.4561644792556763,-1.0679354667663574,-1.2808244228363037,161.2548828125,522.64404296875,-152.89306640625
5.767602920532227,-1267278378,1,-1.6302449703216553,-1.5505584478378296,0.5338153839111328,246.826171875,-292.96875,225.64697265625
5.7676098346710205,-1267278359,1,-1.6104695796966553,-2.62746262550354,1.1219501495361328,355.95703125,-247.74169921875,240.05126953125
5.796210765838623,-1267278340,0,1.3101683855056763,-1.1270174980163574,-1.1734025478363037,167.17529296875,461.7919921875,-195.9228515625
5.797254800796509,-1267278340,1,-1.8074910640716553,-0.7451384663581848,-0.8446025848388672,512.26806640625,-160.7666015625,268.9208984375
5.797393798828125,-1267278321,1,-1.3209187984466553,-1.1216033697128296,0.05188179761171341,377.197265625,-138.916015625,355.1025390625
5.819824934005737,-1267278321,0,1.1522094011306763,-0.9256015419960022,-1.1790177822113037,171.44775390625,424.8046875,-182.31201171875
5.849271059036255,-1267278285,0,1.2903929948806763,-0.7835116982460022,-1.2092912197113037,181.15234375,442.3828125,-93.56689453125
5.850144863128662,-1267278266,0,1.1219359636306763,-0.7229648232460022,-1.1294572353363037,175.23193359375,420.22705078125,-79.77294921875
5.857495069503784,-1267278285,1,-0.6678425669670105,-0.6970427632331848,-0.12292288988828659,434.9365234375,-93.1396484375,371.27685546875
5.857630968093872,-1267278266,1,-0.2401081919670105,-0.7502654194831848,-0.03722953051328659,457.1533203125,-65.0634765625,269.8974609375
5.891984939575195,-1267278247,0,1.0179320573806763,-0.7603183388710022,-0.9634416103363037,160.21728515625,357.421875,-110.90087890625
5.894617795944214,-1267278247,1,-0.3712117075920105,-0.4607146680355072,0.06726265698671341,437.07275390625,-20.5078125,231.14013671875
5.9102089405059814,-1267278228,0,1.1009398698806763,-0.6934238076210022,-0.8733537197113037,181.7626953125,298.27880859375,-140.07568359375
5.910333871841431,-1267278209,0,1.1380492448806763,-0.6021152138710022,-0.9060685634613037,189.88037109375,293.45703125,-119.140625
5.917325735092163,-1267278228,1,-0.3873249888420105,-0.4590056836605072,0.3182392120361328,399.35302734375,-28.25927734375,179.38232421875
5.917409896850586,-1267278209,1,-0.4339558482170105,-0.5656951069831848,0.3653583526611328,363.58642578125,-68.90869140625,152.34375
5.947420835494995,-1267278190,0,1.0677367448806763,-0.5132480263710022,-0.9021623134613037,171.7529296875,319.88525390625,-76.2939453125
5.947829008102417,-1267278190,1,-0.3126179575920105,-0.8474333882331848,0.2757587432861328,325.01220703125,-119.56787109375,103.82080078125
5.947835922241211,-1267278171,1,-0.3724324107170105,-0.9172576069831848,0.1802997589111328,284.85107421875,-158.935546875,44.73876953125
5.970026969909668,-1267278171,0,0.9056273102760315,-0.4517245590686798,-1.0864884853363037,150.2685546875,339.4775390625,-26.79443359375
5.970125675201416,-1267278152,0,0.7901487946510315,-0.4231601059436798,-1.0100724697113037,148.74267578125,304.3212890625,-26.611328125
5.977096796035767,-1267278152,1,-0.5731160044670105,-0.5876677632331848,-0.05700492113828659,208.55712890625,-220.88623046875,-17.333984375
5.999941825866699,-1267278133,0,0.8030882477760315,-0.3103671371936798,-0.9102189540863037,167.48046875,255.43212890625,-51.3916015625
6.00004506111145,-1267278114,0,0.9620237946510315,-0.214664027094841,-0.9671037197113037,192.68798828125,216.6748046875,-81.787109375
6.00779390335083,-1267278133,1,-0.7322956919670105,-0.2922576367855072,-0.3360576629638672,100.09765625,-273.98681640625,-59.9365234375
6.007867813110352,-1267278114,1,-0.6014363169670105,-0.5534880757331848,-0.5535869598388672,9.21630859375,-310.05859375,-122.13134765625
6.042742967605591,-1267278095,0,1.1412230730056763,-0.241275355219841,-1.2158830165863037,201.904296875,219.482421875,-65.85693359375
6.044518947601318,-1267278095,1,-0.4871785044670105,-0.8193572163581848,-0.6529521942138672,52.001953125,-282.958984375,-223.9990234375
6.059895038604736,-1267278076,0,1.2977172136306763,-0.134097620844841,-1.2522599697113037,210.87646484375,244.20166015625,-24.35302734375
6.05997896194458,-1267278057,0,1.3614379167556763,-0.180240198969841,-1.1072404384613037,222.16796875,283.447265625,21.05712890625
6.070688009262085,-1267278076,1,-0.6549031138420105,-0.8235076069831848,-0.8128643035888672,138.427734375,-229.00390625,-300.96435546875
6.070698022842407,-1267278057,1,-0.8778035044670105,-0.5813201069831848,-1.0823955535888672,224.54833984375,-158.38623046875,-349.12109375
6.097181797027588,-1267278021,1,-1.1153523921966553,-0.5534880757331848,-1.6317119598388672,281.18896484375,51.26953125,-382.99560546875
6.119889736175537,-1267278021,0,0.9510374665260315,-0.6104159951210022,-1.0894181728363037,388.73291015625,341.064453125,57.55615234375
6.120009899139404,-1267278002,0,1.2547484636306763,-0.6245761513710022,-1.6826798915863037,503.5400390625,312.1337890625,47.4853515625
6.127264976501465,-1267278002,1,-1.4898641109466553,-0.7651579976081848,-1.4317607879638672,314.02587890625,128.11279296875,-435.4248046875
6.150674819946289,-1267277983,0,1.8907347917556763,-0.237369105219841,-2.7415177822113037,494.93408203125,306.33544921875,6.2255859375
6.150755882263184,-1267277964,0,1.5696898698806763,-0.064517542719841,-2.7380998134613037,393.798828125,357.2998046875,-55.17578125
6.1574389934539795,-1267277983,1,-1.9686238765716553,-0.8686736226081848,-1.1295146942138672,340.63720703125,122.314453125,-480.16357421875
6.157585859298706,-1267277964,1,-2.1805379390716553,-0.7729704976081848,-1.0277080535888672,321.47216796875,58.53271484375,-497.13134765625
6.191875696182251,-1267277945,0,1.1727172136306763,-0.8130527138710022,-2.6055314540863037,355.3466796875,340.14892578125,-85.26611328125
6.19438099861145,-1267277945,1,-2.0777547359466553,-0.7549040913581848,-1.0550518035888672,253.173828125,-30.21240234375,-470.8251953125
6.209990739822388,-1267277926,0,1.2813597917556763,-1.1323885917663574,-2.9888322353363037,411.376953125,297.4853515625,-98.9990234375
6.210007905960083,-1267277907,0,1.8956176042556763,-0.4585604965686798,-3.7673966884613037,398.62060546875,291.3818359375,-119.20166015625
6.217306852340698,-1267277926,1,-1.5916707515716553,-0.7563689351081848,-1.2781963348388672,242.85888671875,-45.41015625,-394.775390625
6.217407941818237,-1267277907,1,-1.1505086421966553,-0.8777068257331848,-1.4256572723388672,276.123046875,39.1845703125,-285.09521484375
6.2458508014678955,-1267277888,0,1.9708129167556763,-0.081119105219841,-3.8565080165863037,269.10400390625,292.66357421875,-178.64990234375
6.269100904464722,-1267277869,0,1.7071410417556763,-0.2891269028186798,-3.5376603603363037,179.8095703125,244.68994140625,-242.12646484375
6.269909858703613,-1267277850,0,1.6692992448806763,-0.5527988076210022,-2.8733537197113037,160.46142578125,171.142578125,-282.89794921875
6.289225816726685,-1267277888,1,-1.0406453609466553,-1.2546600103378296,-1.0443096160888672,289.9169921875,97.83935546875,-249.45068359375
6.2892327308654785,-1267277869,1,-1.0875203609466553,-1.5527557134628296,-0.8040752410888672,313.5986328125,85.75439453125,-229.67529296875
6.289237976074219,-1267277850,1,-1.0487020015716553,-1.3213104009628296,-0.7073955535888672,308.28857421875,15.13671875,-249.93896484375
6.29990291595459,-1267277831,0,1.7042113542556763,-0.5491366982460022,-2.7637345790863037,158.69140625,153.25927734375,-329.28466796875
6.307616949081421,-1267277831,1,-0.9905964732170105,-1.0134490728378296,-0.5989971160888672,309.5703125,-1.77001953125,-227.11181640625
6.307668924331665,-1267277812,1,-1.0906941890716553,-0.8877165913581848,-0.4371318817138672,318.29833984375,-24.59716796875,-191.89453125
6.344423770904541,-1267277793,1,-1.1048543453216553,1.2792755365371704,-0.4407939910888672,404.6630859375,12.26806640625,-210.5712890625
6.359986782073975,-1267277812,0,1.5977660417556763,-0.6997714638710022,-2.9412248134613037,150.0244140625,177.30712890625,-343.505859375
6.360045671463013,-1267277793,0,1.0997191667556763,-1.1194491386413574,-2.8755509853363037,147.216796875,189.94140625,-322.75390625
6.361144065856934,-1267277757,0,2.0543088912963867,-1.1480135917663574,-3.0239884853363037,91.552734375,150.7568359375,-399.59716796875
6.36741304397583,-1267277757,1,-1.3077352046966553,-0.2463591992855072,0.7594013214111328,459.9609375,-124.45068359375,-137.8173828125
6.396533966064453,-1267277738,0,2.0093870162963867,-1.3377108573913574,-2.4187638759613037,86.60888671875,138.61083984375,-391.66259765625
6.397406816482544,-1267277738,1,-0.8541218638420105,-0.0708220899105072,0.2137470245361328,409.36279296875,-123.779296875,-71.8994140625
6.4198668003082275,-1267277719,0,1.9537230730056763,-1.9956698417663574,-1.5095841884613037,146.484375,64.63623046875,-449.70703125
6.4199748039245605,-1267277700,0,2.1065549850463867,-1.7112460136413574,-0.8652970790863037,224.67041015625,-18.98193359375,-551.57470703125
6.440218925476074,-1267277719,1,-0.4332234263420105,-0.6552947163581848,0.6551532745361328,345.88623046875,-53.8330078125,-51.6357421875
6.440227031707764,-1267277700,1,-0.5240437388420105,-0.7395232319831848,0.8028583526611328,331.9091796875,-49.74365234375,-76.0498046875
6.450167894363403,-1267277681,0,2.2151975631713867,-1.3059725761413574,-1.0210587978363037,239.80712890625,-99.4873046875,-646.05712890625
6.459848880767822,-1267277681,1,-0.5887410044670105,-0.4709685742855072,0.6441669464111328,315.0634765625,-35.64453125,-39.36767578125
6.459857940673828,-1267277662,1,-0.6937214732170105,-0.6848357319831848,0.8287372589111328,271.3623046875,-32.1044921875,41.80908203125
6.492005825042725,-1267277662,0,1.6307250261306763,-0.6604648232460022,-1.5440080165863037,40.83251953125,-97.16796875,-511.53564453125
6.492015838623047,-1267277643,0,1.2635375261306763,-1.0979647636413574,-0.9810197353363037,-34.0576171875,-116.27197265625,-390.93017578125
6.494669675827026,-1267277643,1,-0.2191120982170105,-0.6013396382331848,0.5037860870361328,232.48291015625,-79.89501953125,46.20361328125
6.509981870651245,-1267277624,0,1.1561156511306763,-1.1895174980163574,-0.2205217182636261,16.66259765625,-188.4765625,-365.8447265625
6.510093688964844,-1267277605,0,0.9500609040260315,-0.3325839340686798,-0.4163224995136261,-0.6103515625,-256.2255859375,-342.83447265625
6.517674922943115,-1267277624,1,-0.0076863206923007965,-0.4858611524105072,0.2442646026611328,180.5419921875,-63.8427734375,43.15185546875
6.517795085906982,-1267277605,1,0.1534464955329895,-0.4111541211605072,0.6241474151611328,126.28173828125,-5.4931640625,48.583984375
6.5459208488464355,-1267277586,0,0.7266722321510315,-0.3140292465686798,-0.1406877338886261,-57.06787109375,-235.77880859375,-254.57763671875
6.549654006958008,-1267277586,1,0.2181437611579895,-0.4768279492855072,0.7161884307861328,80.99365234375,-6.591796875,66.0400390625
6.5699849128723145,-1267277567,0,0.4893675744533539,-0.4085116684436798,0.1493513286113739,-78.0029296875,-264.95361328125,-214.53857421875
6.570080041885376,-1267277548,0,0.3721800744533539,-0.3989901840686798,0.0341169610619545,-102.05078125,-332.58056640625,-209.3505859375
6.578887939453125,-1267277567,1,0.8070109486579895,-0.9514372944831848,1.0775165557861328,113.76953125,-38.63525390625,35.7666015625
6.590683937072754,-1267277548,1,0.6805461049079895,-0.9177458882331848,1.2061786651611328,167.1142578125,-92.10205078125,-74.8291015625
6.599749803543091,-1267277529,0,0.5479612946510315,-0.4678378403186798,0.0026228204369544983,-132.38525390625,-407.40966796875,-193.90869140625
6.607338905334473,-1267277529,1,-0.1473347544670105,0.2497345507144928,0.7948017120361328,179.87060546875,-156.3720703125,-36.92626953125
6.6434009075164795,-1267277493,0,1.0228148698806763,-0.6585116982460022,0.1925642192363739,-114.07470703125,-449.70703125,-166.56494140625
6.646699905395508,-1267277493,1,-0.3602253794670105,-0.5007537007331848,0.4737567901611328,-24.47509765625,-140.56396484375,224.609375
6.659933805465698,-1267277474,0,1.0931273698806763,-0.6531406044960022,0.2321150004863739,-73.30322265625,-446.2890625,-178.03955078125
6.667263984680176,-1267277474,1,-0.3184773325920105,-1.0097869634628296,0.8927021026611328,-34.0576171875,-69.9462890625,176.81884765625
6.697581052780151,-1267277455,0,1.0003539323806763,-0.6048007607460022,0.3141462504863739,-41.50390625,-433.89892578125,-175.96435546875
6.697591066360474,-1267277436,0,0.8069944977760315,-0.5838046669960022,0.3541853129863739,-15.380859375,-415.0390625,-174.31640625
6.698095798492432,-1267277455,1,-0.4539753794670105,-0.5979216694831848,0.7540302276611328,-17.51708984375,-33.99658203125,106.26220703125
6.698101997375488,-1267277436,1,-0.5631062388420105,-0.052755679935216904,0.4388446807861328,-21.728515625,-17.08984375,131.65283203125
6.7197959423065186,-1267277417,0,0.4488402307033539,-0.6262851357460022,0.3217146098613739,-11.16943359375,-404.11376953125,-200.62255859375
6.719874858856201,-1267277398,0,0.07506091892719269,-0.7500644326210022,0.1849958598613739,-15.19775390625,-421.32568359375,-234.55810546875
6.73970103263855,-1267277417,1,-0.4649617075920105,0.040750179439783096,0.2506122589111328,-53.77197265625,-18.310546875,197.81494140625
6.739707946777344,-1267277398,1,-0.2257038950920105,-0.0884002149105072,0.2113056182861328,-92.4072265625,-2.38037109375,243.46923828125
6.750138759613037,-1267277379,0,-0.2052125185728073,-0.8814120888710022,0.1556989848613739,8.1787109375,-466.00341796875,-241.5771484375
6.75731086730957,-1267277379,1,-0.3128620982170105,-0.3083709180355072,0.4117450714111328,-118.10302734375,21.240234375,226.37939453125
6.757385969161987,-1267277360,1,-0.3216511607170105,-0.2785857617855072,0.6197528839111328,-113.6474609375,25.93994140625,199.5849609375
6.792543888092041,-1267277360,0,-0.3978394567966461,-1.2161288261413574,-0.1096818670630455,72.32666015625,-558.9599609375,-219.3603515625
6.792550802230835,-1267277341,0,-0.6187867522239685,-1.2373690605163574,-0.1599748432636261,182.92236328125,-683.7158203125,-160.2783203125
6.795100927352905,-1267277341,1,-0.3738972544670105,-0.1584685742855072,0.6927509307861328,-107.60498046875,27.9541015625,181.0302734375
6.809927940368652,-1267277322,0,-0.3238648474216461,-1.4629549980163574,-0.5957658290863037,298.64501953125,-789.1845703125,-151.79443359375
6.81004786491394,-1267277303,0,0.0025511570274829865,-1.8560214042663574,-1.0642716884613037,401.4892578125,-850.341796875,-151.611328125
6.817614793777466,-1267277322,1,-0.3829304575920105,0.060525570064783096,0.7098407745361328,-104.736328125,44.189453125,170.71533203125
6.817704916000366,-1267277303,1,-0.2769734263420105,0.1774689257144928,0.6573505401611328,-102.84423828125,80.322265625,160.21728515625
6.845669746398926,-1267277284,0,0.7078734040260315,-2.2571444511413574,-1.8587052822113037,562.19482421875,-840.02685546875,-118.95751953125
6.86885666847229,-1267277265,0,1.0816527605056763,-2.5535311698913574,-2.6738908290863037,713.7451171875,-726.1962890625,-31.06689453125
6.888551950454712,-1267277284,1,-0.3890339732170105,-0.008322086185216904,1.0760517120361328,-77.45361328125,159.912109375,149.84130859375
6.888579845428467,-1267277265,1,-0.4966999888420105,-0.1826384961605072,1.2886981964111328,-56.7626953125,190.673828125,148.92578125
6.899836778640747,-1267277229,0,1.7845336198806763,-3.5498690605163574,-4.126283645629883,906.982421875,-499.755859375,370.2392578125
6.907718896865845,-1267277229,1,-0.6265828013420105,-0.9709685444831848,1.3292255401611328,-50.1708984375,97.65625,143.310546875
6.907801866531372,-1267277210,1,-0.4615437388420105,-1.3230193853378296,1.2708759307861328,-10.3759765625,51.08642578125,127.38037109375
6.942164897918701,-1267277210,0,3.5887327194213867,-4.801578044891357,-5.035951614379883,945.49560546875,-311.767578125,677.55126953125
6.942173957824707,-1267277191,0,4.521838188171387,-4.258609294891357,-6.086732864379883,1018.49365234375,-173.095703125,810.36376953125
6.946276903152466,-1267277191,1,-0.4647175669670105,-1.7878631353378296,1.2623310089111328,5.31005859375,-8.4228515625,79.1015625
6.959779739379883,-1267277172,0,3.9637327194213867,-3.6358065605163574,-5.568422317504883,911.31591796875,-123.35205078125,892.08984375
6.959922790527344,-1267277153,0,3.7559690475463867,-5.053287029266357,-6.110902786254883,970.88623046875,-193.66455078125,688.78173828125
6.967287063598633,-1267277172,1,-0.1029011607170105,-2.02614426612854,1.0701923370361328,23.01025390625,-82.70263671875,32.65380859375
6.96737003326416,-1267277153,1,0.1929972767829895,-2.22365403175354,1.0328388214111328,28.4423828125,-115.478515625,-7.8125
6.997811794281006,-1267277134,0,3.5735960006713867,-4.613345623016357,-7.915102005004883,1041.6259765625,-262.26806640625,538.63525390625
6.998422861099243,-1267277134,1,0.5745890736579895,-2.21925950050354,0.9918231964111328,80.078125,-117.73681640625,-63.232421875
7.022372722625732,-1267277115,0,4.796984672546387,-2.9636874198913574,-7.367738723754883,636.16943359375,-26.9775390625,816.58935546875
7.022382736206055,-1267277096,0,6.012560844421387,-1.8262362480163574,-5.025453567504883,432.06787109375,150.32958984375,743.95751953125
7.040440082550049,-1267277115,1,0.4837687611579895,-1.9226287603378296,0.9825458526611328,99.12109375,-159.11865234375,-84.28955078125
7.040447950363159,-1267277096,1,-0.2205769419670105,-1.1035369634628296,1.1282978057861328,127.197265625,-221.6796875,8.97216796875
7.050178050994873,-1267277077,0,4.927599906921387,0.152767613530159,-3.0376603603363037,134.70458984375,313.4765625,422.36328125
7.057687997817993,-1267277077,1,-0.7899128794670105,-0.4189666211605072,0.9176044464111328,79.04052734375,-249.1455078125,143.6767578125
7.093250751495361,-1267277058,1,1.1678507328033447,-2.52638840675354,-0.5394268035888672,-138.916015625,-346.49658203125,-134.1552734375
7.094840049743652,-1267277039,1,0.4478800892829895,-1.7385467290878296,0.6353778839111328,70.49560546875,-30.1513671875,-148.13232421875
7.109807729721069,-1267277058,0,2.7547483444213867,-0.8657870888710022,-1.3887345790863037,-44.0673828125,252.74658203125,412.4755859375
7.146251916885376,-1267277039,0,4.379504203796387,-0.7310214638710022,-2.1116349697113037,22.0947265625,60.24169921875,117.00439453125
7.14630389213562,-1267277020,0,3.1461057662963867,0.8395351767539978,-2.7214982509613037,-26.85546875,346.435546875,99.91455078125
7.146308898925781,-1267277001,0,2.5555295944213867,1.4945645332336426,-4.153383255004883,-130.55419921875,547.607421875,178.5888671875
7.1472487449646,-1267277020,1,-0.3983113169670105,-1.7715057134628296,-1.0086650848388672,-5.67626953125,-89.90478515625,-131.77490234375
7.147327899932861,-1267277001,1,-0.2430378794670105,-2.68971848487854,-0.2362041473388672,-375.30517578125,-245.66650390625,-158.3251953125
7.170138835906982,-1267276965,0,2.2274045944213867,-0.6853671669960022,-1.8247697353363037,-360.107421875,374.20654296875,-29.1748046875
7.170201778411865,-1267276946,0,2.0142698287963867,-1.1756014823913574,-1.3670060634613037,-328.857421875,423.583984375,-98.9990234375
7.177358865737915,-1267276965,1,-1.9586141109466553,-1.5957244634628296,-0.3541240692138672,-358.642578125,-201.0498046875,168.15185546875
7.190881967544556,-1267276946,1,-1.4483602046966553,-2.74416184425354,-0.3441143035888672,-544.7998046875,-284.48486328125,263.18359375
7.19991397857666,-1267276927,0,1.5726195573806763,-0.8784824013710022,-1.6775529384613037,-288.330078125,469.6044921875,-78.4912109375
7.2071309089660645,-1267276927,1,-1.3973348140716553,-1.4704803228378296,-0.1812725067138672,-419.37255859375,-155.21240234375,291.015625
7.241474866867065,-1267276908,0,1.4996215105056763,-0.8936191201210022,-1.6716935634613037,-371.15478515625,452.20947265625,-95.458984375
7.2414820194244385,-1267276889,0,1.5142699480056763,-1.4600253105163574,-1.5007951259613037,-383.85009765625,389.892578125,-186.34033203125
7.245569944381714,-1267276908,1,-1.5494344234466553,-3.60695481300354,1.3958759307861328,-445.3125,-125.9765625,363.4033203125
7.245576858520508,-1267276889,1,-2.5692098140716553,-2.26491379737854,0.4620380401611328,-337.158203125,-46.81396484375,329.28466796875
7.259889841079712,-1267276870,0,0.9681273102760315,-1.7144198417663574,-1.2998673915863037,-339.90478515625,313.65966796875,-254.7607421875
7.26742696762085,-1267276870,1,-3.3170125484466553,-2.26173996925354,0.6112079620361328,-370.78857421875,15.07568359375,440.91796875
7.26750373840332,-1267276851,1,-2.9805867671966553,-3.19826340675354,0.2403583526611328,-412.29248046875,133.056640625,606.93359375
7.2987220287323,-1267276851,0,-3.0245485305786133,0.3685879409313202,-3.5051896572113037,-466.00341796875,127.38037109375,87.70751953125
7.2987329959869385,-1267276832,0,2.8145627975463867,-1.7542147636413574,1.2665388584136963,-407.53173828125,334.77783203125,-28.01513671875
7.2992188930511475,-1267276832,1,-2.5047566890716553,-4.405294895172119,0.7906513214111328,-455.4443359375,229.91943359375,619.384765625
7.319928884506226,-1267276813,0,0.9493284821510315,-3.3538241386413574,-0.0425431951880455,-110.107421875,369.7509765625,-171.32568359375
7.319981813430786,-1267276794,0,1.9268676042556763,-1.4697909355163574,-0.5779435634613037,193.2373046875,362.24365234375,-521.78955078125
7.341274738311768,-1267276813,1,-2.6749227046966553,-3.62941575050354,0.8780536651611328,-415.8935546875,436.4013671875,591.6748046875
7.341283082962036,-1267276794,1,-3.5809285640716553,-3.04884934425354,1.9884052276611328,-404.84619140625,487.12158203125,637.39013671875
7.350196838378906,-1267276775,0,0.7481566071510315,-1.6463046073913574,-0.8367326259613037,54.26025390625,157.1044921875,-692.5048828125
7.357651948928833,-1267276775,1,-3.5899617671966553,-2.97267746925354,2.191286087036133,-434.4482421875,374.69482421875,660.0341796875
7.395339012145996,-1267276756,1,-2.6346395015716553,-2.91213059425354,1.8421649932861328,-422.36328125,220.21484375,660.400390625
7.3953468799591064,-1267276737,1,-1.7305867671966553,-2.65968918800354,1.1817646026611328,-348.57177734375,182.9833984375,595.88623046875
7.411832094192505,-1267276756,0,0.7452269196510315,-1.5029940605163574,-0.1953752338886261,36.56005859375,0.244140625,-698.2421875
7.4118428230285645,-1267276737,0,0.8773069977760315,-1.1570467948913574,-0.0332658514380455,61.03515625,33.0810546875,-615.3564453125
7.411848783493042,-1267276701,0,0.2034788876771927,-0.4280429184436798,-0.4683244526386261,6.89697265625,180.0537109375,-352.96630859375
7.417295694351196,-1267276701,1,-1.5894734859466553,-1.6125701665878296,0.9793720245361328,-229.1259765625,181.7626953125,580.6884765625
7.445781946182251,-1267276682,0,0.2064085751771927,-0.038150351494550705,-0.6323869228363037,-82.763671875,145.20263671875,-329.65087890625
7.447076797485352,-1267276682,1,-1.6050984859466553,-1.6679900884628296,0.9053974151611328,-203.79638671875,140.5029296875,559.326171875
7.470062732696533,-1267276663,0,0.3621703088283539,-0.6257968544960022,0.0905134454369545,-67.9931640625,107.177734375,-426.69677734375
7.47012996673584,-1267276644,0,0.2671996057033539,-0.7710605263710022,0.3493025004863739,33.0810546875,66.10107421875,-479.98046875
7.477263689041138,-1267276663,1,-1.2401082515716553,-1.8498748540878296,0.7928485870361328,-157.958984375,46.69189453125,488.4033203125
7.4773359298706055,-1267276644,1,-0.9415242075920105,-1.2871307134628296,0.4427509307861328,-136.3525390625,-49.9267578125,363.76953125
7.4998109340667725,-1267276625,0,0.2010374814271927,-0.7027011513710022,0.2162458598613739,86.5478515625,72.6318359375,-491.39404296875
7.507408857345581,-1267276625,1,-1.3936727046966553,-0.4714568555355072,-0.3101787567138672,-196.77734375,-122.49755859375,311.8896484375
7.541561841964722,-1267276606,0,0.08555896580219269,-0.5794101357460022,-0.0444963201880455,115.17333984375,101.318359375,-460.63232421875
7.541569948196411,-1267276587,0,-0.12122814357280731,-0.3985019028186798,-0.1770646870136261,101.25732421875,99.9755859375,-377.685546875
7.544297933578491,-1267276606,1,-2.0909383296966553,-0.8784392476081848,0.3614521026611328,-223.7548828125,-163.9404296875,421.69189453125
7.546020746231079,-1267276587,1,-2.0386922359466553,-1.3054412603378296,0.4486103057861328,-153.74755859375,-230.1025390625,462.158203125
7.559895038604736,-1267276568,0,-0.11585704982280731,-0.164371058344841,-0.2527482807636261,57.18994140625,91.24755859375,-280.3955078125
7.567187786102295,-1267276568,1,-1.5814168453216553,-1.4990447759628296,0.6268329620361328,-104.1259765625,-292.05322265625,331.9091796875
7.597801923751831,-1267276549,0,-0.09583751857280731,-0.045962851494550705,-0.3799455463886261,1.64794921875,110.9619140625,-209.77783203125
7.597811937332153,-1267276530,0,-0.2691773474216461,-0.8977695107460022,-0.1900041401386261,-5.06591796875,159.66796875,-113.58642578125
7.598276853561401,-1267276549,1,-1.4573934078216553,-1.3337615728378296,0.8426532745361328,-16.11328125,-311.03515625,208.55712890625
7.598283052444458,-1267276530,1,-1.5613973140716553,-1.1084197759628296,0.7349872589111328,60.9130859375,-343.44482421875,154.1748046875
7.619780778884888,-1267276511,0,-0.4154175817966461,-1.0479159355163574,0.0968611016869545,109.86328125,173.2177734375,-56.21337890625
7.628368854522705,-1267276511,1,-1.7984578609466553,-0.8850310444831848,0.4742450714111328,83.6181640625,-394.10400390625,136.53564453125
7.628382921218872,-1267276492,1,-1.9251668453216553,-0.9167693257331848,0.2772235870361328,37.841796875,-454.16259765625,131.65283203125
7.649969816207886,-1267276492,0,-0.5704469084739685,-1.1245760917663574,-0.1836564838886261,210.75439453125,183.837890625,-76.11083984375
7.650125741958618,-1267276473,0,-0.6778687834739685,-0.7942538857460022,-0.8145158290863037,337.34130859375,163.26904296875,-101.98974609375
7.657526969909668,-1267276473,1,-2.0308797359466553,-1.2324432134628296,0.1763935089111328,0.6103515625,-492.61474609375,70.86181640625
7.6936047077178955,-1267276437,1,-2.3126180171966553,-1.5154021978378296,0.2286396026611328,102.4169921875,-489.3798828125,-127.62451171875
7.710130929946899,-1267276437,0,-0.2552613317966461,-0.5093417763710022,-1.1030900478363037,311.8896484375,180.5419921875,-93.8720703125
7.710262060165405,-1267276418,0,-0.3590210974216461,-1.0703768730163574,-1.1023576259613037,352.84423828125,192.3828125,-12.39013671875
7.717198848724365,-1267276418,1,-2.7945516109466553,-1.6032928228378296,0.07434273511171341,209.716796875,-467.1630859375,-206.48193359375
7.745347738265991,-1267276399,0,-0.09266369044780731,-1.1917147636413574,-1.2337052822113037,426.513671875,214.2333984375,83.80126953125
7.7453577518463135,-1267276380,0,0.1810179501771927,-1.2083163261413574,-1.9917619228363037,461.3037109375,248.84033203125,111.75537109375
7.747370004653931,-1267276399,1,-3.3299520015716553,-1.6660369634628296,-0.12389945238828659,284.0576171875,-458.740234375,-256.65283203125
7.747485876083374,-1267276380,1,-3.9351766109466553,-1.6345428228378296,-0.5184307098388672,345.52001953125,-482.7880859375,-304.50439453125
7.76990270614624,-1267276361,0,-0.4486207067966461,-1.2144198417663574,-2.4048478603363037,511.65771484375,232.2998046875,90.4541015625
7.77727484703064,-1267276361,1,-4.512813091278076,-1.6069549322128296,-0.8936748504638672,337.21923828125,-498.9013671875,-336.48681640625
7.777358770370483,-1267276342,1,-4.666133403778076,-1.8664764165878296,-1.0218486785888672,314.3310546875,-535.15625,-377.86865234375
7.800731897354126,-1267276342,0,-0.4061402380466461,-1.3057284355163574,-2.8474748134613037,553.40576171875,161.07177734375,91.24755859375
7.800741910934448,-1267276323,0,-0.1300172060728073,-0.6992831826210022,-3.6257951259613037,537.17041015625,129.08935546875,150.2685546875
7.807140827178955,-1267276323,1,-4.386104106903076,-2.41213059425354,-1.0030498504638672,367.12646484375,-501.8310546875,-407.8369140625
7.841693878173828,-1267276304,0,-0.2203492373228073,-0.234195277094841,-3.3963029384613037,410.7666015625,105.04150390625,223.69384765625
7.8417017459869385,-1267276285,0,0.054797250777482986,-0.9136386513710022,-2.5481584072113037,279.1748046875,95.458984375,307.67822265625
7.844461679458618,-1267276304,1,-4.393672466278076,-2.74440598487854,-1.3768291473388672,528.4423828125,-372.55859375,-402.28271484375
7.846162796020508,-1267276285,1,-3.8433797359466553,-2.22511887550354,-1.7357158660888672,647.27783203125,-197.8759765625,-350.28076171875
7.860187768936157,-1267276266,0,0.4776488244533539,-1.5708651542663574,-1.9443986415863037,343.81103515625,57.12890625,283.38623046875
7.867336988449097,-1267276266,1,-3.4581258296966553,-1.5393279790878296,-1.7781963348388672,647.8271484375,-23.681640625,-216.85791015625
7.897670745849609,-1267276247,0,0.7610960602760315,-1.5357089042663574,-2.0808732509613037,471.923828125,13.3056640625,187.07275390625
7.897678852081299,-1267276228,0,0.9957152009010315,-1.3513827323913574,-1.9710099697113037,495.7275390625,33.26416015625,173.76708984375
7.918790817260742,-1267276209,0,1.2637816667556763,-2.4224276542663574,-1.3894670009613037,455.87158203125,93.3837890625,152.16064453125
7.930506944656372,-1267276247,1,-3.2955281734466553,-1.5659393072128296,-1.6697978973388672,592.22412109375,58.837890625,-109.19189453125
7.930516004562378,-1267276228,1,-2.8287312984466553,-2.19557785987854,-1.3612041473388672,555.5419921875,113.525390625,-40.283203125
7.930521726608276,-1267276209,1,-2.5518758296966553,-3.27297043800354,-1.1463603973388672,563.3544921875,236.328125,-35.7666015625
7.950271844863892,-1267276173,0,0.9991331696510315,-1.3914217948913574,-0.6445939540863037,354.00390625,133.9111328125,79.9560546875
7.9575958251953125,-1267276173,1,-3.2774617671966553,-1.0395721197128296,0.3253192901611328,546.93603515625,284.11865234375,33.02001953125
7.993577003479004,-1267276154,0,1.2276488542556763,-2.0823397636413574,-0.3010881245136261,403.38134765625,159.48486328125,50.048828125
7.993583917617798,-1267276135,0,1.1382933855056763,-1.2329745292663574,-0.4092424213886261,451.84326171875,202.08740234375,8.97216796875
7.9961888790130615,-1267276154,1,-3.3529012203216553,-1.2949432134628296,1.0755634307861328,363.95263671875,305.0537109375,97.5341796875
7.996196746826172,-1267276135,1,-3.0052449703216553,-0.7148650288581848,1.5660419464111328,349.91455078125,355.3466796875,143.37158203125
8.009851932525635,-1267276116,0,0.7776976227760315,-0.7849765419960022,-0.2173478901386261,395.08056640625,226.98974609375,-16.54052734375
8.017719984054565,-1267276116,1,-2.8785359859466553,-0.3520720899105072,1.5574970245361328,261.29150390625,362.79296875,243.59130859375
8.046154022216797,-1267276097,0,0.5757933259010315,-0.5161777138710022,0.0785505548119545,351.9287109375,243.83544921875,-40.58837890625
8.046161890029907,-1267276078,0,-0.1678590029478073,-0.5984531044960022,0.2799665629863739,289.794921875,295.95947265625,-14.83154296875
8.047478914260864,-1267276097,1,-2.0035359859466553,-0.7434294819831848,1.8011493682861328,192.07763671875,356.50634765625,263.85498046875
8.04758882522583,-1267276078,1,-1.2196004390716553,-0.1386931836605072,1.3824481964111328,212.890625,444.2138671875,228.08837890625
8.070227861404419,-1267276059,0,-0.4852418005466461,-1.8125643730163574,0.6669294834136963,274.169921875,269.53125,53.7109375
8.090349674224854,-1267276059,1,-1.5779988765716553,-0.8044646382331848,1.0872821807861328,160.15625,482.7880859375,228.271484375
8.090356826782227,-1267276040,1,-1.0235555171966553,-1.3933318853378296,1.0211200714111328,171.142578125,512.939453125,75.8056640625
8.10289978981018,-1267276040,0,0.1304808408021927,-1.2251620292663574,0.4730817973613739,358.21533203125,241.88232421875,58.77685546875
8.102908849716187,-1267276021,0,0.6168089509010315,-0.137271448969841,-0.0757463201880455,261.474609375,331.97021484375,38.6962890625
8.107128858566284,-1267276021,1,-1.3756062984466553,-1.4226287603378296,0.8458271026611328,184.87548828125,482.60498046875,-15.93017578125
8.142908811569214,-1267276002,0,0.6563597321510315,-0.160953089594841,-0.5105607509613037,46.142578125,421.9970703125,81.97021484375
8.142916679382324,-1267275983,0,1.2906371355056763,-0.5349765419960022,-0.4426896870136261,-121.88720703125,496.4599609375,50.29296875
8.144755840301514,-1267276002,1,-1.2689168453216553,-0.3872283399105072,0.5147724151611328,173.64501953125,429.6875,-78.91845703125
8.144762754440308,-1267275983,1,-1.2318074703216553,-0.3059295117855072,0.3226337432861328,72.20458984375,373.22998046875,-84.28955078125
8.159880876541138,-1267275964,0,0.046008188277482986,-0.4204745590686798,-0.2842424213886261,-239.07470703125,618.1640625,160.15625
8.167206764221191,-1267275964,1,-1.0418660640716553,-0.2155974805355072,0.1822528839111328,-13.00048828125,348.57177734375,-67.81005859375
8.197290897369385,-1267275945,0,-3.1202516555786133,-0.6375156044960022,-0.3477189838886261,-364.44091796875,545.10498046875,517.15087890625
8.19774580001831,-1267275945,1,-0.8538777232170105,-0.2629607617855072,0.07946968823671341,-92.34619140625,379.21142578125,-46.875
8.21981692314148,-1267275909,0,0.7598753571510315,-1.4956698417663574,0.4127790629863739,-248.1689453125,245.2392578125,244.44580078125
8.227319955825806,-1267275909,1,-1.0643270015716553,-0.5632537007331848,0.01501656323671341,-147.216796875,450.927734375,-22.15576171875
8.228885889053345,-1267275890,1,-1.2467000484466553,-0.4904998242855072,-0.01061820238828659,-155.8837890625,441.46728515625,-40.83251953125
8.249958753585815,-1267275890,0,1.3301879167556763,-0.8792148232460022,-0.1055314764380455,-280.6396484375,525.81787109375,283.14208984375
8.250064849853516,-1267275871,0,0.6636839509010315,-0.7461581826210022,-0.3855607807636261,-337.82958984375,780.1513671875,435.302734375
8.25786805152893,-1267275871,1,-1.4202840328216553,-0.6399138569831848,-0.1307353973388672,-191.5283203125,428.16162109375,-79.04052734375
8.293571710586548,-1267275852,0,-0.4642457067966461,-1.2266268730163574,-0.3809221088886261,-340.6982421875,854.4921875,530.6396484375
8.296112775802612,-1267275852,1,-1.5247762203216553,-0.9492400288581848,-0.2010478973388672,-215.14892578125,375.8544921875,-20.44677734375
8.296119928359985,-1267275833,1,-1.1512410640716553,-1.1736053228378296,-0.2120342254638672,-198.54736328125,332.763671875,-57.6171875
8.309916973114014,-1267275833,0,-0.9683961272239685,-1.0723299980163574,-0.5088517665863037,-186.46240234375,670.7763671875,670.47119140625
8.310032844543457,-1267275814,0,-0.3548707067966461,-0.3652987778186798,-0.2246721088886261,-100.341796875,486.75537109375,599.12109375
8.319608688354492,-1267275814,1,-0.9127156138420105,-1.3344939947128296,-0.1666240692138672,-162.78076171875,351.98974609375,-134.033203125
8.345525026321411,-1267275795,0,0.2342406064271927,-0.178042933344841,-0.1104142889380455,-118.46923828125,358.5205078125,385.3759765625
8.345532894134521,-1267275776,0,0.10997302830219269,-0.4641757309436798,-0.0505998358130455,-161.7431640625,257.4462890625,246.64306640625
8.347602844238281,-1267275795,1,-1.0118367671966553,-1.3821014165878296,-0.2117900848388672,-122.61962890625,389.58740234375,-165.83251953125
8.347709894180298,-1267275776,1,-1.0616414546966553,-1.4311736822128296,-0.2210674285888672,-119.93408203125,404.23583984375,-185.48583984375
8.369807720184326,-1267275757,0,0.020129282027482986,-0.3865390121936798,-0.2141740620136261,-176.81884765625,77.08740234375,174.62158203125
8.377312898635864,-1267275757,1,-1.2047078609466553,-1.7268279790878296,-0.1592998504638672,-155.82275390625,431.09130859375,-183.7158203125
8.400263786315918,-1267275738,0,0.3524046838283539,-0.247867152094841,-0.3506486713886261,-140.7470703125,-33.87451171875,170.47119140625
8.400338888168335,-1267275719,0,0.6326780915260315,-0.173892542719841,-0.3953264057636261,-96.74072265625,-38.9404296875,211.0595703125
8.408952713012695,-1267275738,1,-1.3602254390716553,-2.32448410987854,0.1256122589111328,-198.79150390625,448.73046875,-236.75537109375
8.409055948257446,-1267275719,1,-1.4429891109466553,-2.60085129737854,0.4798603057861328,-179.26025390625,473.81591796875,-338.8671875
8.445159912109375,-1267275700,1,-1.8883016109466553,-2.69948410987854,0.6485614776611328,-133.30078125,498.6572265625,-421.875
8.445169925689697,-1267275681,1,-2.3778035640716553,-2.69801926612854,0.6851825714111328,-69.2138671875,483.09326171875,-521.3623046875
8.460150957107544,-1267275700,0,0.8917112946510315,-0.5779452919960022,-0.2490861713886261,-9.3994140625,51.025390625,249.51171875
8.460239887237549,-1267275681,0,0.9014769196510315,-0.4854159653186798,-0.3416154682636261,48.828125,69.9462890625,261.90185546875
8.496488809585571,-1267275645,0,1.2354613542556763,-0.142886683344841,-0.6951310634613037,69.3359375,50.4150390625,179.26025390625
8.49649691581726,-1267275626,0,1.3375121355056763,-0.049624960869550705,-0.8010880947113037,62.07275390625,24.5361328125,143.798828125
8.499812841415405,-1267275645,1,-3.0706746578216553,-2.87135910987854,0.8240985870361328,-102.9052734375,449.0966796875,-622.314453125
8.499820947647095,-1267275626,1,-3.6236531734466553,-3.25319504737854,1.3099384307861328,-141.7236328125,388.12255859375,-666.68701171875
8.520080804824829,-1267275607,0,1.4617797136306763,0.2726406753063202,-0.8513810634613037,71.35009765625,16.357421875,110.83984375
8.540730714797974,-1267275607,1,-4.036738872528076,-3.29323410987854,1.9097919464111328,-154.72412109375,271.3623046875,-709.716796875
8.550238847732544,-1267275588,0,1.6578246355056763,0.4696621596813202,-1.0720841884613037,65.61279296875,45.10498046875,105.77392578125
8.55033278465271,-1267275569,0,1.6207152605056763,0.5187343955039978,-1.2901017665863037,41.9921875,96.74072265625,122.25341796875
8.557965755462646,-1267275588,1,-4.325557231903076,-3.27736496925354,2.009157180786133,-164.73388671875,170.2880859375,-698.3642578125
8.558058023452759,-1267275569,1,-4.404902935028076,-3.77028489112854,1.7000751495361328,-219.90966796875,24.658203125,-729.79736328125
8.594452857971191,-1267275550,0,1.6553832292556763,0.6088222861289978,-1.5515763759613037,19.6533203125,138.5498046875,125.8544921875
8.596364974975586,-1267275550,1,-4.874141216278076,-4.302023410797119,1.5399188995361328,-289.794921875,-73.54736328125,-850.09765625
8.59637188911438,-1267275531,1,-5.833125591278076,-4.441671848297119,1.6033954620361328,-300.048828125,-106.93359375,-893.61572265625
8.61006784439087,-1267275531,0,1.3223754167556763,0.6823086142539978,-1.6150529384613037,-28.01513671875,169.61669921875,163.6962890625
8.610105752944946,-1267275512,0,1.3697386980056763,-0.051578085869550705,-1.3425920009613037,-31.06689453125,201.2939453125,233.3984375
8.617127895355225,-1267275512,1,-5.694209575653076,-3.95241379737854,1.1954364776611328,-323.3642578125,-66.40625,-870.60546875
8.647349834442139,-1267275493,0,1.6343871355056763,-0.2964511215686798,-1.0479142665863037,60.6689453125,239.990234375,200.13427734375
8.647359848022461,-1267275474,0,1.9891234636306763,-0.3433261215686798,-1.1873185634613037,124.0234375,255.06591796875,129.7607421875
8.64789605140686,-1267275493,1,-5.826533794403076,-2.69704270362854,1.0975360870361328,-314.453125,85.14404296875,-688.96484375
8.647901773452759,-1267275474,1,-6.583369731903076,-1.3318084478378296,1.0963153839111328,-235.41259765625,120.66650390625,-473.69384765625
8.669787883758545,-1267275455,0,2.5296506881713867,-0.016665976494550705,-1.5845353603363037,167.6025390625,273.86474609375,25.93994140625
8.677280902862549,-1267275455,1,-6.035029888153076,-0.4841521680355072,1.1676044464111328,-334.47265625,-33.3251953125,-304.13818359375
8.700165748596191,-1267275436,0,2.5005979537963867,0.035824257880449295,-1.7454240322113037,115.78369140625,288.63525390625,-8.4228515625
8.700299978256226,-1267275417,0,2.1478147506713867,-0.5676913857460022,-1.4688127040863037,98.7548828125,295.10498046875,19.6533203125
8.709595918655396,-1267275436,1,-6.357783794403076,0.3320099413394928,1.1231708526611328,-360.4736328125,-92.1630859375,-169.12841796875
8.709610939025879,-1267275417,1,-6.122432231903076,1.0541778802871704,1.3502216339111328,-393.00537109375,-128.662109375,1.0986328125
8.743990898132324,-1267275381,1,-3.9102742671966553,0.2734161913394928,2.034303665161133,-349.4873046875,-258.60595703125,311.34033203125
8.759950876235962,-1267275381,0,2.8411741256713867,-0.3997226059436798,-1.3748185634613037,192.138671875,268.98193359375,-150.93994140625
8.760056734085083,-1267275362,0,3.4774045944213867,-1.4888339042663574,-1.5901505947113037,166.015625,376.5869140625,-205.810546875
8.767192840576172,-1267275362,1,-2.8731648921966553,-0.9787810444831848,1.6922626495361328,-271.3623046875,-292.17529296875,380.92041015625
8.796489000320435,-1267275343,0,3.1331663131713867,-1.9707674980163574,-1.9629533290863037,229.18701171875,512.451171875,-202.20947265625
8.796496868133545,-1267275324,0,1.8660765886306763,-1.7468905448913574,-2.5066545009613037,281.55517578125,526.91650390625,-137.20703125
8.799940824508667,-1267275343,1,-2.2523152828216553,-0.8567107319831848,1.0733661651611328,-184.99755859375,-331.6650390625,383.544921875
8.799949645996094,-1267275324,1,-1.7198445796966553,-0.9240935444831848,-0.03381156176328659,-228.94287109375,-277.03857421875,383.85009765625
8.819882869720459,-1267275305,0,1.2530394792556763,-1.3350253105163574,-2.2976701259613037,308.2275390625,456.0546875,-91.97998046875
8.849309921264648,-1267275286,0,2.0489377975463867,-1.8552889823913574,-2.6199357509613037,272.3388671875,420.22705078125,-91.30859375
8.850238800048828,-1267275267,0,1.7828246355056763,-1.3423495292663574,-2.1196916103363037,292.90771484375,431.57958984375,-290.83251953125
8.8574697971344,-1267275305,1,-0.7813679575920105,-0.5012419819831848,-1.0946025848388672,-332.3974609375,-179.3212890625,406.494140625
8.857569932937622,-1267275286,1,-1.7191121578216553,-3.50392746925354,-0.6011943817138672,-563.8427734375,-126.64794921875,325.50048828125
8.858494997024536,-1267275267,1,-0.3912312388420105,-2.08766770362854,1.1158466339111328,-97.412109375,-232.23876953125,254.5166015625
8.89443588256836,-1267275248,0,1.8936644792556763,-1.3972811698913574,-2.5781877040863037,227.1728515625,467.6513671875,-431.21337890625
8.896225929260254,-1267275248,1,-1.4986531734466553,-1.4499725103378296,0.10901070386171341,119.07958984375,-182.2509765625,290.8935546875
