sync_time,timestamp_ms,device_id,ax,ay,az,gx,gy,gz
0.018592119216918945,-1268691914,0,0.6019163727760315,-0.125796839594841,-0.6568009853363037,16.4794921875,381.53076171875,-367.49267578125
0.01860213279724121,-1268691895,0,0.2579222619533539,0.011898476630449295,-0.5569474697113037,2.8076171875,329.40673828125,-282.5927734375
0.019950151443481445,-1268691916,1,-1.5667684078216553,0.4013458788394928,-0.6207256317138672,-72.08251953125,363.34228515625,-19.83642578125
0.020067214965820312,-1268691897,1,-1.9078328609466553,0.5400177836418152,-0.2340068817138672,-96.0693359375,301.8798828125,12.26806640625
0.043332815170288086,-1268691876,0,0.2010374814271927,0.183529332280159,-0.4356096088886261,-36.62109375,292.48046875,-201.35498046875
0.04956507682800293,-1268691878,1,-1.1378133296966553,0.4216095507144928,-0.1285381317138672,-133.36181640625,204.04052734375,-1.40380859375
0.08711886405944824,-1268691859,1,-0.8716999888420105,0.045144710689783096,-0.4063701629638672,-159.60693359375,246.4599609375,-60.72998046875
0.0879359245300293,-1268691840,1,-1.1353719234466553,0.9081818461418152,0.03698921948671341,-59.50927734375,330.01708984375,93.20068359375
0.10240793228149414,-1268691857,0,0.1585570126771927,0.110287144780159,-0.2593400776386261,-55.96923828125,269.4091796875,-217.59033203125
0.1025090217590332,-1268691838,0,0.10850818455219269,0.126888707280159,-0.1160295233130455,-37.841796875,260.55908203125,-215.63720703125
0.10347390174865723,-1268691819,0,0.07310779392719269,0.3158535659313202,-0.0474260076880455,-16.2353515625,256.7138671875,-174.9267578125
0.1096031665802002,-1268691821,1,-1.0176961421966553,0.7551056742668152,-0.1932353973388672,-96.25244140625,347.83935546875,78.0029296875
0.10972809791564941,-1268691802,1,-0.8948933482170105,0.5871369242668152,-0.3646221160888672,-197.3876953125,324.3408203125,37.41455078125
0.13922691345214844,-1268691800,0,-0.042614858597517014,0.4562344253063202,0.0963728204369545,-15.80810546875,241.943359375,-152.52685546875
0.1392362117767334,-1268691781,0,-0.1546754091978073,0.5639004111289978,0.1972028911113739,-35.7666015625,196.2890625,-116.69921875
0.1414189338684082,-1268691783,1,-0.7239949107170105,0.4963165819644928,-0.3626689910888672,-251.89208984375,317.0166015625,25.634765625
0.162369966506958,-1268691745,0,-0.6849488615989685,0.227230504155159,0.4696638286113739,-77.0263671875,155.76171875,-38.63525390625
0.16948890686035156,-1268691747,1,-1.1531941890716553,0.7692658305168152,0.6939716339111328,-273.3154296875,299.13330078125,98.08349609375
0.19249796867370605,-1268691726,0,-0.3888062536716461,0.030209023505449295,0.2557966411113739,-68.29833984375,79.40673828125,34.85107421875
0.19942498207092285,-1268691728,1,-1.3558309078216553,0.4694611132144928,0.5418720245361328,-256.04248046875,179.62646484375,143.49365234375
0.22237491607666016,-1268691707,0,0.2032347470521927,0.3451504409313202,0.1600935161113739,-3.84521484375,75.86669921875,28.25927734375
0.22250914573669434,-1268691688,0,0.3292113244533539,0.3771328628063202,0.3510114848613739,20.8740234375,128.47900390625,34.1796875
0.24147891998291016,-1268691709,1,-0.2325398325920105,0.1218048632144928,0.1671161651611328,-225.4638671875,130.9814453125,156.31103515625
0.24148988723754883,-1268691690,1,0.3558390736579895,0.1071564257144928,-0.07922171801328659,-126.3427734375,283.5693359375,154.84619140625
0.252241849899292,-1268691669,0,0.1297484189271927,0.3356289565563202,0.4618513286113739,28.13720703125,182.18994140625,45.71533203125
0.25991106033325195,-1268691671,1,-0.040401164442300797,0.1926056444644928,-0.07775687426328659,-81.97021484375,384.3994140625,141.05224609375
0.26001405715942383,-1268691652,1,-0.2398640513420105,0.2968536913394928,0.1619892120361328,-95.15380859375,328.06396484375,106.4453125
0.28980398178100586,-1268691650,0,-0.1432007998228073,0.210384801030159,0.4674665629863739,37.109375,187.31689453125,64.39208984375
0.2898139953613281,-1268691631,0,0.10850818455219269,0.248714879155159,0.3305036723613739,42.8466796875,156.494140625,60.48583984375
0.29241085052490234,-1268691633,1,-0.018916789442300797,0.2145783007144928,-0.04357718676328659,-126.0986328125,312.68310546875,96.6796875
0.3120729923248291,-1268691612,0,0.2369261533021927,0.228939488530159,0.3400251567363739,68.42041015625,162.7197265625,41.32080078125
0.31969499588012695,-1268691614,1,-0.038692180067300797,0.1152130663394928,-0.02306937426328659,-115.53955078125,300.23193359375,103.8818359375
0.3198049068450928,-1268691595,1,-0.0789753794670105,0.022439632564783096,-0.05065726488828659,-86.73095703125,286.56005859375,89.90478515625
0.3424031734466553,-1268691593,0,0.2647581994533539,0.143978551030159,0.2423689067363739,71.1669921875,203.55224609375,51.94091796875
0.34247303009033203,-1268691574,0,0.2530394494533539,0.021419961005449295,0.0936872735619545,81.4208984375,251.220703125,95.0927734375
0.3496890068054199,-1268691576,1,0.018192585557699203,0.1569611132144928,0.0025653913617134094,-67.93212890625,287.7197265625,19.04296875
0.37276601791381836,-1268691555,0,0.2549925744533539,-0.053775351494550705,-0.0630510076880455,94.8486328125,288.57421875,131.89697265625
0.3728909492492676,-1268691536,0,0.1754027158021927,-0.174624964594841,-0.3242814838886261,117.00439453125,315.97900390625,175.78125
0.3879859447479248,-1268691557,1,-0.053828898817300797,0.3620392382144928,0.11877632886171341,-105.3466796875,254.33349609375,-65.97900390625
0.38799595832824707,-1268691538,1,-0.0071980394423007965,0.4025665819644928,0.1644306182861328,-155.517578125,217.10205078125,-107.0556640625
0.40229296684265137,-1268691517,0,0.10240466892719269,-0.222232386469841,-0.4541642963886261,160.46142578125,303.89404296875,244.140625
0.40951991081237793,-1268691519,1,0.1285441517829895,0.1506134569644928,0.1844501495361328,-187.68310546875,194.2138671875,-125.30517578125
0.44012999534606934,-1268691481,0,0.3067503869533539,-0.123111292719841,-0.8391740322113037,222.7783203125,225.76904296875,287.90283203125
0.44262003898620605,-1268691483,1,0.0941203236579895,0.1562286913394928,0.4696063995361328,-165.8935546875,239.44091796875,-219.6044921875
0.46216821670532227,-1268691462,0,0.4874144494533539,0.106380894780159,-1.0769670009613037,241.455078125,186.95068359375,285.09521484375
0.46965503692626953,-1268691464,1,-0.0740925669670105,0.1608673632144928,0.5804462432861328,-162.53662109375,243.408203125,-265.7470703125
0.46967411041259766,-1268691445,1,-0.2904011607170105,0.4740997850894928,0.6097431182861328,-203.43017578125,235.83984375,-344.17724609375
0.49425482749938965,-1268691443,0,0.5027952790260315,0.2709316909313202,-1.3350236415863037,231.8115234375,143.49365234375,264.6484375
0.4942631721496582,-1268691424,0,0.4510374963283539,0.6193203330039978,-1.7222306728363037,207.45849609375,95.52001953125,223.44970703125
0.5021078586578369,-1268691426,1,-0.5728718638420105,0.5651642680168152,0.6619892120361328,-277.7099609375,232.97119140625,-409.7900390625
0.5221807956695557,-1268691405,0,0.7120237946510315,1.0599942207336426,-1.9194962978363037,127.44140625,51.20849609375,242.00439453125
0.5223188400268555,-1268691386,0,1.2679320573806763,1.2670254707336426,-2.0283830165863037,30.45654296875,38.63525390625,260.1318359375
0.5409669876098633,-1268691407,1,-1.0345418453216553,0.3974396288394928,1.0057392120361328,-330.50537109375,218.3837890625,-471.19140625
0.5409748554229736,-1268691388,1,-1.6129109859466553,0.3996368944644928,1.6085224151611328,-280.517578125,187.98828125,-464.78271484375
0.552044153213501,-1268691367,0,1.4734984636306763,1.3849453926086426,-1.8870255947113037,-9.46044921875,53.3447265625,240.478515625
0.559563159942627,-1268691369,1,-2.2037312984466553,0.8776642680168152,2.016969680786133,-133.36181640625,116.14990234375,-347.35107421875
0.5909178256988525,-1268691348,0,1.4173461198806763,1.5221524238586426,-1.6765763759613037,-34.24072265625,45.34912109375,203.0029296875
0.5909249782562256,-1268691329,0,1.4407836198806763,1.5973477363586426,-1.4282853603363037,-65.185546875,10.498046875,163.14697265625
0.5935020446777344,-1268691350,1,-2.2940633296966553,1.3498321771621704,1.8375263214111328,-15.80810546875,46.7529296875,-191.95556640625
0.5935089588165283,-1268691331,1,-1.9849812984466553,1.5622345209121704,1.3594989776611328,31.3720703125,10.1318359375,-39.36767578125
0.6121480464935303,-1268691310,0,1.4700804948806763,1.4015469551086426,-1.1118791103363037,-94.8486328125,-7.62939453125,107.72705078125
0.6196401119232178,-1268691312,1,-1.7540242671966553,1.4592071771621704,1.2213153839111328,8.9111328125,-27.03857421875,9.33837890625
0.6197609901428223,-1268691293,1,-1.6238973140716553,1.4264923334121704,1.0335712432861328,-22.27783203125,-113.4033203125,26.85546875
0.6437499523162842,-1268691291,0,1.4007445573806763,1.2833828926086426,-0.9138810634613037,-98.20556640625,-13.18359375,82.82470703125
0.6437599658966064,-1268691272,0,1.3692504167556763,1.3234219551086426,-0.6824357509613037,-105.224609375,-39.12353515625,60.48583984375
0.6498270034790039,-1268691274,1,-1.3494832515716553,1.2936798334121704,0.7979755401611328,-27.9541015625,-173.15673828125,66.2841796875
0.6724071502685547,-1268691253,0,1.3367797136306763,0.9779629111289978,-0.4631974995136261,-101.98974609375,-87.21923828125,12.75634765625
0.6889898777008057,-1268691255,1,-0.9988972544670105,0.9086701273918152,0.6051044464111328,17.63916015625,-156.982421875,136.474609375
0.7050189971923828,-1268691217,0,1.3729125261306763,0.7352871298789978,-0.2505510151386261,-82.763671875,-148.8037109375,-74.52392578125
0.7096378803253174,-1268691219,1,-0.8748738169670105,0.8884064555168152,0.4429950714111328,104.00390625,-40.95458984375,217.22412109375
0.7397818565368652,-1268691198,0,1.3968383073806763,0.6227383017539978,-0.2297990620136261,-82.33642578125,-135.80322265625,-84.16748046875
0.7397909164428711,-1268691179,0,1.4393187761306763,0.6847500205039978,-0.3335588276386261,-111.99951171875,-96.37451171875,-103.271484375
0.7414348125457764,-1268691200,1,-0.8524128794670105,0.8034455180168152,0.5037860870361328,65.4296875,-44.37255859375,236.328125
0.7419259548187256,-1268691181,1,-0.7196003794670105,0.6850373148918152,0.4927997589111328,90.4541015625,-35.2783203125,259.8876953125
0.7622227668762207,-1268691160,0,1.2188597917556763,0.3832363784313202,-0.2935197651386261,-114.8681640625,-61.1572265625,-101.74560546875
0.7919769287109375,-1268691141,0,0.9817991852760315,0.4125332534313202,-0.2944963276386261,-113.4033203125,-45.7763671875,-116.3330078125
0.7953169345855713,-1268691122,0,0.8629027009010315,0.224789097905159,-0.2459123432636261,-115.66162109375,-47.79052734375,-154.60205078125
0.8000969886779785,-1268691162,1,-0.6788288950920105,0.5781037211418152,0.3878192901611328,59.6923828125,-8.4228515625,246.826171875
0.8002350330352783,-1268691143,1,-0.5618855357170105,0.3227325975894928,0.4937763214111328,37.9638671875,10.31494140625,227.783203125
0.8221919536590576,-1268691103,0,0.7618284821510315,0.4147305190563202,-0.3870256245136261,-114.68505859375,-39.794921875,-221.3134765625
0.83815598487854,-1268691124,1,-0.4466511607170105,0.0971466600894928,0.6156024932861328,69.15283203125,26.18408203125,213.134765625
0.8390519618988037,-1268691105,1,-0.3206745982170105,-0.2314666211605072,0.8338642120361328,128.41796875,32.8369140625,177.734375
0.8390579223632812,-1268691086,1,-0.1133992075920105,-0.1660369336605072,0.9466571807861328,210.5712890625,36.9873046875,145.5078125
0.8524460792541504,-1268691084,0,0.6419554352760315,0.4574551284313202,-0.5049455165863037,-147.15576171875,-30.21240234375,-213.19580078125
0.852590799331665,-1268691065,0,0.5779905915260315,0.3659023940563202,-0.4451310932636261,-166.56494140625,18.5546875,-186.09619140625
0.8594388961791992,-1268691067,1,-0.042598430067300797,0.0851837694644928,0.6385517120361328,300.4150390625,89.599609375,176.1474609375
0.8923459053039551,-1268691046,0,0.5208616852760315,0.2802090346813202,-0.4422014057636261,-162.04833984375,75.25634765625,-175.72021484375
0.89235520362854,-1268691027,0,0.4122191369533539,0.150814488530159,-0.3438127338886261,-135.68115234375,161.62109375,-174.86572265625
0.8948140144348145,-1268691048,1,-0.052852336317300797,0.3012482225894928,0.2691669464111328,336.669921875,140.869140625,151.611328125
0.8948209285736084,-1268691029,1,-0.0013386644423007965,0.4618927538394928,0.1551532745361328,238.037109375,145.81298828125,57.373046875
0.921177864074707,-1268691010,1,0.1556437611579895,0.1716095507144928,0.2025165557861328,155.70068359375,142.2119140625,24.23095703125
0.921187162399292,-1268690991,1,0.2474406361579895,-0.1440642774105072,0.2862567901611328,152.34375,154.052734375,-5.126953125
0.942471981048584,-1268691008,0,0.3231078088283539,0.083187535405159,-0.1990373432636261,-106.4453125,220.88623046875,-176.3916015625
0.9425568580627441,-1268690989,0,0.041857797652482986,0.134457066655159,-0.2227189838886261,-82.45849609375,268.98193359375,-169.98291015625
0.9861509799957275,-1268690955,1,0.3680461049079895,-0.1111052930355072,0.03405953198671341,192.07763671875,242.67578125,-35.2783203125
0.9861581325531006,-1268690936,1,0.3096964955329895,-0.1269744336605072,0.10022164136171341,204.52880859375,280.1513671875,-55.419921875
1.0026659965515137,-1268690953,0,-0.4107789099216461,0.4222988784313202,-0.5156877040863037,-117.37060546875,243.59130859375,-14.404296875
1.0028438568115234,-1268690934,0,-0.5062379240989685,-0.154117152094841,0.1266462504863739,-27.89306640625,240.53955078125,-14.16015625
1.002863883972168,-1268690915,0,-0.3580445349216461,-0.053042929619550705,-0.011781476438045502,72.265625,138.7939453125,-30.2734375
1.0095198154449463,-1268690917,1,0.1309855580329895,0.057351741939783096,0.2318134307861328,191.650390625,278.86962890625,-61.58447265625
1.0402281284332275,-1268690896,0,-0.2398804873228073,0.059994179755449295,-0.005189679563045502,145.32470703125,85.693359375,-83.43505859375
1.0402381420135498,-1268690877,0,-0.1566285341978073,0.088802769780159,-0.0925920233130455,178.28369140625,64.453125,-108.154296875
1.0419421195983887,-1268690898,1,0.021610554307699203,0.1904083788394928,0.3753681182861328,142.578125,230.77392578125,-73.91357421875
1.042447805404663,-1268690879,1,-0.019160930067300797,0.2675568163394928,0.4571552276611328,84.28955078125,171.44775390625,-93.3837890625
1.0621581077575684,-1268690858,0,-0.10438244044780731,0.207455113530159,-0.2193010151386261,190.49072265625,64.5751953125,-106.50634765625
1.0696358680725098,-1268690860,1,-0.0877644419670105,0.3686310350894928,0.4573993682861328,2.25830078125,88.37890625,-140.56396484375
1.069701910018921,-1268690841,1,-0.1141316294670105,0.4299103319644928,0.4032001495361328,-89.17236328125,6.40869140625,-210.44921875
1.0949211120605469,-1268690839,0,-0.06580822169780731,0.2589688003063202,-0.4014299213886261,186.58447265625,64.453125,-63.78173828125
1.0949299335479736,-1268690820,0,-0.008923452347517014,0.2745938003063202,-0.6712052822113037,192.68798828125,73.974609375,6.4697265625
1.099553108215332,-1268690822,1,-0.1175495982170105,0.5429474711418152,0.3634052276611328,-186.767578125,-47.42431640625,-300.59814453125
1.1222259998321533,-1268690801,0,0.0074339695274829865,0.3536953628063202,-0.9180314540863037,200.98876953125,72.57080078125,64.3310546875
1.1386618614196777,-1268690803,1,-0.2991902232170105,0.7258087992668152,0.3607196807861328,-270.32470703125,-57.0068359375,-393.24951171875
1.1386690139770508,-1268690784,1,-0.7298542857170105,0.7782990336418152,0.4420185089111328,-385.6201171875,-43.51806640625,-508.30078125
1.1523621082305908,-1268690782,0,-0.029919546097517014,0.5321621298789978,-1.1348283290863037,197.75390625,66.162109375,99.609375
1.152494192123413,-1268690763,0,0.038928110152482986,0.5678066611289978,-1.3457658290863037,169.7998046875,41.9921875,122.98583984375
1.1594691276550293,-1268690765,1,-1.3773152828216553,0.6603791117668152,0.7435321807861328,-486.81640625,-12.451171875,-612.60986328125
1.1916730403900146,-1268690744,0,0.06920154392719269,0.5751308798789978,-1.5520646572113037,160.33935546875,16.4794921875,135.3759765625
1.191681146621704,-1268690725,0,0.1744261533021927,0.6495937705039978,-1.7456681728363037,152.4658203125,-10.55908203125,135.80322265625
1.1940701007843018,-1268690746,1,-2.0416219234466553,0.2658478319644928,1.3663349151611328,-607.97119140625,-33.75244140625,-658.87451171875
1.1940758228302002,-1268690727,1,-2.3829305171966553,-0.2907927930355072,1.8502216339111328,-639.34326171875,-127.86865234375,-609.86328125
1.2185940742492676,-1268690691,1,-2.2911336421966553,-1.8823455572128296,2.017457962036133,-265.19775390625,-149.35302734375,-304.931640625
1.242915153503418,-1268690689,0,0.5814085602760315,0.6510586142539978,-1.8904435634613037,97.412109375,-76.47705078125,132.4462890625
1.242922067642212,-1268690670,0,0.9388304352760315,0.5368008017539978,-1.8174455165863037,87.2802734375,-97.412109375,93.44482421875
1.2498199939727783,-1268690672,1,-2.5421102046966553,-1.9821990728378296,2.104616165161133,93.44482421875,90.4541015625,-153.9306640625
1.2724621295928955,-1268690651,0,1.1190062761306763,0.5580410361289978,-1.6389787197113037,78.18603515625,-103.69873046875,81.1767578125
1.2886369228363037,-1268690653,1,-3.1873738765716553,-1.5337127447128296,2.338991165161133,298.4619140625,144.71435546875,-165.52734375
1.288646936416626,-1268690634,1,-3.3140828609466553,-1.1616424322128296,2.175905227661133,300.1708984375,-180.84716796875,-262.0849609375
1.3375020027160645,-1268690632,0,1.2337523698806763,0.4530605971813202,-1.3692033290863037,72.75390625,-125.54931640625,89.41650390625
1.3390841484069824,-1268690613,0,1.3492308855056763,0.4171719253063202,-1.1560685634613037,83.06884765625,-152.03857421875,78.67431640625
1.3391408920288086,-1268690594,0,1.3550902605056763,0.4901699721813202,-0.8201310634613037,105.712890625,-170.71533203125,62.07275390625
1.3391458988189697,-1268690575,0,1.2366820573806763,0.4474453628063202,-0.6123673915863037,111.02294921875,-153.3203125,80.322265625
1.3398821353912354,-1268690615,1,-2.9405477046966553,-1.3100799322128296,1.2899188995361328,182.12890625,-454.4677734375,-338.92822265625
1.3400871753692627,-1268690596,1,-2.4783895015716553,-1.4446014165878296,0.9884052276611328,126.46484375,-483.70361328125,-361.87744140625
1.3401010036468506,-1268690577,1,-2.1998250484466553,-1.7546600103378296,1.0889911651611328,165.771484375,-419.37255859375,-346.435546875
1.3623390197753906,-1268690556,0,0.9686155915260315,0.5597500205039978,-0.5327775478363037,110.41259765625,-128.23486328125,98.14453125
1.3696770668029785,-1268690558,1,-2.4488484859466553,-1.6819061040878296,1.1153583526611328,240.8447265625,-419.7998046875,-379.5166015625
1.392225980758667,-1268690537,0,0.5999632477760315,0.7987636923789978,-0.6802384853363037,82.45849609375,-129.5166015625,104.55322265625
1.3922491073608398,-1268690518,0,0.2068968564271927,0.109554722905159,-0.5088517665863037,13.5498046875,-124.6337890625,150.634765625
1.3997011184692383,-1268690539,1,-2.5679891109466553,-1.2644256353378296,0.7852802276611328,268.310546875,-486.6943359375,-405.517578125
1.3998239040374756,-1268690520,1,-2.5577352046966553,-1.0000213384628296,0.6995868682861328,268.61572265625,-489.74609375,-406.25
1.4221620559692383,-1268690499,0,-0.3187378942966461,0.3722500503063202,-0.6831681728363037,44.677734375,-194.76318359375,168.3349609375
1.4380888938903809,-1268690501,1,-2.1341512203216553,-0.3027556836605072,0.3287372589111328,250.244140625,-481.3232421875,-367.00439453125
1.4380958080291748,-1268690482,1,-1.6187703609466553,0.019509945064783096,0.05822945386171341,185.24169921875,-446.71630859375,-327.94189453125
1.4521448612213135,-1268690480,0,-0.2357300966978073,0.3615078628063202,-0.6946427822113037,20.81298828125,-251.8310546875,184.50927734375
1.452275037765503,-1268690461,0,0.025744516402482986,0.3373379409313202,-0.7097795009613037,-13.24462890625,-273.0712890625,261.65771484375
1.4594550132751465,-1268690463,1,-1.2144734859466553,-0.1355193555355072,0.1273212432861328,146.30126953125,-420.71533203125,-317.44384765625
1.4916307926177979,-1268690425,0,0.09215076267719269,0.6332363486289978,-0.7388322353363037,-157.71484375,-227.05078125,368.71337890625
1.4932799339294434,-1268690427,1,-0.4905964732170105,0.3979279100894928,-0.06408499926328659,239.07470703125,-286.56005859375,-253.47900390625
1.5121979713439941,-1268690406,0,-0.10535900294780731,0.3446621596813202,-0.6848771572113037,-213.43994140625,-265.625,434.75341796875
1.5195519924163818,-1268690408,1,-0.5550495982170105,0.3862091600894928,-0.01135062426328659,153.9306640625,-226.9287109375,-200.927734375
1.5453708171844482,-1268690387,0,0.028185922652482986,-0.147037073969841,-0.4629533588886261,-240.41748046875,-296.5087890625,411.865234375
1.5453779697418213,-1268690368,0,0.056017953902482986,-0.5520663857460022,-0.2261369526386261,-200.01220703125,-309.63134765625,346.435546875
1.5498261451721191,-1268690389,1,-0.1512410044670105,0.057107601314783096,0.2752704620361328,155.517578125,-212.7685546875,-161.31591796875
1.5499370098114014,-1268690370,1,0.1312296986579895,-0.0703338086605072,0.3511981964111328,166.93115234375,-174.6826171875,-192.2607421875
1.5724501609802246,-1268690349,0,0.1756468564271927,-0.3594394028186798,-0.1257951557636261,-106.201171875,-298.52294921875,250.6103515625
1.5888609886169434,-1268690351,1,0.2623332142829895,-0.3130095899105072,0.4678974151611328,224.4873046875,-129.57763671875,-211.7919921875
1.5888688564300537,-1268690332,1,0.3773234486579895,-0.3152068555355072,0.4681415557861328,292.29736328125,-88.2568359375,-220.8251953125
1.602621078491211,-1268690330,0,0.039660532027482986,0.2523770034313202,-0.2922990620136261,-65.0634765625,-270.20263671875,239.2578125
1.6027159690856934,-1268690311,0,-0.016735952347517014,0.4557461440563202,-0.5193498134613037,-107.91015625,-226.01318359375,305.84716796875
1.6098599433898926,-1268690313,1,0.3267863392829895,-0.1386931836605072,0.4193134307861328,326.5380859375,-47.42431640625,-226.4404296875
1.6406059265136719,-1268690292,0,0.08995349705219269,0.4867520034313202,-0.5886857509613037,-152.2216796875,-185.85205078125,348.5107421875
1.6422209739685059,-1268690294,1,0.1109660267829895,0.032937679439783096,0.4539813995361328,299.98779296875,-50.59814453125,-226.9287109375
1.6422278881072998,-1268690275,1,-0.053584758192300797,0.0793243944644928,0.4840106964111328,250.8544921875,-87.70751953125,-219.970703125
1.6623711585998535,-1268690273,0,0.031115610152482986,0.4833340346813202,-0.5488908290863037,-183.349609375,-173.7060546875,362.24365234375
1.6624751091003418,-1268690254,0,0.09874255955219269,0.4208340346813202,-0.5144670009613037,-186.4013671875,-215.576171875,320.37353515625
1.6694657802581787,-1268690256,1,-0.1075398325920105,0.0656525194644928,0.4329853057861328,224.79248046875,-118.0419921875,-217.7734375
1.6923179626464844,-1268690235,0,1.0760375261306763,0.6605800986289978,-0.8447892665863037,-174.62158203125,-188.78173828125,278.9306640625
1.692410945892334,-1268690216,0,1.0103636980056763,0.6661953330039978,-0.4163224995136261,-129.5166015625,-72.509765625,234.31396484375
1.6995999813079834,-1268690237,1,0.1641886830329895,-0.2558806836605072,0.08166695386171341,245.91064453125,-84.9609375,-230.3466796875
1.6997089385986328,-1268690218,1,-0.2523152232170105,0.038308773189783096,-0.3062725067138672,254.57763671875,74.76806640625,-233.3984375
1.722339153289795,-1268690197,0,0.2955199182033539,0.7880215048789978,0.3060896098613739,-151.611328125,-154.60205078125,192.81005859375
1.7381210327148438,-1268690199,1,-0.4427449107170105,0.3354279100894928,-0.06310843676328659,223.69384765625,-3.90625,-227.5390625
1.7520368099212646,-1268690161,0,0.4644652307033539,0.4721035659313202,0.4701521098613739,-110.107421875,-149.23095703125,200.98876953125
1.7595038414001465,-1268690163,1,-0.5772663950920105,0.5112091898918152,-0.01843070238828659,16.357421875,-89.17236328125,-164.1845703125
1.7890288829803467,-1268690142,0,0.6329222321510315,0.4379238784313202,0.5165388584136963,-76.0498046875,-147.15576171875,210.9375
1.792546033859253,-1268690144,1,-0.5716511607170105,0.2953888475894928,0.08777046948671341,-55.419921875,-133.544921875,-174.8046875
1.7925539016723633,-1268690125,1,-0.6527058482170105,0.3769318163394928,0.1370868682861328,-82.03125,-151.67236328125,-197.20458984375
1.8463160991668701,-1268690123,0,0.6866331696510315,0.5573086142539978,0.4677107036113739,-24.5361328125,-148.681640625,227.4169921875
1.8463249206542969,-1268690104,0,0.5574827790260315,0.9237636923789978,0.2675153911113739,-5.18798828125,-131.34765625,276.611328125
1.846329927444458,-1268690085,0,0.7669554352760315,0.7299160361289978,0.2015974223613739,-41.93115234375,-62.8662109375,316.2841796875
1.8463349342346191,-1268690066,0,0.7798948884010315,0.8256191611289978,0.0648786798119545,-53.7109375,30.33447265625,351.25732421875
1.8501131534576416,-1268690106,1,-0.8807331919670105,0.6911408305168152,0.08362007886171341,-118.46923828125,-156.3720703125,-199.8291015625
1.8502531051635742,-1268690087,1,-0.8963581919670105,0.7819611430168152,0.1568622589111328,-146.728515625,-128.2958984375,-174.62158203125
1.8504040241241455,-1268690068,1,-1.2169148921966553,0.5151154398918152,0.03088570386171341,-141.9677734375,-97.65625,-156.3720703125
1.872786045074463,-1268690047,0,0.7222777009010315,0.9132656455039978,0.1095564141869545,-28.99169921875,50.72021484375,367.12646484375
1.889418125152588,-1268690049,1,-0.7735554575920105,0.8117462992668152,0.10779000073671341,-119.68994140625,-83.06884765625,-182.92236328125
1.9025559425354004,-1268690028,0,1.1038695573806763,0.9869961142539978,0.1105329766869545,4.69970703125,55.48095703125,396.484375
1.9026579856872559,-1268690009,0,1.5767699480056763,1.0228848457336426,-0.0513322576880455,32.5927734375,127.5634765625,442.138671875
1.9095768928527832,-1268690030,1,-1.0967977046966553,1.0898224115371704,0.2003192901611328,-122.9248046875,-18.6767578125,-152.28271484375
1.9097228050231934,-1268690011,1,-1.2127645015716553,1.3796173334121704,0.1300067901611328,-147.3388671875,7.6904296875,-84.28955078125
1.9391429424285889,-1268689990,0,1.7603636980056763,0.8168300986289978,0.0404646173119545,71.8994140625,215.576171875,447.509765625
1.9420769214630127,-1268689992,1,-1.1802937984466553,1.4587188959121704,0.2142353057861328,-206.97021484375,-12.26806640625,-46.142578125
1.9420838356018066,-1268689973,1,-1.1109578609466553,1.9665313959121704,0.3985614776611328,-255.31005859375,-45.34912109375,-10.68115234375
1.962306022644043,-1268689971,0,1.6365844011306763,0.8163418173789978,-0.1008928045630455,131.103515625,228.94287109375,387.3291015625
1.9623408317565918,-1268689952,0,1.7049437761306763,0.7467617392539978,-0.5545060634613037,196.4111328125,178.64990234375,280.57861328125
1.969407081604004,-1268689954,1,-0.4588581919670105,-0.2805388867855072,1.2244892120361328,-83.740234375,-127.685546875,-102.35595703125
1.9922099113464355,-1268689933,0,1.9190551042556763,0.9066738486289978,-0.2905900776386261,154.96826171875,75.927734375,122.6806640625
2.0027120113372803,-1268689935,1,-0.1788288950920105,1.8681427240371704,0.7511005401611328,25.57373046875,50.78125,-86.5478515625
2.022094964981079,-1268689897,0,1.9954711198806763,0.4467129409313202,-0.6511857509613037,127.13623046875,42.29736328125,-100.9521484375
2.03852915763855,-1268689899,1,-1.1343953609466553,1.5500274896621704,0.7691669464111328,-6.34765625,60.11962890625,-36.07177734375
2.0522170066833496,-1268689878,0,1.7623168230056763,0.5253261923789978,-0.7500627040863037,130.7373046875,29.6630859375,-132.8125
2.0523500442504883,-1268689859,0,1.5157347917556763,0.5599941611289978,-0.7666642665863037,86.5478515625,10.07080078125,-155.33447265625
2.0597140789031982,-1268689880,1,-0.8773152232170105,1.5124298334121704,0.6102313995361328,-64.697265625,-12.02392578125,-2.25830078125
2.0598669052124023,-1268689861,1,-0.8792683482170105,1.3156524896621704,0.5948505401611328,-82.09228515625,-6.53076171875,34.66796875
2.089500904083252,-1268689840,0,1.3582640886306763,0.3165859878063202,-0.5220353603363037,31.25,-49.49951171875,-227.11181640625
2.0921008586883545,-1268689842,1,-0.7393757700920105,1.1318145990371704,0.7157001495361328,-48.03466796875,5.2490234375,72.265625
2.0921101570129395,-1268689823,1,-0.7069050669670105,0.8339630961418152,0.6773700714111328,-5.18798828125,25.634765625,73.42529296875
2.112617015838623,-1268689821,0,1.1028929948806763,0.035580117255449295,-0.3443010151386261,11.16943359375,-152.28271484375,-287.59765625
2.112685203552246,-1268689802,0,1.0406371355056763,-0.087710902094841,-0.1775529682636261,27.9541015625,-203.30810546875,-311.8896484375
2.119441032409668,-1268689804,1,-0.6925007700920105,0.7494904398918152,0.6136493682861328,41.015625,23.13232421875,73.8525390625
2.1428191661834717,-1268689783,0,0.6590452790260315,0.169613316655159,-0.1504533588886261,29.96826171875,-273.5595703125,-350.9521484375
2.149665117263794,-1268689785,1,-0.7777058482170105,0.6891877055168152,0.6722431182861328,70.25146484375,0.54931640625,75.0732421875
2.1497609615325928,-1268689766,1,-0.7342488169670105,0.7670685648918152,0.7047138214111328,95.76416015625,-51.7578125,92.10205078125
2.17556095123291,-1268689764,0,0.3965941369533539,0.073666051030159,-0.1128556951880455,8.056640625,-377.9296875,-403.4423828125
2.175570011138916,-1268689745,0,0.09971912205219269,0.056820351630449295,-0.2427385151386261,23.62060546875,-489.92919921875,-417.54150390625
2.19010591506958,-1268689747,1,-0.7891804575920105,0.5685822367668152,0.9932880401611328,137.20703125,-109.92431640625,108.642578125
2.2022788524627686,-1268689726,0,-0.2645386755466461,-0.121890589594841,-0.1707170307636261,49.31640625,-580.078125,-357.2998046875
2.2024240493774414,-1268689707,0,-0.1666382998228073,-0.133853480219841,-0.1433732807636261,89.66064453125,-670.47119140625,-261.16943359375
2.209557056427002,-1268689728,1,-0.055293742567300797,1.1808868646621704,-0.1453838348388672,51.33056640625,-116.5771484375,56.33544921875
2.2096362113952637,-1268689709,1,-0.4495808482170105,0.2619415819644928,0.5357685089111328,-20.44677734375,-108.33740234375,47.9736328125
2.2402701377868652,-1268689688,0,0.2200804501771927,0.101986363530159,-0.2019670307636261,83.43505859375,-676.6357421875,-244.44580078125
2.24277400970459,-1268689690,1,-0.1954304575920105,0.1205841600894928,0.3446063995361328,104.736328125,-84.228515625,37.353515625
2.2427799701690674,-1268689671,1,-0.1280476450920105,0.2148224413394928,0.2772235870361328,193.17626953125,-21.728515625,28.99169921875
2.26224684715271,-1268689669,0,0.4969359338283539,0.157406285405159,-0.1057756170630455,21.54541015625,-578.67431640625,-204.7119140625
2.2921979427337646,-1268689633,0,0.5267210602760315,0.177425816655159,0.2614118754863739,-7.50732421875,-352.5390625,-51.025390625
2.3001630306243896,-1268689635,1,-0.3297078013420105,0.3769318163394928,0.3116474151611328,236.02294921875,-8.1787109375,-30.94482421875
2.3003029823303223,-1268689616,1,-0.3875691294670105,0.4980255663394928,0.1729755401611328,182.12890625,-56.640625,-60.302734375
2.322636127471924,-1268689614,0,0.3240843713283539,0.221615269780159,0.3668806254863739,-31.67724609375,-258.36181640625,87.95166015625
2.3227479457855225,-1268689595,0,0.3404417932033539,0.225277379155159,0.4684431254863739,-46.9970703125,-216.9189453125,180.908203125
2.337756872177124,-1268689597,1,-0.3792683482170105,0.5500275492668152,0.04236031323671341,91.36962890625,-115.6005859375,-84.47265625
2.3522469997406006,-1268689576,0,0.4131956994533539,0.237728551030159,0.6473982334136963,-44.61669921875,-187.98828125,191.40625
2.3523731231689453,-1268689557,0,0.3558226525783539,0.2560391128063202,0.9147322177886963,-25.87890625,-173.583984375,155.70068359375
2.359550952911377,-1268689578,1,-0.3306843638420105,0.5248810648918152,-0.07604788988828659,36.7431640625,-147.76611328125,-99.12109375
2.3596620559692383,-1268689559,1,-0.3323933482170105,0.4867950975894928,-0.1856670379638672,5.2490234375,-151.55029296875,-115.41748046875
2.389117956161499,-1268689538,0,0.3743773400783539,0.3412441909313202,0.8275740146636963,-7.14111328125,-157.89794921875,90.88134765625
2.3922200202941895,-1268689540,1,-0.3924519419670105,0.5390412211418152,-0.1822490692138672,8.23974609375,-139.2822265625,-124.0234375
2.392228126525879,-1268689521,1,-0.4786335825920105,0.5746857523918152,-0.1387920379638672,22.39990234375,-106.50634765625,-136.16943359375
2.412365198135376,-1268689519,0,0.3804808557033539,0.6154140830039978,0.6217634677886963,-19.53125,-148.13232421875,89.599609375
2.412490129470825,-1268689500,0,0.5296507477760315,0.8810390830039978,0.4784528911113739,-50.23193359375,-148.3154296875,161.68212890625
2.419466972351074,-1268689502,1,-0.6666218638420105,0.6493927836418152,-0.08410453051328659,35.400390625,-78.55224609375,-132.2021484375
2.4431869983673096,-1268689481,0,0.8602171540260315,1.0223965644836426,0.3192732036113739,-70.4345703125,-143.00537109375,218.8720703125
2.4496560096740723,-1268689483,1,-0.7896687388420105,0.7306916117668152,-0.08898734301328659,49.4384765625,-48.828125,-123.53515625
2.449737071990967,-1268689464,1,-0.9156453013420105,0.8056427836418152,-0.02990531176328659,51.7578125,-35.58349609375,-120.54443359375
2.472311019897461,-1268689462,0,1.0818969011306763,0.8456386923789978,0.0499861016869545,-55.35888671875,-71.1669921875,231.689453125
2.47247314453125,-1268689443,0,1.1583129167556763,0.8661465048789978,-0.3093889057636261,19.6533203125,-21.6064453125,255.92041015625
2.489258050918579,-1268689445,1,-0.9725300669670105,0.8178498148918152,0.02942086011171341,24.658203125,-42.78564453125,-119.140625
2.5023109912872314,-1268689424,0,1.5101195573806763,1.2133145332336426,-0.5469377040863037,127.685546875,12.5732421875,311.767578125
2.502387046813965,-1268689405,0,1.9268676042556763,1.6193203926086426,-0.4954240620136261,188.3544921875,80.4443359375,370.17822265625
2.5095739364624023,-1268689426,1,-0.9293171763420105,0.8080841898918152,0.02942086011171341,18.4326171875,-38.02490234375,-107.97119140625
2.5096490383148193,-1268689407,1,-0.9197956919670105,0.8461701273918152,0.02649117261171341,8.9111328125,-13.48876953125,-74.70703125
2.5431571006774902,-1268689371,1,-0.9996296763420105,0.4316193163394928,0.3692646026611328,5.2490234375,27.4658203125,-40.8935546875
2.5647408962249756,-1268689369,0,2.6746702194213867,2.1752285957336426,-0.7742326259613037,147.4609375,165.58837890625,414.306640625
2.564750909805298,-1268689350,0,2.7112913131713867,1.8932461738586426,-0.8081681728363037,168.27392578125,229.18701171875,227.9052734375
2.569530963897705,-1268689352,1,-0.9468953013420105,0.3744904100894928,0.3758563995361328,31.43310546875,17.333984375,-50.1708984375
2.5920870304107666,-1268689331,0,2.8521604537963867,1.8246426582336426,-0.8687150478363037,190.4296875,273.13232421875,3.96728515625
2.600053071975708,-1268689333,1,-0.8111531138420105,0.4279572069644928,0.2628192901611328,35.2783203125,12.939453125,-53.5888671875
2.600170135498047,-1268689314,1,-0.7266804575920105,0.3632599413394928,0.2032489776611328,25.5126953125,21.17919921875,-48.40087890625
2.6223230361938477,-1268689312,0,2.9275999069213867,2.0409512519836426,-0.9868791103363037,164.36767578125,339.05029296875,-122.86376953125
2.6224119663238525,-1268689293,0,2.7703733444213867,1.8756680488586426,-1.0264298915863037,108.09326171875,396.54541015625,-137.51220703125
2.6383612155914307,-1268689295,1,-0.6790730357170105,0.3080841600894928,0.12097359448671341,6.103515625,42.66357421875,-53.5888671875
2.6527440547943115,-1268689274,0,2.5167112350463867,1.5238614082336426,-1.2168595790863037,49.9267578125,463.31787109375,-121.4599609375
2.6529109477996826,-1268689255,0,2.2405881881713867,1.2677578926086426,-1.4072892665863037,32.89794921875,508.11767578125,-139.892578125
2.659698009490967,-1268689276,1,-0.7401081919670105,0.2570587694644928,0.10510445386171341,-6.4697265625,65.24658203125,-59.4482421875
2.6598050594329834,-1268689257,1,-0.8621785044670105,0.2253204882144928,0.1261005401611328,-12.6953125,84.89990234375,-69.580078125
2.6893680095672607,-1268689236,0,2.1302366256713867,1.3309903144836426,-1.4387834072113037,31.73828125,525.93994140625,-174.37744140625
2.691926956176758,-1268689238,1,-1.0960652828216553,0.3263947069644928,0.07141304761171341,-14.95361328125,101.1962890625,-81.72607421875
2.7123849391937256,-1268689217,0,2.2195920944213867,1.6691250801086426,-1.6030900478363037,1.220703125,548.828125,-212.58544921875
2.7125439643859863,-1268689198,0,2.2552366256713867,1.5609707832336426,-1.6121232509613037,-52.79541015625,566.2841796875,-236.9384765625
2.719660997390747,-1268689219,1,-1.1854207515716553,0.8110138773918152,-0.03967093676328659,-54.5654296875,130.0048828125,-72.32666015625
2.7197489738464355,-1268689200,1,-1.5814168453216553,0.8061310648918152,-0.1910381317138672,-97.2900390625,154.541015625,-46.93603515625
2.742457151412964,-1268689179,0,2.2994260787963867,1.3483242988586426,-1.7554337978363037,-78.43017578125,573.974609375,-236.9384765625
2.749727964401245,-1268689181,1,-1.2410848140716553,0.5112091898918152,-0.10534476488828659,-88.5009765625,171.142578125,-62.5
2.749830961227417,-1268689162,1,-1.3326375484466553,0.9496857523918152,-0.2076396942138672,-67.56591796875,214.78271484375,-20.5078125
2.772716999053955,-1268689160,0,2.0320920944213867,1.1925625801086426,-1.6926896572113037,-87.21923828125,597.5341796875,-230.8349609375
2.772825002670288,-1268689141,0,1.7462035417556763,0.9305996298789978,-1.6331193447113037,-110.77880859375,601.07421875,-191.95556640625
2.789806842803955,-1268689143,1,-0.7803913950920105,0.3976837694644928,-0.4544658660888672,-82.1533203125,242.37060546875,-80.322265625
2.8021349906921387,-1268689105,0,1.1321898698806763,0.3959316909313202,-1.2295548915863037,-88.2568359375,582.6416015625,-231.62841796875
2.809535026550293,-1268689107,1,-1.8892781734466553,0.7446076273918152,-0.5767803192138672,-33.38623046875,395.3857421875,-36.92626953125
2.8404579162597656,-1268689086,0,0.7269163727760315,0.4728359878063202,-1.0235002040863037,-44.86083984375,548.4619140625,-265.13671875
2.843865156173706,-1268689088,1,-1.7791707515716553,0.8271271586418152,-0.5799541473388672,-133.85009765625,310.11962890625,-60.1806640625
2.862233877182007,-1268689067,0,0.4490843713283539,0.5346035361289978,-0.7866837978363037,-42.54150390625,437.255859375,-268.37158203125
2.8915860652923584,-1268689048,0,0.3582640588283539,0.5050625205039978,-0.5532853603363037,-63.5986328125,401.91650390625,-275.5126953125
2.892298936843872,-1268689029,0,0.3592406213283539,0.4552578628063202,-0.4505021870136261,-81.11572265625,352.84423828125,-226.62353515625
2.9001169204711914,-1268689069,1,-1.5342977046966553,0.5859162211418152,-0.4991436004638672,-174.072265625,283.99658203125,-34.5458984375
2.9002749919891357,-1268689050,1,-1.3453328609466553,0.5419709086418152,-0.4146709442138672,-133.72802734375,318.4814453125,4.638671875
2.900315999984741,-1268689031,1,-1.2286336421966553,0.6442658305168152,-0.4879131317138672,-118.0419921875,357.97119140625,17.02880859375
2.901059865951538,-1268689012,1,-1.2518270015716553,0.6650177836418152,-0.5567607879638672,-158.5693359375,381.591796875,9.6435546875
2.9222569465637207,-1268689010,0,0.2642699182033539,0.3302578628063202,-0.2769182026386261,-84.16748046875,319.4580078125,-161.80419921875
2.922358989715576,-1268688991,0,0.1529417783021927,0.249935582280159,-0.2522599995136261,-69.03076171875,281.8603515625,-109.7412109375
2.93835186958313,-1268688993,1,-1.2835652828216553,0.5375763773918152,-0.5396709442138672,-207.58056640625,398.8037109375,7.26318359375
2.9543700218200684,-1268688972,0,0.11339099705219269,0.2848477065563202,-0.1834123432636261,-42.90771484375,266.90673828125,-63.65966796875
2.95971417427063,-1268688974,1,-1.4571492671966553,0.4723908007144928,-0.2886943817138672,-245.849609375,362.1826171875,40.71044921875
2.9598631858825684,-1268688955,1,-1.3426473140716553,0.3190704882144928,-0.1539287567138672,-245.7275390625,331.60400390625,66.0400390625
2.99092698097229,-1268688953,0,0.11070545017719269,0.2936367690563202,-0.0435197576880455,-26.67236328125,259.765625,-15.2587890625
2.990934133529663,-1268688934,0,0.1717406064271927,0.212093785405159,0.0919782891869545,-19.95849609375,269.83642578125,10.55908203125
2.992640972137451,-1268688936,1,-0.9000203013420105,0.2433868944644928,0.02697945386171341,-212.890625,330.13916015625,91.85791015625
3.0125350952148438,-1268688915,0,0.2108031064271927,0.169613316655159,0.2282087504863739,-13.3056640625,292.6025390625,18.00537109375
3.012615919113159,-1268688896,0,0.1397581845521927,0.163998082280159,0.2716657817363739,-13.427734375,311.82861328125,23.37646484375
3.019602060317993,-1268688917,1,-0.8987995982170105,0.4238068163394928,0.4058856964111328,-191.2841796875,324.8291015625,101.98974609375
3.0197200775146484,-1268688898,1,-0.3350788950920105,0.0754181444644928,0.10583687573671341,-172.91259765625,393.73779296875,109.68017578125
3.0447471141815186,-1268688877,0,-0.2777222692966461,-0.101382777094841,0.2289411723613739,-11.5966796875,305.17578125,71.22802734375
3.049808979034424,-1268688879,1,-1.1253621578216553,0.1806427538394928,1.1898212432861328,-107.177734375,348.93798828125,123.84033203125
3.0724430084228516,-1268688841,0,-0.06702892482280731,-0.049624960869550705,0.2243025004863739,65.12451171875,213.37890625,154.96826171875
3.0881669521331787,-1268688843,1,0.1041300892829895,0.2280060350894928,0.3604755401611328,-162.65869140625,144.59228515625,103.3935546875
3.102160930633545,-1268688822,0,0.08555896580219269,-0.076480433344841,0.3480817973613739,82.1533203125,212.95166015625,133.23974609375
3.1096110343933105,-1268688824,1,0.3424113392829895,0.0937286913394928,0.0006122663617134094,-180.419921875,192.68798828125,89.111328125
3.1097800731658936,-1268688805,1,0.1470988392829895,-0.0832732617855072,0.12170601636171341,-181.396484375,239.68505859375,93.68896484375
3.141875982284546,-1268688803,0,0.013293344527482986,-0.207583948969841,0.2694685161113739,79.7119140625,197.20458984375,133.30078125
3.1418850421905518,-1268688784,0,0.017687875777482986,-0.2776522934436798,0.0685407891869545,105.95703125,175.84228515625,130.18798828125
3.1444640159606934,-1268688786,1,0.2371867299079895,-0.2270720899105072,0.2684345245361328,-159.48486328125,275.57373046875,69.51904296875
3.162266969680786,-1268688765,0,0.1915159970521927,-0.2769198715686798,-0.1284807026386261,126.28173828125,158.50830078125,139.95361328125
3.162405014038086,-1268688746,0,0.4129515588283539,-0.3013339340686798,-0.3418596088886261,145.69091796875,153.50341796875,168.212890625
3.1700429916381836,-1268688767,1,0.1932414174079895,-0.1758025586605072,0.4278583526611328,-135.25390625,299.1943359375,34.36279296875
3.170147180557251,-1268688748,1,0.022098835557699203,-0.005636539310216904,0.5601825714111328,-98.57177734375,281.18896484375,-10.80322265625
3.1923861503601074,-1268688727,0,0.5445433259010315,-0.3081698715686798,-0.4878557026386261,170.166015625,165.0390625,199.0966796875
3.199598789215088,-1268688729,1,0.1165812611579895,0.1952911913394928,0.5150165557861328,-86.48681640625,234.0087890625,-70.3125
3.222398042678833,-1268688708,0,0.5301390290260315,-0.3162265121936798,-0.6345841884613037,198.8525390625,176.69677734375,228.82080078125
3.2225191593170166,-1268688689,0,0.5027952790260315,-0.2866854965686798,-0.8467423915863037,233.09326171875,180.17578125,240.478515625
3.2376229763031006,-1268688710,1,0.1131632924079895,0.3361603319644928,0.4884052276611328,-96.5576171875,210.87646484375,-150.146484375
3.2376298904418945,-1268688691,1,-0.013301555067300797,0.5456330180168152,0.5162372589111328,-127.99072265625,191.5283203125,-228.94287109375
3.25211501121521,-1268688670,0,0.6937132477760315,-0.135562464594841,-1.1255509853363037,254.82177734375,194.82421875,255.55419921875
3.2597320079803467,-1268688672,1,-0.1758992075920105,0.6911408305168152,0.5587177276611328,-189.8193359375,150.390625,-321.47216796875
3.2598750591278076,-1268688653,1,-0.2259480357170105,0.7624298930168152,0.4742450714111328,-261.53564453125,99.4873046875,-401.4892578125
3.2891440391540527,-1268688651,0,0.8438597321510315,0.088558629155159,-1.5327775478363037,248.47412109375,209.9609375,283.3251953125
3.2891509532928467,-1268688632,0,0.8143187165260315,0.5873379111289978,-1.9964005947113037,216.1865234375,214.90478515625,337.7685546875
3.2912709712982178,-1268688634,1,-0.3963581919670105,0.6574494242668152,0.4307880401611328,-328.30810546875,85.3271484375,-494.81201171875
3.3122189044952393,-1268688613,0,0.8426390290260315,0.9108242392539978,-2.1480119228363037,158.75244140625,195.9228515625,364.31884765625
3.319516897201538,-1268688615,1,-0.8333699107170105,0.5690705180168152,0.5679950714111328,-363.037109375,85.26611328125,-541.68701171875
3.3447070121765137,-1268688577,0,1.4280883073806763,1.4115567207336426,-2.1343400478363037,38.63525390625,101.13525390625,305.0537109375
3.349889039993286,-1268688579,1,-2.1092488765716553,0.8617951273918152,1.4844989776611328,-211.73095703125,58.10546875,-508.23974609375
3.3727669715881348,-1268688558,0,1.6898070573806763,1.8243985176086426,-1.9441545009613037,-23.92578125,56.15234375,233.82568359375
3.3743739128112793,-1268688539,0,1.9442015886306763,1.7684903144836426,-1.6848771572113037,-86.669921875,42.29736328125,185.97412109375
3.3874499797821045,-1268688560,1,-2.4071004390716553,1.7133575677871704,1.5115985870361328,-70.49560546875,-34.66796875,-299.37744140625
3.3874571323394775,-1268688541,1,-2.1158406734466553,1.5678497552871704,1.1827411651611328,-41.32080078125,-60.546875,-82.82470703125
3.4022059440612793,-1268688520,0,1.7669554948806763,1.6310391426086426,-1.3018205165863037,-125.48828125,37.59765625,141.54052734375
3.44124698638916,-1268688501,0,1.4627562761306763,1.5155606269836426,-0.9544084072113037,-133.11767578125,-20.99609375,87.21923828125
3.4420900344848633,-1268688482,0,1.3712035417556763,1.2157559394836426,-0.6074845790863037,-121.64306640625,-71.1669921875,30.8837890625
3.4444658756256104,-1268688522,1,-1.8201863765716553,1.1335235834121704,1.1007099151611328,-8.36181640625,-28.50341796875,0.6103515625
3.444472074508667,-1268688503,1,-1.5792195796966553,1.0468536615371704,1.1488056182861328,44.37255859375,-41.80908203125,23.86474609375
3.444476842880249,-1268688484,1,-1.4361531734466553,1.0429474115371704,1.0225849151611328,85.9375,-73.2421875,65.49072265625
3.462477207183838,-1268688463,0,1.3587523698806763,1.1639981269836426,-0.5081193447113037,-116.02783203125,-129.8828125,-13.12255859375
3.4725451469421387,-1268688465,1,-1.0745809078216553,0.9382111430168152,0.8084735870361328,118.22509765625,-64.3310546875,136.41357421875
3.472555160522461,-1268688446,1,-0.9659382700920105,0.7082306742668152,0.6102313995361328,133.6669921875,-17.9443359375,182.4951171875
3.492508888244629,-1268688444,0,1.4315062761306763,0.8695644736289978,-0.3977678120136261,-118.0419921875,-151.7333984375,-46.81396484375
3.492516040802002,-1268688425,0,1.5289183855056763,1.0411953926086426,-0.4138810932636261,-120.60546875,-152.16064453125,-107.60498046875
3.4996039867401123,-1268688427,1,-0.9403035044670105,0.7155548930168152,0.7093524932861328,200.927734375,20.751953125,236.63330078125
3.5223889350891113,-1268688406,0,1.5728636980056763,0.8092617392539978,-0.3748185932636261,-150.81787109375,-138.427734375,-148.0712890625
3.5225119590759277,-1268688387,0,1.2698851823806763,0.4108242690563202,-0.2632463276386261,-143.73779296875,-113.8916015625,-151.67236328125
3.538499116897583,-1268688408,1,-0.9639851450920105,0.7170197367668152,0.4322528839111328,242.5537109375,65.673828125,262.451171875
3.5385069847106934,-1268688389,1,-0.8065144419670105,0.7844025492668152,0.12487984448671341,188.04931640625,72.75390625,206.787109375
3.552164077758789,-1268688368,0,1.0308715105056763,0.4078945815563202,-0.3162248432636261,-133.1787109375,-125.67138671875,-120.361328125
3.560054063796997,-1268688370,1,-0.6180378794670105,0.5895783305168152,0.01013375073671341,65.85693359375,56.70166015625,178.8330078125
3.5600619316101074,-1268688351,1,-0.5225788950920105,0.2021271288394928,0.1522235870361328,30.1513671875,106.3232421875,204.2236328125
3.5899369716644287,-1268688349,0,1.0423461198806763,0.4264492690563202,-0.3035295307636261,-153.13720703125,-91.9189453125,-161.62109375
3.612661123275757,-1268688313,0,0.9044066071510315,0.4196133315563202,-0.5264298915863037,-196.83837890625,0.6103515625,-187.8662109375
3.619935989379883,-1268688315,1,-0.4564167857170105,-0.1025603711605072,0.6561298370361328,203.55224609375,147.4609375,118.2861328125
3.6200990676879883,-1268688296,1,-0.1656453013420105,-0.020773258060216904,0.5264911651611328,292.54150390625,192.68798828125,111.14501953125
3.6457748413085938,-1268688294,0,0.6575804352760315,0.151058629155159,-0.3684709370136261,-181.5185546875,102.4169921875,-186.8896484375
3.645785093307495,-1268688275,0,0.2322874814271927,-0.057925742119550705,-0.2195451557636261,-139.0380859375,141.7236328125,-168.02978515625
3.6498098373413086,-1268688277,1,-0.2073933482170105,0.4924103319644928,0.1837177276611328,272.27783203125,256.591796875,109.7412109375
3.672408103942871,-1268688256,0,0.10997302830219269,-0.096988245844841,-0.0964982733130455,-84.3505859375,158.26416015625,-160.33935546875
3.672473907470703,-1268688237,0,0.026232797652482986,-0.101382777094841,-0.0652482733130455,-37.65869140625,174.37744140625,-158.0810546875
3.68796706199646,-1268688258,1,-0.2701374888420105,0.3454376757144928,0.2906513214111328,191.10107421875,245.54443359375,96.435546875
3.687973976135254,-1268688239,1,-0.0008503831923007965,0.1481720507144928,0.2960224151611328,143.5546875,201.72119140625,40.8935546875
3.7021420001983643,-1268688218,0,-0.012585561722517014,-0.056216757744550705,-0.1589982807636261,-2.8076171875,186.82861328125,-138.0615234375
3.7100207805633545,-1268688220,1,0.1280558705329895,0.1835724413394928,0.3231220245361328,115.1123046875,192.87109375,0.06103515625
3.7101340293884277,-1268688201,1,0.2430461049079895,0.3344513475894928,0.2701435089111328,73.974609375,203.61328125,-1.89208984375
3.741645097732544,-1268688199,0,-0.12293712794780731,0.157406285405159,-0.3196428120136261,23.5595703125,208.984375,-84.04541015625
3.7416529655456543,-1268688180,0,-0.2618531286716461,0.4879727065563202,-0.5149552822113037,-13.18359375,196.96044921875,-2.0751953125
3.7441248893737793,-1268688182,1,0.3841593861579895,0.2465607225894928,0.3367938995361328,14.6484375,209.1064453125,-11.65771484375
3.762260913848877,-1268688161,0,-0.1925172060728073,0.218929722905159,-0.6441056728363037,-45.83740234375,181.7626953125,49.25537109375
3.7696478366851807,-1268688163,1,0.4493449330329895,0.1989533007144928,0.4425067901611328,-18.1884765625,208.19091796875,-20.6298828125
3.769761085510254,-1268688144,1,0.4156535267829895,0.2404572069644928,0.4744892120361328,-38.6962890625,210.02197265625,-22.15576171875
3.795792818069458,-1268688142,0,-0.3297242224216461,-0.043033163994550705,-0.2891252338886261,70.37353515625,170.10498046875,0.1220703125
3.7958011627197266,-1268688123,0,-0.2386597841978073,0.049740273505449295,-0.3164689838886261,165.83251953125,67.626953125,-41.80908203125
3.821408987045288,-1268688104,0,-0.07655040919780731,0.2897305190563202,-0.3594377338886261,216.49169921875,-0.9765625,-77.392578125
3.82230806350708,-1268688085,0,0.051135141402482986,0.4970059096813202,-0.5110490322113037,210.02197265625,-13.671875,-71.8994140625
3.8372859954833984,-1268688125,1,0.3316691517829895,0.2949005663394928,0.4466571807861328,-61.58447265625,204.52880859375,-50.4150390625
3.837294101715088,-1268688106,1,0.2305949330329895,0.4277130663394928,0.4481220245361328,-91.49169921875,195.4345703125,-70.98388671875
3.8373019695281982,-1268688087,1,0.0675089955329895,0.4672638475894928,0.4566669464111328,-141.17431640625,170.166015625,-99.18212890625
3.8586628437042236,-1268688051,1,-0.2359578013420105,0.4831329882144928,0.6187763214111328,-270.99609375,88.134765625,-262.939453125
3.888343095779419,-1268688049,0,0.1553831845521927,0.6622890830039978,-0.8560197353363037,106.01806640625,26.7333984375,65.0634765625
3.8883509635925293,-1268688030,0,0.2003050595521927,0.6434902548789978,-0.9641740322113037,63.29345703125,50.47607421875,141.05224609375
3.891218900680542,-1268688032,1,-0.5159870982170105,0.4960724413394928,0.9212665557861328,-328.857421875,64.63623046875,-419.61669921875
3.941437005996704,-1268688011,0,0.2632933557033539,0.5839199423789978,-1.0003068447113037,57.12890625,44.7998046875,146.8505859375
3.9427359104156494,-1268687992,0,0.2498656064271927,0.6339687705039978,-1.0379045009613037,78.7353515625,12.6953125,116.63818359375
3.9428439140319824,-1268687973,0,0.2781859338283539,0.8441738486289978,-1.1255509853363037,76.7822265625,-33.38623046875,102.6611328125
3.9499199390411377,-1268688013,1,-1.1053426265716553,0.3032013475894928,1.2269306182861328,-371.826171875,85.38818359375,-517.63916015625
3.9500138759613037,-1268687994,1,-2.2188680171966553,-0.1252654492855072,1.8536396026611328,-351.806640625,94.66552734375,-550.9033203125
3.9508259296417236,-1268687975,1,-3.5203816890716553,-0.0837615430355072,2.349489212036133,-215.2099609375,31.1279296875,-486.14501953125
3.972321033477783,-1268687954,0,0.4930296838283539,0.9428066611289978,-1.1438615322113037,38.39111328125,-91.064453125,70.61767578125
3.972411870956421,-1268687935,0,0.8611937165260315,0.6215175986289978,-1.0122697353363037,25.81787109375,-107.48291015625,45.34912109375
3.9882571697235107,-1268687956,1,-3.9437215328216553,0.3532501757144928,2.507692337036133,-86.181640625,-106.75048828125,-322.75390625
3.989123821258545,-1268687937,1,-3.9036824703216553,0.2104279100894928,2.398073196411133,-36.62109375,-206.72607421875,-190.673828125
4.002115964889526,-1268687916,0,0.9234495759010315,0.3825039565563202,-0.7048966884613037,73.05908203125,-81.54296875,33.14208984375
4.009472131729126,-1268687918,1,-3.7335164546966553,-0.1328338086605072,2.144899368286133,27.83203125,-324.27978515625,-139.0380859375
4.040585041046143,-1268687897,0,0.7632933259010315,0.4730801284313202,-0.6382462978363037,108.21533203125,-63.232421875,31.18896484375
4.040637969970703,-1268687878,0,0.4883910119533539,0.6051601767539978,-0.5479142665863037,90.4541015625,-88.8671875,19.6533203125
4.044529914855957,-1268687899,1,-3.3192098140716553,-0.3015349805355072,1.7274188995361328,61.58447265625,-437.255859375,-173.52294921875
4.04453706741333,-1268687880,1,-3.0355184078216553,-0.4153045117855072,1.2440204620361328,53.40576171875,-514.09912109375,-211.9140625
4.06230092048645,-1268687859,0,0.4820433557033539,0.2675137221813202,-0.4863908588886261,80.322265625,-140.2587890625,24.5361328125
4.069540977478027,-1268687861,1,-2.7889363765716553,-0.5276091694831848,1.0384540557861328,53.03955078125,-539.1845703125,-235.9619140625
4.0696210861206055,-1268687842,1,-2.7891805171966553,-0.6220915913581848,1.0184345245361328,74.70703125,-525.390625,-251.3427734375
4.094055891036987,-1268687840,0,0.4937621057033539,0.2570156753063202,-0.4714982807636261,102.6611328125,-159.7900390625,32.8369140625
4.094062805175781,-1268687821,0,0.6192503571510315,0.4264492690563202,-0.8897111415863037,88.0126953125,-169.43359375,62.43896484375
4.099497079849243,-1268687823,1,-2.7965047359466553,-0.5986540913581848,0.9991474151611328,121.2158203125,-531.18896484375,-255.43212890625
4.122036933898926,-1268687785,0,0.4686156213283539,0.8346523642539978,-1.2534806728363037,6.2255859375,-128.72314453125,111.14501953125
4.138890027999878,-1268687787,1,-2.6414754390716553,0.021707210689783096,0.6575946807861328,191.95556640625,-551.513671875,-220.8251953125
4.152163028717041,-1268687766,0,0.3577757775783539,-0.075015589594841,-1.4949357509613037,-144.4091796875,-95.0927734375,184.814453125
4.159545183181763,-1268687768,1,-2.2440145015716553,0.0785919725894928,0.2547626495361328,190.85693359375,-548.583984375,-194.82421875
4.189689874649048,-1268687747,0,-0.4005250036716461,-0.6431308388710022,-1.0891740322113037,-84.53369140625,-163.0859375,232.421875
4.189702033996582,-1268687728,0,-0.7418336272239685,0.2572598159313202,-1.3120744228363037,-30.82275390625,-305.7861328125,227.05078125
4.192046165466309,-1268687749,1,-1.9312703609466553,0.2023712694644928,-0.02599906176328659,176.3916015625,-525.20751953125,-202.63671875
4.192054986953735,-1268687730,1,-1.5435750484466553,0.2585236132144928,-0.2625713348388672,164.97802734375,-459.89990234375,-196.35009765625
4.212217807769775,-1268687709,0,0.09752185642719269,0.2785000503063202,-1.5095841884613037,-107.84912109375,-393.61572265625,190.673828125
4.219849109649658,-1268687711,1,-1.0428426265716553,0.2424103319644928,-0.4940166473388672,157.04345703125,-405.76171875,-188.8427734375
4.219920873641968,-1268687692,1,-0.5992390513420105,0.1970001757144928,-0.5274639129638672,143.5546875,-341.61376953125,-197.81494140625
4.242300033569336,-1268687690,0,0.6815062165260315,0.3251309096813202,-1.4373185634613037,-164.73388671875,-358.21533203125,223.5107421875
4.24236798286438,-1268687671,0,0.6863890290260315,0.4540371596813202,-1.2813127040863037,-196.4111328125,-290.46630859375,265.0146484375
4.25134015083313,-1268687673,1,-0.2818562388420105,0.1408478319644928,-0.4097881317138672,144.8974609375,-276.67236328125,-191.162109375
4.272506952285767,-1268687652,0,0.5452757477760315,0.4098477065563202,-0.9671037197113037,-224.06005859375,-271.97265625,281.8603515625
4.2883851528167725,-1268687654,1,-0.0850788950920105,0.040994320064783096,-0.03845023363828659,192.44384765625,-189.51416015625,-181.33544921875
4.288392066955566,-1268687635,1,-0.012324992567300797,0.052224788814783096,0.2301044464111328,265.0146484375,-127.3193359375,-189.208984375
4.302564859390259,-1268687633,0,0.4322386682033539,0.193783238530159,-0.6817033290863037,-222.71728515625,-292.236328125,264.6484375
4.302672863006592,-1268687614,0,0.4295531213283539,0.132015660405159,-0.4778459370136261,-186.03515625,-306.09130859375,262.63427734375
4.309611082077026,-1268687616,1,0.008182819932699203,0.2433868944644928,0.3221454620361328,297.18017578125,-111.75537109375,-190.5517578125
4.339792966842651,-1268687595,0,0.4366331994533539,0.239925816655159,-0.3479631245136261,-160.58349609375,-280.82275390625,282.5927734375
4.33980393409729,-1268687576,0,0.5970335602760315,0.223568394780159,-0.3384416401386261,-187.255859375,-228.69873046875,295.10498046875
4.342501878738403,-1268687597,1,0.0076945386826992035,0.4218536913394928,0.2628192901611328,277.77099609375,-115.78369140625,-202.45361328125
4.34250807762146,-1268687578,1,-0.0736042857170105,0.5632111430168152,0.12146187573671341,209.28955078125,-128.84521484375,-184.75341796875
4.36230993270874,-1268687557,0,1.5770140886306763,0.7943691611289978,-0.1065080389380455,-254.08935546875,-65.97900390625,288.818359375
4.369503021240234,-1268687559,1,0.1788371205329895,0.0883575975894928,-0.2054424285888672,173.828125,-82.21435546875,-201.59912109375
4.39286208152771,-1268687521,0,0.2298460751771927,0.197689488530159,0.4122907817363739,-215.33203125,-29.4189453125,182.67822265625
4.399748802185059,-1268687523,1,-0.1624714732170105,0.4074493944644928,0.06775093823671341,240.05126953125,-30.517578125,-167.48046875
4.425305128097534,-1268687502,0,0.3311644494533539,0.3082852065563202,0.4347517192363739,-142.08984375,-137.51220703125,74.462890625
4.440247058868408,-1268687504,1,-0.1456257700920105,0.6032502055168152,-0.06506156176328659,197.93701171875,-38.330078125,-150.20751953125
4.4402549266815186,-1268687485,1,-0.2972370982170105,0.4972931444644928,-0.01916312426328659,145.20263671875,-65.97900390625,-149.84130859375
4.452286958694458,-1268687483,0,0.2708617150783539,0.4100918471813202,0.4721052348613739,-94.66552734375,-199.21875,1.953125
4.452366828918457,-1268687464,0,0.2801390588283539,0.5228847861289978,0.3737165629863739,-91.97998046875,-198.91357421875,17.333984375
4.459587812423706,-1268687466,1,-0.3245808482170105,0.3810822069644928,0.08362007886171341,113.58642578125,-89.4775390625,-146.6064453125
4.489552974700928,-1268687445,0,0.3348265588283539,0.4681973159313202,0.3473493754863739,-109.619140625,-151.7333984375,83.67919921875
4.4895617961883545,-1268687426,0,0.11998279392719269,0.3937344253063202,0.3915388286113739,-128.2958984375,-103.57666015625,132.50732421875
4.491866827011108,-1268687447,1,-0.3497273325920105,0.4670197069644928,-0.04162406176328659,102.84423828125,-103.1494140625,-146.30126953125
4.491875171661377,-1268687428,1,-0.4354206919670105,0.5690705180168152,-0.1761455535888672,79.40673828125,-100.4638671875,-141.357421875
4.512206792831421,-1268687407,0,0.08311755955219269,0.4076504409313202,0.4335310161113739,-124.08447265625,-82.21435546875,157.2265625
4.519595146179199,-1268687409,1,-0.4529988169670105,0.3437286913394928,-0.1905498504638672,57.861328125,-70.1904296875,-132.14111328125
4.542407989501953,-1268687388,0,0.2779417932033539,0.4049648940563202,0.2941267192363739,-127.99072265625,-69.51904296875,171.69189453125
4.542508125305176,-1268687369,0,0.3953734338283539,0.4039883315563202,0.4794294536113739,-141.17431640625,-98.32763671875,163.26904296875
4.549754858016968,-1268687390,1,-0.5604206919670105,0.3837677538394928,-0.2650127410888672,70.556640625,-55.35888671875,-143.5546875
4.549897909164429,-1268687371,1,-0.5936238169670105,0.3324982225894928,-0.1878643035888672,47.30224609375,-54.3212890625,-164.4287109375
4.57253098487854,-1268687350,0,0.3592406213283539,0.4081387221813202,0.5082380771636963,-110.4736328125,-122.49755859375,177.67333984375
4.5881500244140625,-1268687352,1,-0.8719441294670105,0.4242950975894928,-0.02380179613828659,37.841796875,-75.37841796875,-178.40576171875
4.5881569385528564,-1268687333,1,-0.7274128794670105,0.2797638475894928,-0.00890921801328659,-4.0283203125,-124.45068359375,-206.4208984375
4.6023850440979,-1268687331,0,0.5628538727760315,0.4596523940563202,0.5004255771636963,-78.4912109375,-134.27734375,213.92822265625
4.602549076080322,-1268687312,0,0.8365355134010315,0.9938320517539978,0.4437849223613739,-79.16259765625,-39.1845703125,293.88427734375
4.609544992446899,-1268687314,1,-0.9544636607170105,0.3205353319644928,-0.02209281176328659,-19.53125,-129.7607421875,-222.10693359375
4.639657020568848,-1268687293,0,0.8575316071510315,0.8495449423789978,0.3656599223613739,-76.11083984375,6.34765625,408.14208984375
4.641834020614624,-1268687295,1,-1.1038777828216553,0.7407013773918152,-0.04430960863828659,-51.81884765625,-152.4658203125,-219.42138671875
4.662277936935425,-1268687257,0,1.2220336198806763,0.7941250205039978,0.2631208598613739,-69.03076171875,112.79296875,613.46435546875
4.66953182220459,-1268687259,1,-1.2701375484466553,1.4877716302871704,-0.3450908660888672,-173.095703125,-188.53759765625,-162.7197265625
4.693338871002197,-1268687238,0,1.2647582292556763,-0.193667933344841,0.7006208896636963,44.921875,91.796875,696.35009765625
4.69334602355957,-1268687219,0,3.5359983444213867,0.7765468955039978,0.1171247735619545,165.71044921875,141.2353515625,511.41357421875
4.700068235397339,-1268687240,1,-2.1290242671966553,2.13230299949646,-0.08361624926328659,-321.83837890625,-209.04541015625,-92.8955078125
4.7001118659973145,-1268687221,1,-1.1165730953216553,0.9474884867668152,-0.09826468676328659,-377.8076171875,-241.39404296875,-112.4267578125
4.722477197647095,-1268687200,0,2.7637815475463867,0.9804043173789978,0.1178571954369545,124.08447265625,176.57470703125,283.87451171875
4.740568161010742,-1268687202,1,-0.7320515513420105,0.7345978617668152,1.6253681182861328,-121.52099609375,-204.04052734375,-91.4306640625
4.7405760288238525,-1268687183,1,-0.2811238169670105,0.9584748148918152,0.8743915557861328,56.0302734375,-72.69287109375,-174.4384765625
4.752321004867554,-1268687181,0,2.3004026412963867,0.6925625205039978,0.0451032891869545,131.103515625,113.8916015625,31.55517578125
4.752424955368042,-1268687162,0,2.1016721725463867,0.6483730673789978,-0.2886369526386261,183.89892578125,38.818359375,-67.81005859375
4.759506940841675,-1268687164,1,-1.1910359859466553,2.11741042137146,0.5636005401611328,29.84619140625,98.5107421875,-34.0576171875
4.78996205329895,-1268687143,0,1.9393187761306763,1.0609707832336426,-0.5703752040863037,212.34130859375,23.98681640625,-149.169921875
4.79251503944397,-1268687145,1,-1.3360555171966553,1.7182403802871704,0.5992450714111328,-30.8837890625,15.80810546875,-4.57763671875
4.792521953582764,-1268687126,1,-1.0404012203216553,1.8154083490371704,0.1597919464111328,-87.7685546875,-41.32080078125,17.02880859375
4.813995122909546,-1268687124,0,1.6929808855056763,1.0468106269836426,-0.6128556728363037,143.798828125,22.76611328125,-200.01220703125
4.819690942764282,-1268687107,1,-0.9708210825920105,1.6725860834121704,0.2850360870361328,-136.53564453125,-16.2353515625,69.15283203125
4.842469930648804,-1268687105,0,1.5770140886306763,1.0272793769836426,-0.4822404682636261,49.31640625,-30.21240234375,-252.13623046875
4.842597961425781,-1268687086,0,1.6170531511306763,0.7340664267539978,-0.3079240620136261,2.0751953125,-85.9375,-311.34033203125
4.8437659740448,-1268687067,0,1.6229125261306763,0.5314297080039978,-0.0740373358130455,-15.5029296875,-142.08984375,-363.70849609375
4.849625110626221,-1268687088,1,-1.1070516109466553,1.1022735834121704,0.6722431182861328,-70.3125,51.08642578125,100.40283203125
4.849766969680786,-1268687069,1,-1.0447957515716553,0.9596955180168152,0.7069110870361328,83.19091796875,97.0458984375,135.009765625
4.872526168823242,-1268687048,0,1.3863402605056763,0.3185391128063202,0.0182478204369545,-14.83154296875,-199.8291015625,-400.45166015625
4.888430833816528,-1268687050,1,-1.1302449703216553,0.8427521586418152,0.6058368682861328,190.7958984375,130.859375,149.0478515625
4.888437986373901,-1268687031,1,-1.1180379390716553,1.0156036615371704,0.5252704620361328,214.05029296875,120.05615234375,182.80029296875
4.902551174163818,-1268687029,0,1.3111449480056763,0.219173863530159,0.2189314067363739,-8.6669921875,-235.77880859375,-440.00244140625
4.938579082489014,-1268686993,0,0.9088011384010315,0.155941441655159,0.1356794536113739,16.11328125,-335.693359375,-538.57421875
4.941764831542969,-1268686995,1,-0.8597370982170105,0.5759064555168152,0.7069110870361328,191.89453125,13.18359375,204.7119140625
4.941781997680664,-1268686976,1,-0.6412312388420105,0.2709747850894928,0.6910419464111328,180.7861328125,-42.6025390625,161.80419921875
4.993240118026733,-1268686974,0,0.6658812165260315,0.105160191655159,0.1356794536113739,3.7841796875,-365.78369140625,-536.56005859375
4.993279933929443,-1268686955,0,0.3199339807033539,-0.3049960434436798,0.1757185161113739,8.30078125,-386.41357421875,-484.43603515625
4.993288040161133,-1268686936,0,-0.10072033107280731,-0.3718905746936798,0.2431013286113739,40.283203125,-420.34912109375,-370.05615234375
4.994553089141846,-1268686917,0,-0.4129761755466461,-0.5574374794960022,0.2582380473613739,63.41552734375,-510.07080078125,-219.54345703125
4.999953985214233,-1268686957,1,-0.4908406138420105,0.0995880663394928,0.5919208526611328,192.19970703125,-82.09228515625,132.50732421875
5.0000669956207275,-1268686938,1,-0.2925984263420105,0.1093536913394928,0.2823505401611328,209.16748046875,-88.37890625,105.40771484375
5.000180006027222,-1268686919,1,-0.3138386607170105,0.1965118944644928,0.09045601636171341,191.89453125,-75.74462890625,83.55712890625
5.0388429164886475,-1268686900,1,-0.4036824107170105,0.3803497850894928,-0.07873343676328659,161.43798828125,-74.951171875,75.62255859375
5.041324138641357,-1268686881,1,-0.4551960825920105,0.4413849413394928,-0.2113018035888672,109.55810546875,-85.3271484375,71.47216796875
5.052677869796753,-1268686898,0,-0.3009156286716461,-0.5684238076210022,0.2206403911113739,81.72607421875,-586.181640625,-134.21630859375
5.052848815917969,-1268686879,0,0.12144763767719269,-0.5733066201210022,0.3961775004863739,123.291015625,-643.73779296875,-95.947265625
5.052947044372559,-1268686860,0,0.9244261384010315,-0.211490198969841,0.9013044834136963,263.671875,-566.7724609375,-221.13037109375
5.059513807296753,-1268686862,1,-0.3902546763420105,0.2592560350894928,-0.10119437426328659,91.12548828125,-84.716796875,64.208984375
5.0900328159332275,-1268686841,0,1.2769652605056763,0.036556679755449295,0.6334822177886963,258.30078125,-419.43359375,-203.4912109375
5.092221021652222,-1268686843,1,-0.3118855357170105,0.0795685350894928,0.03283882886171341,123.291015625,-82.21435546875,40.83251953125
5.09274697303772,-1268686824,1,-0.2276570200920105,0.0649200975894928,0.04797554761171341,157.71484375,-80.9326171875,-11.8408203125
5.112292051315308,-1268686822,0,0.8546019196510315,0.2597012221813202,0.9149763584136963,163.75732421875,-232.5439453125,116.5771484375
5.112430810928345,-1268686803,0,0.7996702790260315,0.162777379155159,1.1461775302886963,116.14990234375,-72.8759765625,256.16455078125
5.11965012550354,-1268686805,1,-0.2491413950920105,0.1130158007144928,0.00842476636171341,157.77587890625,-90.2099609375,-66.83349609375
5.142437934875488,-1268686784,0,0.7718382477760315,0.2909512221813202,1.0765974521636963,72.998046875,82.21435546875,343.07861328125
5.1425089836120605,-1268686765,0,0.6285277009010315,0.3756680190563202,0.9437849521636963,75.98876953125,92.10205078125,321.6552734375
5.1497039794921875,-1268686786,1,-0.3260456919670105,0.1716095507144928,-0.1673564910888672,133.4228515625,-104.8583984375,-98.93798828125
5.149748086929321,-1268686767,1,-0.3787800669670105,0.2140900194644928,-0.4158916473388672,105.16357421875,-113.46435546875,-114.92919921875
5.190060138702393,-1268686731,1,-0.2847859263420105,0.4081818163394928,-0.9815654754638672,4.82177734375,-93.81103515625,-145.5078125
5.203417062759399,-1268686729,0,0.9390745759010315,0.8453945517539978,0.4569685161113739,68.17626953125,66.40625,175.47607421875
5.203425168991089,-1268686710,0,1.1973754167556763,1.1925625801086426,0.3698103129863739,33.69140625,49.86572265625,151.7333984375
5.209660053253174,-1268686712,1,-0.3018757700920105,0.3354279100894928,-1.1453838348388672,-36.68212890625,-22.39990234375,-150.146484375
5.239204168319702,-1268686691,0,1.5604125261306763,1.4855313301086426,0.3151228129863739,-44.25048828125,34.0576171875,176.8798828125
5.241337060928345,-1268686693,1,-0.5347859263420105,0.1181427538394928,-1.1790752410888672,-36.4990234375,89.2333984375,-163.0859375
5.241343975067139,-1268686674,1,-0.8350788950920105,0.2133575975894928,-1.1292705535888672,22.0947265625,190.24658203125,-159.72900390625
5.262317180633545,-1268686672,0,1.9005004167556763,1.7174649238586426,-0.0401017889380455,-95.3369140625,61.03515625,132.14111328125
5.262488126754761,-1268686653,0,2.3394651412963867,1.9867520332336426,-0.6231095790863037,-18.12744140625,27.9541015625,124.6337890625
5.269538164138794,-1268686655,1,-0.9432331919670105,0.4850861132144928,-1.0787334442138672,35.82763671875,231.01806640625,-157.1044921875
5.295186996459961,-1268686634,0,3.0088987350463867,2.5541348457336426,-0.8801896572113037,124.51171875,152.34375,154.78515625
5.2951979637146,-1268686615,0,2.8795042037963867,3.2667813301086426,-0.4085099995136261,133.36181640625,326.0498046875,215.6982421875
5.299876928329468,-1268686636,1,-1.0286824703216553,0.6945587992668152,-0.8985576629638672,15.9912109375,266.90673828125,-140.9912109375
5.29997706413269,-1268686617,1,-1.2327840328216553,0.4621368944644928,-0.5296611785888672,4.45556640625,267.88330078125,-132.26318359375
5.322126865386963,-1268686596,0,2.7352170944213867,2.8182950019836426,-0.5086076259613037,54.62646484375,357.421875,165.1611328125
5.338606834411621,-1268686598,1,-1.4029500484466553,0.3949982225894928,-0.08386038988828659,82.275390625,241.2109375,-131.7138671875
5.352324962615967,-1268686577,0,2.6734495162963867,2.4249844551086426,-0.5110490322113037,47.119140625,385.07080078125,67.87109375
5.352406978607178,-1268686558,0,2.7798948287963867,2.3966641426086426,-0.4978654682636261,20.8740234375,389.70947265625,-64.453125
5.359779119491577,-1268686579,1,-1.5831258296966553,0.7333771586418152,0.10803414136171341,140.7470703125,189.51416015625,-119.873046875
5.359795093536377,-1268686560,1,-1.4996297359466553,0.8422638773918152,0.1649188995361328,122.98583984375,76.47705078125,-122.25341796875
5.392741918563843,-1268686539,0,2.9002561569213867,2.2333340644836426,-0.6851212978363037,-30.8837890625,424.74365234375,-119.32373046875
5.396025896072388,-1268686541,1,-1.1810262203216553,0.5593048930168152,0.09778023511171341,83.19091796875,-10.80322265625,-128.41796875
5.396085023880005,-1268686522,1,-0.8582722544670105,0.8749787211418152,-0.4696025848388672,57.373046875,-36.4990234375,-115.29541015625
5.412308931350708,-1268686520,0,2.8201780319213867,2.5944180488586426,-1.0642716884613037,-84.53369140625,486.51123046875,-121.7041015625
5.4124369621276855,-1268686501,0,2.5042600631713867,2.6224942207336426,-1.3267228603363037,-139.0380859375,510.3759765625,-134.3994140625
5.4195311069488525,-1268686503,1,-0.7916218638420105,0.2653595507144928,-0.4102764129638672,20.20263671875,-58.2275390625,-136.16943359375
5.442965984344482,-1268686465,0,1.3975707292556763,2.6815762519836426,-1.8027970790863037,-237.97607421875,525.0244140625,-179.5654296875
5.449799060821533,-1268686467,1,-0.7196003794670105,-0.037863101810216904,-0.4500713348388672,57.55615234375,-12.02392578125,-141.845703125
5.472833156585693,-1268686446,0,1.2269164323806763,2.5387539863586426,-1.6682755947113037,-258.97216796875,473.08349609375,-204.1015625
5.487900972366333,-1268686448,1,-0.8760945200920105,0.9780060648918152,-1.4964580535888672,31.18896484375,28.3203125,-161.80419921875
5.502411127090454,-1268686427,0,1.0269652605056763,2.2321133613586426,-1.5984513759613037,-282.28759765625,447.3876953125,-191.0400390625
5.5024919509887695,-1268686408,0,0.9546995759010315,1.7494473457336426,-1.4485490322113037,-288.2080078125,424.1943359375,-133.97216796875
5.50992488861084,-1268686429,1,-1.1187703609466553,0.2101837694644928,-1.1676006317138672,-81.9091796875,24.35302734375,-143.310546875
5.509945869445801,-1268686410,1,-0.6580769419670105,-0.1294158399105072,-1.4334697723388672,-76.59912109375,50.23193359375,-210.99853515625
5.53917121887207,-1268686389,0,0.5396605134010315,1.1708340644836426,-1.0181291103363037,-231.4453125,444.2138671875,-208.3740234375
5.541811943054199,-1268686391,1,-1.0350301265716553,0.4118439257144928,-1.6019268035888672,-107.72705078125,141.90673828125,-179.19921875
5.542254209518433,-1268686372,1,-1.1273152828216553,0.4609161913394928,-1.5484600067138672,-167.90771484375,157.04345703125,-159.0576171875
5.5624871253967285,-1268686370,0,0.1483031064271927,1.1522793769836426,-0.6494767665863037,-179.19921875,399.0478515625,-236.38916015625
5.562557935714722,-1268686351,0,0.045519907027482986,1.2391934394836426,-0.2583635151386261,-184.63134765625,297.42431640625,-223.44970703125
5.5694921016693115,-1268686353,1,-0.9969441294670105,0.2240997850894928,-1.6895732879638672,-236.02294921875,189.5751953125,-156.73828125
5.594663858413696,-1268686332,0,0.4014769494533539,1.0480313301086426,-0.1692521870136261,-194.091796875,233.154296875,-275.7568359375
5.5998311042785645,-1268686334,1,-0.9476277232170105,-0.1638396680355072,-1.4351787567138672,-233.154296875,245.2392578125,-141.66259765625
5.59991979598999,-1268686315,1,-1.0391805171966553,0.0864044725894928,-1.1558818817138672,-191.10107421875,274.2919921875,-125.1220703125
5.622276782989502,-1268686313,0,0.6800413727760315,0.9540371298789978,-0.0928361639380455,-182.43408203125,220.27587890625,-288.75732421875
5.622389078140259,-1268686294,0,0.7064085602760315,0.8402675986289978,-0.013734601438045502,-191.162109375,207.70263671875,-214.41650390625
5.638185977935791,-1268686296,1,-1.2318074703216553,0.5431916117668152,-1.1619853973388672,-229.30908203125,261.8408203125,-104.1259765625
5.652411937713623,-1268686275,0,0.7994261384010315,0.5880703330039978,-0.1314103901386261,-198.3642578125,187.5,-156.25
5.652536153793335,-1268686256,0,0.7505980134010315,0.3595547378063202,-0.1297014057636261,-188.17138671875,202.7587890625,-128.0517578125
5.660181045532227,-1268686277,1,-1.1883504390716553,0.5134064555168152,-1.0743389129638672,-321.77734375,248.4130859375,-67.5048828125
5.66030216217041,-1268686258,1,-1.1734578609466553,0.2162872850894928,-0.7196025848388672,-362.85400390625,246.826171875,-11.65771484375
5.692579030990601,-1268686237,0,0.7405882477760315,0.153744176030159,-0.1455705463886261,-156.982421875,226.13525390625,-101.318359375
5.69595193862915,-1268686239,1,-1.0225789546966553,-0.047872867435216904,-0.3416728973388672,-342.10205078125,246.09375,18.12744140625
5.714807033538818,-1268686201,0,0.8921995759010315,0.057552773505449295,-0.1028459295630455,-91.85791015625,302.06298828125,-17.333984375
5.719705104827881,-1268686203,1,-0.7247273325920105,0.017556820064783096,-0.03234671801328659,-203.4912109375,277.28271484375,42.724609375
5.742451906204224,-1268686182,0,0.8531370759010315,0.100521519780159,-0.015199445188045502,-83.31298828125,343.20068359375,83.06884765625
5.749872922897339,-1268686184,1,-0.7381550669670105,0.2375275194644928,-0.005735389888286591,-177.42919921875,273.01025390625,48.583984375
5.7499799728393555,-1268686165,1,-0.6927449107170105,0.4062286913394928,0.02185250073671341,-190.24658203125,234.375,50.84228515625
5.772829055786133,-1268686163,0,0.7364378571510315,0.012142617255449295,0.0028669610619544983,-96.3134765625,365.3564453125,187.744140625
5.772961139678955,-1268686144,0,0.4903441369533539,-0.023746054619550705,-0.0615861639380455,-99.12109375,380.79833984375,259.6435546875
5.788428068161011,-1268686146,1,-0.3577839732170105,0.3073517382144928,-0.1571025848388672,-222.83935546875,218.1396484375,52.55126953125
5.802338123321533,-1268686125,0,0.2535277307033539,0.016537148505449295,-0.1309221088886261,-98.388671875,383.544921875,304.38232421875
5.80249810218811,-1268686106,0,0.2100706845521927,0.016048867255449295,-0.2053849995136261,-92.28515625,391.90673828125,315.24658203125
5.809818983078003,-1268686127,1,-0.5201374888420105,0.2590118944644928,-0.01550101488828659,-199.70703125,253.5400390625,91.1865234375
5.809930086135864,-1268686108,1,-0.6495320200920105,0.2560822069644928,0.2474384307861328,-193.90869140625,218.32275390625,94.3603515625
5.839682102203369,-1268686087,0,0.1446409970521927,-0.061587851494550705,-0.1553361713886261,-91.1865234375,412.841796875,320.068359375
5.861412048339844,-1268686068,0,0.07823474705219269,-0.094790980219841,-0.2839982807636261,-89.9658203125,424.98779296875,315.4296875
5.862361192703247,-1268686049,0,0.06334216892719269,-0.103335902094841,-0.3797014057636261,-71.533203125,405.21240234375,327.2705078125
5.870052814483643,-1268686089,1,-0.6624714732170105,0.1115509569644928,0.2916278839111328,-190.7958984375,183.04443359375,100.2197265625
5.870229005813599,-1268686070,1,-0.057979289442300797,-0.1272185742855072,0.2747821807861328,-186.6455078125,105.224609375,65.673828125
5.870246887207031,-1268686051,1,-0.054561320692300797,-0.2080291211605072,0.1702899932861328,-179.87060546875,80.6884765625,11.41357421875
5.895255088806152,-1268686030,0,0.055041391402482986,-0.139224573969841,-0.5259416103363037,-46.20361328125,362.060546875,330.56640625
5.899930953979492,-1268686032,1,0.3651164174079895,-0.1845916211605072,0.1427021026611328,-191.2841796875,84.16748046875,-85.205078125
5.900038957595825,-1268686013,1,0.2215617299079895,-0.2387908399105072,0.2415790557861328,-201.904296875,129.08935546875,-128.60107421875
5.924048900604248,-1268686011,0,0.037463266402482986,-0.171695277094841,-0.6589982509613037,-8.6669921875,318.17626953125,313.232421875
5.936392068862915,-1268685992,0,-0.07142345607280731,-0.130191370844841,-0.9260880947113037,42.90771484375,240.72265625,312.43896484375
5.939257860183716,-1268685994,1,0.1612589955329895,-0.2368377149105072,0.4261493682861328,-180.72509765625,169.5556640625,-150.45166015625
5.952240943908691,-1268685973,0,0.08970935642719269,-0.017886679619550705,-0.9360978603363037,77.0263671875,158.75244140625,356.689453125
5.9597389698028564,-1268685975,1,0.1058390736579895,-0.1394256055355072,0.5189228057861328,-150.5126953125,176.94091796875,-168.64013671875
5.990947008132935,-1268685937,0,0.9090452790260315,0.2711758315563202,-1.0952775478363037,80.01708984375,98.14453125,417.8466796875
5.993345022201538,-1268685939,1,0.059940632432699203,0.2851349413394928,0.3699970245361328,-99.853515625,183.837890625,-231.99462890625
6.044456958770752,-1268685918,0,1.1963988542556763,0.4965176284313202,-1.2927873134613037,103.02734375,100.7080078125,454.1015625
6.044466972351074,-1268685899,0,1.3914672136306763,0.8222011923789978,-1.5752580165863037,121.826171875,87.7685546875,471.86279296875
6.044945955276489,-1268685880,0,1.4759398698806763,1.5485196113586426,-2.0081193447113037,141.66259765625,29.4189453125,433.41064453125
6.050148963928223,-1268685920,1,-0.1094929575920105,0.6127716898918152,0.4456806182861328,-137.8173828125,171.44775390625,-331.48193359375
6.050307989120483,-1268685901,1,-0.4825398325920105,0.7526642680168152,0.5186786651611328,-200.98876953125,132.568359375,-426.6357421875
6.050341844558716,-1268685882,1,-0.9512898325920105,0.9069611430168152,0.7554950714111328,-327.2705078125,31.55517578125,-579.58984375
6.05102276802063,-1268685863,1,-1.7408406734466553,0.7802521586418152,1.1602802276611328,-435.48583984375,-38.330078125,-689.02587890625
6.072711944580078,-1268685861,0,1.7376586198806763,2.3117032051086426,-1.8389298915863037,89.90478515625,-33.02001953125,363.1591796875
6.0867578983306885,-1268685842,0,2.0196409225463867,2.5368008613586426,-1.5474259853363037,-20.6298828125,-57.373046875,318.29833984375
6.08870005607605,-1268685844,1,-2.6046102046966553,0.7238556742668152,2.289430618286133,-358.82568359375,-49.49951171875,-614.2578125
6.10217809677124,-1268685823,0,2.0945920944213867,2.4972500801086426,-1.2185685634613037,-83.6181640625,-37.59765625,289.0625
6.1112940311431885,-1268685825,1,-2.6531941890716553,1.3195587396621704,2.245241165161133,-118.65234375,-49.31640625,-278.6865234375
6.111300945281982,-1268685806,1,-2.0618855953216553,0.8530060648918152,0.9151630401611328,-31.6162109375,49.13330078125,33.50830078125
6.13975191116333,-1268685804,0,1.7803832292556763,2.3676114082336426,-0.7615373134613037,-104.6142578125,-28.74755859375,222.16796875
6.139762878417969,-1268685785,0,1.5738402605056763,2.0656094551086426,-0.3972795307636261,-82.03125,-71.96044921875,122.4365234375
6.141740083694458,-1268685787,1,-1.9144246578216553,0.5026642680168152,1.6407489776611328,107.91015625,47.4853515625,10.55908203125
6.162319898605347,-1268685766,0,1.4070922136306763,1.7909512519836426,-0.1926896870136261,-51.3916015625,-98.0224609375,65.673828125
6.162441968917847,-1268685747,0,1.1717406511306763,1.5204434394836426,0.0211775079369545,-7.568359375,-139.2822265625,30.6396484375
6.169606924057007,-1268685768,1,-2.0777547359466553,1.0610138177871704,1.2183856964111328,164.97802734375,-80.50537109375,-17.822265625
6.1696860790252686,-1268685749,1,-1.6605184078216553,1.0500274896621704,0.7200946807861328,144.4091796875,-158.14208984375,13.7939453125
6.19213604927063,-1268685728,0,1.2940551042556763,1.4596524238586426,0.0526716485619545,16.90673828125,-188.17138671875,-5.4931640625
6.200066089630127,-1268685730,1,-1.0416219234466553,0.7206818461418152,0.2550067901611328,135.80322265625,-108.5205078125,79.4677734375
6.200178861618042,-1268685711,1,-1.1390340328216553,0.1286408007144928,0.3267841339111328,160.2783203125,-9.70458984375,127.25830078125
6.222180128097534,-1268685709,0,1.4024535417556763,1.0809903144836426,0.0626814141869545,12.51220703125,-185.302734375,-48.27880859375
6.251043081283569,-1268685673,0,1.3401976823806763,0.7787441611289978,-0.2571428120136261,-53.89404296875,-100.341796875,-131.2255859375
6.259766101837158,-1268685675,1,-0.9852253794670105,0.6640412211418152,-0.1578350067138672,269.1650390625,69.091796875,236.26708984375
6.25987696647644,-1268685656,1,-0.7017781138420105,0.5566193461418152,-0.3848857879638672,172.36328125,111.14501953125,183.65478515625
6.2907469272613525,-1268685654,0,0.9529905915260315,0.4755215346813202,-0.2771623432636261,-43.51806640625,-84.5947265625,-123.53515625
6.290755033493042,-1268685635,0,0.7642698884010315,0.3576016128063202,-0.4905412495136261,-15.44189453125,-118.5302734375,-114.6240234375
6.29243016242981,-1268685637,1,-0.6031453013420105,0.4792267382144928,-0.3231182098388672,55.7861328125,129.0283203125,144.83642578125
6.312343120574951,-1268685616,0,0.6392698884010315,0.6178554892539978,-0.5127580165863037,-52.06298828125,-103.1494140625,-196.47216796875
6.3124730587005615,-1268685597,0,0.5975218415260315,0.6278652548789978,-0.7193009853363037,-120.17822265625,-81.84814453125,-187.3779296875
6.319613933563232,-1268685618,1,-0.6675984263420105,0.056863460689783096,-0.04040335863828659,6.591796875,173.76708984375,170.71533203125
6.319705009460449,-1268685599,1,-0.5657917857170105,-0.4712127149105072,0.4749774932861328,82.3974609375,188.720703125,115.90576171875
6.344558954238892,-1268685578,0,0.5921507477760315,0.5690273642539978,-0.6419084072113037,-178.16162109375,-10.19287109375,-166.07666015625
6.350226879119873,-1268685580,1,-0.3743855357170105,0.2206818163394928,0.3997821807861328,204.28466796875,246.58203125,144.04296875
6.350374937057495,-1268685561,1,-0.2786824107170105,0.1327911913394928,0.1656513214111328,227.05078125,313.96484375,133.7890625
6.372315883636475,-1268685559,0,0.5157347321510315,0.186214879155159,-0.4483049213886261,-213.623046875,64.51416015625,-128.90625
6.372406005859375,-1268685540,0,0.1966429501771927,-0.043277304619550705,-0.2329728901386261,-158.5693359375,119.7509765625,-104.30908203125
6.388682126998901,-1268685542,1,-0.1624714732170105,0.2751251757144928,0.07116890698671341,193.603515625,316.83349609375,59.326171875
6.402119874954224,-1268685521,0,0.019641000777482986,-0.003726523369550705,-0.0610978826880455,-84.47265625,123.59619140625,-111.26708984375
6.4097559452056885,-1268685523,1,-0.062129680067300797,0.4057404100894928,0.1351337432861328,146.42333984375,296.0205078125,15.5029296875
6.409847021102905,-1268685504,1,0.0980265736579895,0.4758087694644928,0.2410907745361328,120.4833984375,278.74755859375,-3.90625
6.44001317024231,-1268685502,0,-0.0011109523475170135,0.097103551030159,-0.0952775701880455,-43.3349609375,108.45947265625,-118.896484375
6.440025091171265,-1268685483,0,0.1502562314271927,0.186947301030159,-0.1690080463886261,-19.287109375,115.78369140625,-101.4404296875
6.442231178283691,-1268685485,1,0.1993449330329895,0.5793244242668152,0.2984638214111328,71.47216796875,265.625,-6.9580078125
6.462391138076782,-1268685464,0,0.2859984338283539,0.225277379155159,-0.2520158588886261,-10.80322265625,170.7763671875,-68.84765625
6.462467908859253,-1268685445,0,0.1480589658021927,0.6180996298789978,-0.4661271870136261,-19.8974609375,213.8671875,-22.94921875
6.469690799713135,-1268685466,1,0.2413371205329895,0.5683380961418152,0.4134540557861328,25.5126953125,264.6484375,21.1181640625
6.469799995422363,-1268685447,1,0.3333781361579895,0.4921661913394928,0.4852313995361328,-30.94482421875,252.99072265625,44.7998046875
6.5010151863098145,-1268685411,1,0.1627238392829895,0.4196564257144928,0.4810810089111328,-98.93798828125,243.95751953125,-22.64404296875
6.522433042526245,-1268685409,0,-0.1905640810728073,0.085873082280159,-0.3164689838886261,-4.39453125,240.478515625,43.15185546875
6.5224950313568115,-1268685390,0,-0.2494019716978073,0.198421910405159,-0.3145158588886261,95.458984375,93.93310546875,-7.99560546875
6.53744101524353,-1268685392,1,0.025272663682699203,0.4470001757144928,0.5384540557861328,-129.0283203125,222.0458984375,-55.17578125
6.552191972732544,-1268685371,0,0.0037718601524829865,0.2770352065563202,-0.2615373432636261,164.36767578125,-21.54541015625,-62.255859375
6.5597169399261475,-1268685373,1,-0.0867878794670105,0.4465118944644928,0.5899677276611328,-156.43310546875,186.6455078125,-100.76904296875
6.5598320960998535,-1268685354,1,-0.1592976450920105,0.3974396288394928,0.6480731964111328,-184.4482421875,140.56396484375,-175.6591796875
6.590710163116455,-1268685352,0,0.2567015588283539,0.4537930190563202,-0.3501603901386261,197.75390625,-72.1435546875,-84.8388671875
6.590717077255249,-1268685333,0,0.4586058557033539,0.6737636923789978,-0.4754045307636261,177.734375,-47.42431640625,-57.92236328125
6.592437982559204,-1268685335,1,-0.2264363169670105,0.2861115038394928,0.7374286651611328,-218.994140625,100.76904296875,-306.33544921875
6.612668991088867,-1268685314,0,0.5389280915260315,0.8068203330039978,-0.6113908290863037,100.7080078125,24.90234375,32.8369140625
6.61273193359375,-1268685295,0,0.5540648102760315,0.8859218955039978,-0.8499162197113037,15.13671875,90.39306640625,118.1640625
6.61965799331665,-1268685316,1,-0.6321980357170105,0.2634064257144928,0.7637958526611328,-243.71337890625,85.8154296875,-433.837890625
6.619761943817139,-1268685297,1,-1.3612020015716553,-0.0857146680355072,0.8885517120361328,-305.2978515625,111.26708984375,-578.61328125
6.6430652141571045,-1268685276,0,0.4297972619533539,0.8139004111289978,-0.8936173915863037,-32.16552734375,116.27197265625,145.263671875
6.649724006652832,-1268685278,1,-2.4339559078216553,-0.6350310444831848,1.2857685089111328,-263.24462890625,157.28759765625,-647.15576171875
6.6740710735321045,-1268685257,0,0.4483519494533539,0.6928066611289978,-0.8477189540863037,-30.6396484375,105.04150390625,121.76513671875
6.67408299446106,-1268685238,0,0.4398070275783539,0.7601894736289978,-0.7337052822113037,9.82666015625,60.60791015625,92.10205078125
6.689388990402222,-1268685259,1,-4.243281841278076,-0.3281463086605072,1.9334735870361328,-68.359375,141.357421875,-590.33203125
6.690263986587524,-1268685240,1,-4.840205669403076,0.8337189555168152,2.251588821411133,29.296875,-50.10986328125,-362.48779296875
6.702198028564453,-1268685219,0,0.5499144196510315,0.8170742392539978,-0.5391252040863037,47.91259765625,-12.939453125,45.34912109375
6.709800958633423,-1268685221,1,-4.527461528778076,0.2785431444644928,1.8765888214111328,-44.921875,-208.55712890625,-136.474609375
6.7099621295928955,-1268685202,1,-4.338252544403076,-0.4314177930355072,1.7935810089111328,-32.2265625,-304.8095703125,-97.71728515625
6.740814924240112,-1268685200,0,0.7847777009010315,0.7387050986289978,-0.2842424213886261,82.6416015625,-78.67431640625,-5.18798828125
6.740828037261963,-1268685181,0,0.8128538727760315,1.1525235176086426,0.0409528985619545,109.19189453125,-87.158203125,-31.982421875
6.743454933166504,-1268685183,1,-3.8853719234466553,-0.7361052632331848,1.5950946807861328,73.2421875,-437.6220703125,-124.45068359375
6.762213945388794,-1268685145,0,0.4500609338283539,0.4406094253063202,-0.6028459072113037,-17.4560546875,-52.1240234375,80.01708984375
6.769835948944092,-1268685147,1,-3.5406453609466553,-0.8725798726081848,0.5272235870361328,153.564453125,-603.33251953125,-123.96240234375
6.792469024658203,-1268685126,0,0.1775999814271927,-0.2581210434436798,-0.2139299213886261,38.818359375,-75.439453125,51.513671875
6.799577236175537,-1268685128,1,-3.5399129390716553,-0.9538787007331848,0.4193134307861328,145.81298828125,-619.5068359375,-165.46630859375
6.82232403755188,-1268685107,0,-0.10218517482280731,-0.077701136469841,-0.3591935932636261,128.96728515625,-143.1884765625,57.06787109375
6.8224499225616455,-1268685088,0,0.023547250777482986,0.4996914565563202,-0.7981584072113037,114.8681640625,-195.12939453125,84.3505859375
6.838222980499268,-1268685109,1,-3.5811727046966553,-0.9270232319831848,0.4219989776611328,175.10986328125,-645.01953125,-206.60400390625
6.838230133056641,-1268685090,1,-3.5394246578216553,-0.8479216694831848,0.3687763214111328,202.7587890625,-652.34375,-221.19140625
6.852238893508911,-1268685069,0,0.4722777307033539,0.181087926030159,-0.9871232509613037,39.24560546875,-201.47705078125,128.96728515625
6.85998797416687,-1268685071,1,-3.3590047359466553,-0.5451872944831848,0.2257099151611328,245.42236328125,-641.29638671875,-201.0498046875
6.860089063644409,-1268685052,1,-2.9442098140716553,-0.3159392774105072,-0.0023174211382865906,252.50244140625,-623.4130859375,-178.3447265625
6.889575004577637,-1268685050,0,0.6053343415260315,0.2575039565563202,-0.9192521572113037,19.04296875,-140.0146484375,173.03466796875
6.8895838260650635,-1268685031,0,0.6160765290260315,0.5785488486289978,-1.3440568447113037,-71.71630859375,-107.11669921875,183.04443359375
6.891687870025635,-1268685033,1,-2.4058797359466553,-0.1946013867855072,-0.2413311004638672,227.9052734375,-592.7734375,-160.33935546875
6.912194013595581,-1268685012,0,0.3939085900783539,0.4025234878063202,-1.4092423915863037,-106.87255859375,-156.25,222.10693359375
6.919656991958618,-1268685014,1,-1.9842488765716553,-0.056173648685216904,-0.4737529754638672,191.650390625,-551.45263671875,-175.47607421875
6.919750928878784,-1268684995,1,-1.5242879390716553,0.0702911913394928,-0.6134014129638672,177.42919921875,-517.39501953125,-187.1337890625
6.944483041763306,-1268684993,0,0.2825804650783539,0.3659023940563202,-1.3430802822113037,-87.40234375,-246.2158203125,192.32177734375
6.944493055343628,-1268684974,0,0.3824339807033539,0.5648769736289978,-1.2879045009613037,-89.05029296875,-310.6689453125,147.64404296875
6.9498131275177,-1268684976,1,-1.0862996578216553,-0.061544742435216904,-0.5484600067138672,183.04443359375,-447.3876953125,-188.04931640625
6.972393035888672,-1268684955,0,0.5135374665260315,0.6757168173789978,-1.2808244228363037,-142.333984375,-328.4912109375,160.888671875
6.972507953643799,-1268684936,0,0.4954710900783539,0.6559414267539978,-1.2151505947113037,-197.265625,-321.47216796875,201.23291015625
6.991389036178589,-1268684957,1,-0.7547566294670105,0.004861507564783096,-0.4925518035888672,198.6083984375,-381.40869140625,-180.60302734375
6.991397857666016,-1268684938,1,-0.4593464732170105,0.2931915819644928,-0.4971904754638672,191.7724609375,-320.98388671875,-152.2216796875
7.002252101898193,-1268684917,0,0.4886351525783539,0.5712246298789978,-1.1604630947113037,-253.41796875,-310.791015625,246.03271484375
7.009571075439453,-1268684919,1,-0.3004109263420105,0.4921661913394928,-0.4290752410888672,158.02001953125,-268.310546875,-129.150390625
7.040342092514038,-1268684881,0,0.5618773102760315,0.3102383315563202,-0.8884904384613037,-259.70458984375,-253.84521484375,268.24951171875
7.0429909229278564,-1268684883,1,-0.050410930067300797,0.5095002055168152,-0.1795635223388672,73.8525390625,-185.72998046875,-108.2763671875
7.0920610427856445,-1268684862,0,0.5445433259010315,0.3326992690563202,-0.7793595790863037,-277.16064453125,-242.1875,232.5439453125
7.0928308963775635,-1268684843,0,0.6658812165260315,0.2921719253063202,-0.6314103603363037,-302.67333984375,-244.56787109375,160.94970703125
7.092975854873657,-1268684824,0,0.7847777009010315,0.2904629409313202,-0.5525529384613037,-313.29345703125,-249.3896484375,126.28173828125
7.099876165390015,-1268684864,1,0.019169148057699203,0.3549591600894928,-0.00793265551328659,76.5380859375,-151.2451171875,-104.736328125
7.100004196166992,-1268684845,1,0.1129191517829895,0.2641388475894928,0.06677437573671341,106.93359375,-124.8779296875,-97.16796875
7.100085020065308,-1268684826,1,0.1754191517829895,0.2306915819644928,0.09704781323671341,127.0751953125,-97.35107421875,-103.515625
7.122703790664673,-1268684805,0,1.7420531511306763,1.3414883613586426,0.2758161723613739,-350.7080078125,-214.7216796875,108.94775390625
7.122830152511597,-1268684786,0,1.3585082292556763,0.028255898505449295,-0.0161760076880455,-365.6005859375,-37.9638671875,87.82958984375
7.137650966644287,-1268684807,1,1.1441690921783447,-0.4843963086605072,-0.2840557098388672,180.23681640625,3.7841796875,-91.796875
7.137657880783081,-1268684788,1,0.3963664174079895,0.3979279100894928,-0.03063773363828659,120.4833984375,101.318359375,-186.82861328125
7.152141094207764,-1268684767,0,0.11436755955219269,-0.128726527094841,0.3158552348613739,-313.41552734375,-29.9072265625,51.08642578125
7.160153150558472,-1268684769,1,-0.4200398325920105,0.2328888475894928,0.3751239776611328,75.8056640625,72.81494140625,-120.54443359375
7.1899988651275635,-1268684748,0,0.11949451267719269,0.017025429755449295,0.4740583598613739,-253.41796875,-164.24560546875,-27.16064453125
7.190013885498047,-1268684729,0,-0.2474488466978073,0.006771523505449295,0.2875349223613739,-205.26123046875,-289.1845703125,-112.4267578125
7.192483186721802,-1268684750,1,-0.2757527232170105,-0.055197086185216904,0.3509540557861328,88.37890625,13.916015625,-124.1455078125
7.192539930343628,-1268684731,1,-0.4012410044670105,-0.0798552930355072,0.5084247589111328,139.46533203125,-52.24609375,-142.15087890625
7.212480068206787,-1268684710,0,-0.042614858597517014,0.041683632880449295,0.1998884379863739,-186.21826171875,-413.87939453125,-160.5224609375
7.219841003417969,-1268684712,1,-0.2344929575920105,0.1650177538394928,0.1458759307861328,160.2783203125,-75.439453125,-180.60302734375
7.219959020614624,-1268684693,1,-0.2276570200920105,0.2282501757144928,0.02575875073671341,66.71142578125,-57.7392578125,-234.375
7.244968891143799,-1268684691,0,0.6358519196510315,-0.069156214594841,0.1532575786113739,-192.19970703125,-369.32373046875,-69.580078125
7.244980096817017,-1268684672,0,0.5818968415260315,-0.165835902094841,0.6102888584136963,-145.20263671875,-267.822265625,10.43701171875
7.249962091445923,-1268684674,1,-0.6951863169670105,0.4875275194644928,0.1990985870361328,81.60400390625,-29.78515625,-210.693359375
7.272688865661621,-1268684653,0,0.3421507775783539,-0.2671542465686798,0.8148787021636963,-128.90625,-240.234375,97.22900390625
7.289700984954834,-1268684655,1,-0.7200886607170105,0.7568146586418152,0.06213570386171341,14.95361328125,-73.66943359375,-234.43603515625
7.302154064178467,-1268684617,0,0.7195921540260315,0.111019566655159,0.8983747959136963,-38.818359375,-226.4404296875,267.7001953125
7.309503078460693,-1268684619,1,-0.6580769419670105,0.6708771586418152,-0.2083721160888672,-120.9716796875,-94.7265625,-270.3857421875
7.340384006500244,-1268684598,0,1.0567504167556763,0.3898281753063202,0.9410994052886963,19.71435546875,-190.73486328125,341.36962890625
7.340394020080566,-1268684579,0,1.3646117448806763,0.7692226767539978,0.8312361240386963,37.59765625,-126.77001953125,410.7666015625
7.342924118041992,-1268684600,1,-0.8892781138420105,0.8617951273918152,-0.2501201629638672,-121.15478515625,-38.818359375,-277.89306640625
7.342931032180786,-1268684581,1,-1.3350789546966553,1.2184845209121704,0.01721382886171341,-97.0458984375,-3.5400390625,-231.201171875
7.362137794494629,-1268684560,0,1.3504515886306763,0.4767422378063202,0.9020369052886963,72.265625,-59.26513671875,524.71923828125
7.369799852371216,-1268684562,1,-1.6751668453216553,2.22165846824646,0.03918648511171341,-93.3837890625,-53.955078125,-159.7900390625
7.36989688873291,-1268684543,1,-1.1055867671966553,-0.2678435742855072,-0.04601859301328659,-132.26318359375,-104.91943359375,-120.1171875
7.398766040802002,-1268684524,1,-0.9671589732170105,1.8273712396621704,0.6395282745361328,78.0029296875,-12.63427734375,-150.20751953125
7.422370195388794,-1268684541,0,3.0411252975463867,2.1725430488586426,0.5687849521636963,72.998046875,115.3564453125,523.8037109375
7.42250394821167,-1268684522,0,1.8245726823806763,1.8070645332336426,0.6793806552886963,176.08642578125,165.283203125,369.44580078125
7.43689489364624,-1268684503,0,2.0955686569213867,1.2943692207336426,0.3900739848613739,171.08154296875,188.8427734375,279.296875
7.436906099319458,-1268684484,0,1.9332152605056763,1.2311367988586426,0.1078474298119545,199.52392578125,198.05908203125,164.48974609375
7.438786029815674,-1268684505,1,-1.3504598140716553,2.34348464012146,0.5194110870361328,59.9365234375,44.37255859375,-54.87060546875
7.438791990280151,-1268684486,1,-1.0499227046966553,2.14499831199646,0.2296161651611328,-48.88916015625,-48.2177734375,-66.34521484375
7.453284025192261,-1268684465,0,1.8021117448806763,1.1664395332336426,-0.1040666326880455,227.294921875,191.40625,87.09716796875
7.459628105163574,-1268684467,1,-0.7181355357170105,1.7619415521621704,0.06091500073671341,-110.595703125,-58.2275390625,-33.0810546875
7.4892308712005615,-1268684446,0,1.7176390886306763,1.1022305488586426,-0.2791154682636261,237.97607421875,175.10986328125,22.5830078125
7.4892401695251465,-1268684427,0,1.5508910417556763,0.9940761923789978,-0.3157365620136261,226.318359375,139.6484375,-46.44775390625
7.491380929946899,-1268684448,1,-0.6617390513420105,1.5546661615371704,0.01794625073671341,-124.20654296875,-41.32080078125,-10.55908203125
7.491389989852905,-1268684429,1,-0.6654011607170105,1.3840118646621704,0.1290302276611328,-109.43603515625,-4.8828125,10.986328125
7.512382984161377,-1268684408,0,1.4351683855056763,0.9467129111289978,-0.2549455463886261,195.9228515625,91.4306640625,-89.599609375
7.519659042358398,-1268684410,1,-0.6029011607170105,1.1110626459121704,0.2647724151611328,-64.27001953125,49.31640625,20.3857421875
7.519758939743042,-1268684391,1,-0.6793171763420105,1.0461212396621704,0.2677021026611328,-10.1318359375,113.83056640625,28.564453125
7.545021057128906,-1268684389,0,1.2918578386306763,0.7787441611289978,-0.0222795233130455,147.94921875,35.15625,-143.85986328125
7.571493864059448,-1268684353,0,0.9962034821510315,0.126400426030159,0.0285017266869545,139.7705078125,-77.69775390625,-235.53466796875
7.60153603553772,-1268684334,0,0.7266722321510315,0.088802769780159,0.1952497661113739,192.68798828125,-150.57373046875,-280.33447265625
7.6023008823394775,-1268684315,0,0.2625609338283539,-0.098941370844841,0.1034528985619545,182.373046875,-208.3740234375,-254.21142578125
7.609701871871948,-1268684355,1,-1.0826375484466553,1.0807892084121704,0.4141864776611328,15.0146484375,113.34228515625,80.74951171875
7.609806060791016,-1268684336,1,-1.0350301265716553,0.9660431742668152,0.5257587432861328,23.5595703125,44.73876953125,121.826171875
7.610677003860474,-1268684317,1,-0.8121296763420105,0.7702423930168152,0.4971942901611328,56.7626953125,8.72802734375,140.5029296875
7.610750913619995,-1268684298,1,-0.7149617075920105,0.6850373148918152,0.5828876495361328,90.63720703125,-2.197265625,152.9541015625
7.6421959400177,-1268684296,0,-0.10218517482280731,0.5182461142539978,0.1891462504863739,141.54052734375,-266.05224609375,-252.99072265625
7.64220404624939,-1268684277,0,0.2588988244533539,0.4240078628063202,0.0502302423119545,66.95556640625,-359.2529296875,-285.94970703125
7.646553993225098,-1268684279,1,-0.6055867075920105,0.7370392680168152,0.5198993682861328,111.02294921875,-37.53662109375,166.9921875
7.6621739864349365,-1268684258,0,0.2083617001771927,0.3292813003063202,0.0990583673119545,2.62451171875,-347.71728515625,-223.14453125
7.66975212097168,-1268684260,1,-0.2132527232170105,1.0900665521621704,0.005250938236713409,60.9130859375,-68.2373046875,140.9912109375
7.669873952865601,-1268684241,1,-0.4593464732170105,0.3085724413394928,0.3856220245361328,-18.9208984375,-82.51953125,111.2060546875
7.693068981170654,-1268684239,0,0.1409788876771927,0.030697304755449295,0.1752302348613739,-20.44677734375,-365.78369140625,-145.6298828125
7.69307804107666,-1268684220,0,-0.022351186722517014,0.017269570380449295,0.2335798442363739,13.671875,-419.7998046875,-157.89794921875
7.699723958969116,-1268684222,1,-0.1632038950920105,0.1862579882144928,0.3780536651611328,94.23828125,-73.18115234375,120.4833984375
7.722326040267944,-1268684201,0,0.038683969527482986,-0.027164023369550705,0.2074567973613739,42.05322265625,-442.44384765625,-195.556640625
7.737689018249512,-1268684203,1,-0.1160847544670105,0.2050568163394928,0.4368915557861328,191.34521484375,-32.2265625,118.34716796875
7.737697124481201,-1268684184,1,-0.1585652232170105,0.2533966600894928,0.4603290557861328,223.0224609375,-15.2587890625,87.46337890625
7.755591869354248,-1268684182,0,0.1292601376771927,-0.003238242119550705,0.1879255473613739,65.00244140625,-430.84716796875,-167.17529296875
7.7556071281433105,-1268684163,0,0.1614867001771927,0.110287144780159,0.2103864848613739,69.76318359375,-396.42333984375,-72.509765625
7.759588241577148,-1268684165,1,-0.2547566294670105,0.3068634569644928,0.4346942901611328,228.6376953125,-40.83251953125,40.4052734375
7.789597034454346,-1268684144,0,0.11387927830219269,0.231869176030159,0.4135114848613739,40.34423828125,-319.39697265625,23.98681640625
7.7896058559417725,-1268684125,0,0.07432849705219269,0.3490566909313202,0.5263044834136963,-27.40478515625,-251.220703125,93.44482421875
7.791712045669556,-1268684146,1,-0.2576863169670105,0.2905060350894928,0.3453388214111328,199.21875,-87.7685546875,8.544921875
7.791718006134033,-1268684127,1,-0.1956745982170105,0.2602325975894928,0.1717548370361328,170.654296875,-125.732421875,-24.7802734375
7.818675994873047,-1268684091,1,-0.2108113169670105,0.2282501757144928,-0.10729788988828659,94.90966796875,-178.955078125,-108.09326171875
7.845288991928101,-1268684089,0,-0.057507436722517014,0.3329434096813202,0.6437361240386963,-68.29833984375,-174.6826171875,158.99658203125
7.845296859741211,-1268684070,0,-0.09461681544780731,0.3712734878063202,0.5946638584136963,-69.9462890625,-147.3388671875,145.81298828125
7.8498618602752686,-1268684072,1,-0.3070027232170105,0.2487579882144928,-0.2825908660888672,76.66015625,-191.40625,-131.53076171875
7.872576951980591,-1268684051,0,-0.12464611232280731,0.4498867690563202,0.5482771396636963,-90.087890625,-120.66650390625,143.37158203125
7.889333009719849,-1268684053,1,-0.2969929575920105,0.3925568163394928,-0.4229717254638672,66.650390625,-193.29833984375,-144.47021484375
7.889340877532959,-1268684034,1,-0.4237019419670105,0.4504181444644928,-0.5140361785888672,49.62158203125,-165.34423828125,-156.55517578125
7.902339935302734,-1268684032,0,-0.031384389847517014,0.5018886923789978,0.3117048442363739,-106.01806640625,-93.93310546875,134.3994140625
7.902442932128906,-1268684013,0,-0.051403921097517014,0.4559902846813202,0.1632673442363739,-107.421875,-85.26611328125,122.55859375
7.909908056259155,-1268684015,1,-0.6263386607170105,0.5070587992668152,-0.5426006317138672,46.7529296875,-145.69091796875,-165.83251953125
7.941628932952881,-1268683994,0,0.2505980432033539,0.4743008315563202,-0.1409318745136261,-57.9833984375,-95.39794921875,156.55517578125
7.941635847091675,-1268683975,0,0.5875120759010315,0.6598476767539978,-0.1145646795630455,60.24169921875,-83.740234375,235.16845703125
7.944031000137329,-1268683996,1,-0.7974812388420105,0.6943146586418152,-0.5589580535888672,38.87939453125,-126.708984375,-159.3017578125
7.944036960601807,-1268683977,1,-0.9056355357170105,0.8996369242668152,-0.5369853973388672,8.85009765625,-118.896484375,-138.5498046875
7.962173938751221,-1268683956,0,1.2376586198806763,1.0492520332336426,-0.004213117063045502,152.587890625,-81.9091796875,288.9404296875
7.971549034118652,-1268683958,1,-1.0037801265716553,0.9733673930168152,-0.5767803192138672,-56.57958984375,-108.154296875,-112.97607421875
7.993458986282349,-1268683937,0,1.6053344011306763,1.4591641426086426,0.2098982036113739,203.18603515625,-59.50927734375,258.7890625
7.993465900421143,-1268683918,0,2.1863889694213867,2.3075528144836426,0.3905622661113739,231.201171875,-4.69970703125,182.861328125
7.999913930892944,-1268683939,1,-1.1619832515716553,0.9338166117668152,-0.4959697723388672,-114.013671875,-83.8623046875,-83.06884765625
8.000030040740967,-1268683920,1,-1.3087117671966553,0.8801056742668152,-0.3516826629638672,-127.01416015625,-63.232421875,-62.68310546875
8.022243022918701,-1268683899,0,2.6409788131713867,3.1581387519836426,0.4828474223613739,155.6396484375,-21.78955078125,192.93212890625
8.038058996200562,-1268683901,1,-1.3355672359466553,0.9318634867668152,-0.2791728973388672,-104.248046875,-57.861328125,-50.10986328125
8.038066864013672,-1268683882,1,-1.2398641109466553,1.0944610834121704,-0.1385478973388672,-72.021484375,-36.43798828125,-26.42822265625
8.052372932434082,-1268683880,0,3.1673460006713867,3.3715176582336426,-0.0874650701880455,43.15185546875,54.19921875,179.13818359375
8.052504062652588,-1268683861,0,2.9542112350463867,2.9711270332336426,0.1176130548119545,15.68603515625,180.60302734375,94.42138671875
8.059784889221191,-1268683863,1,-1.1734578609466553,1.0715118646621704,0.05334664136171341,-55.60302734375,-10.43701171875,4.08935546875
8.08954405784607,-1268683825,0,2.5237913131713867,2.3280606269836426,0.011411882936954498,18.310546875,306.82373046875,-124.08447265625
8.091808080673218,-1268683827,1,-0.9974324107170105,0.7441193461418152,0.1583271026611328,-24.35302734375,18.06640625,9.765625
8.118755102157593,-1268683808,1,-1.0325887203216553,0.6010529398918152,0.2608661651611328,-4.08935546875,22.5830078125,11.90185546875
8.145149946212769,-1268683806,0,2.5130491256713867,2.3229336738586426,-0.3005998432636261,-40.0390625,363.46435546875,-144.04296875
8.145160913467407,-1268683787,0,2.3069944381713867,2.2262539863586426,-0.7468888759613037,-94.78759765625,411.62109375,-159.66796875
8.145166873931885,-1268683768,0,2.1766233444213867,2.5062832832336426,-1.1795060634613037,-122.314453125,423.583984375,-206.23779296875
8.149736881256104,-1268683789,1,-0.8736531138420105,0.4557892382144928,0.2989521026611328,0.06103515625,0.48828125,-4.7607421875
8.149801969528198,-1268683770,1,-0.4141804575920105,0.7897736430168152,0.1336688995361328,-33.14208984375,-6.2255859375,-19.71435546875
8.172601222991943,-1268683749,0,2.1470823287963867,2.6119961738586426,-1.4038712978363037,-156.6162109375,416.9921875,-260.3759765625
8.188384056091309,-1268683751,1,-0.6402546763420105,0.6098420023918152,-0.02697562426328659,-83.1298828125,48.828125,-11.8408203125
8.188391923904419,-1268683732,1,-0.7691609263420105,0.5014435648918152,0.02551461011171341,-80.74951171875,92.59033203125,-17.9443359375
8.202448844909668,-1268683730,0,2.1451292037963867,2.5751309394836426,-1.5872209072113037,-228.759765625,384.82666015625,-300.96435546875
8.202614068984985,-1268683711,0,2.2298460006713867,2.1642422676086426,-1.7432267665863037,-298.27880859375,370.05615234375,-272.0947265625
8.240697860717773,-1268683692,0,2.2266721725463867,1.7924160957336426,-1.7761857509613037,-313.8427734375,382.080078125,-237.60986328125
8.243314981460571,-1268683713,1,-0.7501179575920105,0.5983673930168152,-0.07970999926328659,-64.51416015625,134.27734375,-25.146484375
8.243324995040894,-1268683694,1,-0.8692585825920105,0.6923615336418152,-0.2025127410888672,-63.8427734375,205.87158203125,-3.11279296875
8.243329048156738,-1268683675,1,-0.9346882700920105,0.4177033007144928,-0.4410381317138672,-45.10498046875,293.64013671875,-39.61181640625
8.262433052062988,-1268683673,0,1.8404418230056763,1.1754727363586426,-1.6553361415863037,-305.23681640625,413.2080078125,-197.20458984375
8.262518167495728,-1268683654,0,1.5088988542556763,0.7987636923789978,-1.5237443447113037,-268.12744140625,426.57470703125,-161.0107421875
8.269452095031738,-1268683656,1,-0.6155964732170105,0.2951447069644928,-0.7335186004638672,-40.83251953125,358.0322265625,-102.35595703125
8.293699026107788,-1268683635,0,1.2940551042556763,0.3131680190563202,-1.1477677822113037,-208.43505859375,447.20458984375,-160.70556640625
8.293707132339478,-1268683616,0,0.9415159821510315,0.167904332280159,-0.9153459072113037,-169.5556640625,474.18212890625,-162.41455078125
8.299843788146973,-1268683637,1,-1.1946980953216553,0.2214142382144928,-0.7159404754638672,-36.4990234375,430.17578125,-78.857421875
8.299925088882446,-1268683618,1,-1.3970906734466553,0.5253693461418152,-0.6126689910888672,-20.1416015625,415.52734375,-22.705078125
8.322207927703857,-1268683597,0,0.7139769196510315,-0.064273402094841,-0.7058732509613037,-162.109375,445.73974609375,-100.830078125
8.338807106018066,-1268683599,1,-1.4239461421966553,0.7385041117668152,-0.4913311004638672,-81.35986328125,342.95654296875,-31.1279296875
8.35216999053955,-1268683561,0,0.3555785119533539,-0.2783847153186798,-0.3611467182636261,-49.560546875,448.79150390625,-132.38525390625
8.36098599433899,-1268683563,1,-1.0157430171966553,0.5595490336418152,-0.4075908660888672,-146.05712890625,289.85595703125,-12.5732421875
8.390196084976196,-1268683542,0,0.2198363095521927,-0.130191370844841,-0.1492326557636261,0.42724609375,425.048828125,-135.6201171875
8.392391920089722,-1268683544,1,-0.9857136607170105,0.5934845805168152,-0.4146709442138672,-137.3291015625,335.38818359375,-7.32421875
8.412564039230347,-1268683523,0,0.12218005955219269,0.005550820380449295,0.0809919610619545,11.90185546875,387.02392578125,-112.548828125
8.41271185874939,-1268683504,0,0.08751209080219269,0.198177769780159,0.1493513286113739,-3.35693359375,336.7919921875,-64.453125
8.419663906097412,-1268683525,1,-1.1373250484466553,0.6916291117668152,-0.4366436004638672,-135.68115234375,369.140625,1.0986328125
8.419780969619751,-1268683506,1,-1.3648641109466553,0.9277130961418152,-0.3587627410888672,-189.88037109375,334.1064453125,21.05712890625
8.442497968673706,-1268683485,0,-0.059704702347517014,0.2719082534313202,0.1908552348613739,-42.90771484375,278.076171875,7.87353515625
8.442585229873657,-1268683466,0,-0.049450796097517014,0.3151211440563202,0.2367536723613739,-75.98876953125,260.498046875,35.70556640625
8.449679851531982,-1268683487,1,-1.1505086421966553,0.6435334086418152,-0.3526592254638672,-209.3505859375,315.36865234375,54.38232421875
8.44980001449585,-1268683468,1,-1.1514852046966553,0.5773712992668152,-0.2257061004638672,-200.25634765625,338.19580078125,80.9326171875
8.472715139389038,-1268683447,0,0.1273070126771927,0.2775234878063202,0.1657087504863739,-92.7734375,256.2255859375,69.7021484375
8.488553047180176,-1268683449,1,-1.2144734859466553,0.6901642680168152,0.11560250073671341,-198.6083984375,270.20263671875,88.43994140625
8.502367973327637,-1268683428,0,-0.010632436722517014,0.169125035405159,0.1510603129863739,-87.46337890625,277.9541015625,92.22412109375
8.502481937408447,-1268683409,0,-0.1651734560728073,0.217220738530159,0.1593610942363739,-55.17578125,274.47509765625,102.47802734375
8.509677171707153,-1268683430,1,-1.0218465328216553,0.5043732523918152,0.1788349151611328,-187.56103515625,280.1513671875,111.99951171875
8.509769916534424,-1268683411,1,-0.7222859263420105,0.4804474413394928,0.11804390698671341,-145.56884765625,325.68359375,149.658203125
8.540693044662476,-1268683390,0,-0.010144155472517014,0.3234219253063202,0.1005232110619545,-27.03857421875,252.62451171875,93.3837890625
8.544176816940308,-1268683392,1,-0.7857624888420105,0.5148712992668152,0.3031024932861328,-120.30029296875,303.16162109375,177.67333984375
8.544185161590576,-1268683373,1,-0.5157429575920105,0.5212189555168152,0.06189156323671341,-142.88330078125,302.490234375,194.39697265625
8.562330961227417,-1268683371,0,0.0023070164024829865,0.2958340346813202,0.1400739848613739,-21.42333984375,254.150390625,96.0693359375
8.562429904937744,-1268683352,0,0.1282835751771927,0.2760586440563202,0.0817243829369545,-15.5029296875,244.56787109375,121.03271484375
8.569469928741455,-1268683354,1,-0.1304890513420105,0.2377716600894928,-0.06554984301328659,-140.5029296875,288.39111328125,189.3310546875
8.598766088485718,-1268683335,1,-0.6727253794670105,-0.3222869336605072,0.6126728057861328,-92.8955078125,219.970703125,169.921875
8.622314929962158,-1268683333,0,-0.1541871279478073,0.4691738784313202,-0.1814592182636261,-4.2724609375,260.009765625,148.49853515625
8.622394800186157,-1268683297,0,-0.025280874222517014,-0.048892538994550705,-0.1890275776386261,9.3994140625,159.85107421875,307.67822265625
8.651429891586304,-1268683278,0,-0.014782827347517014,0.056820351630449295,-0.1460588276386261,92.1630859375,187.5,235.53466796875
8.65237307548523,-1268683259,0,-0.11707775294780731,0.006771523505449295,-0.1572892963886261,119.44580078125,174.1943359375,207.8857421875
8.660185813903809,-1268683299,1,0.2447550892829895,0.055398616939783096,0.6344013214111328,10.31494140625,75.01220703125,18.85986328125
8.660386085510254,-1268683280,1,0.0877726674079895,0.0722443163394928,0.2906513214111328,-20.6298828125,81.4208984375,4.82177734375
8.689687013626099,-1268683240,0,0.059191782027482986,-0.056705038994550705,-0.3491838276386261,149.10888671875,143.798828125,236.51123046875
8.692400932312012,-1268683261,1,0.2952921986579895,0.1711212694644928,0.1759052276611328,-58.2275390625,98.20556640625,-25.0244140625
8.692408084869385,-1268683242,1,0.3143351674079895,0.1803986132144928,0.1358661651611328,-86.97509765625,132.38525390625,-87.46337890625
8.692889213562012,-1268683223,1,0.2296183705329895,0.3168732225894928,0.2545185089111328,-109.19189453125,176.8798828125,-192.68798828125
8.712394952774048,-1268683221,0,0.3804808557033539,0.063168004155159,-0.4175432026386261,180.84716796875,139.22119140625,286.80419921875
8.712521076202393,-1268683202,0,0.5372191071510315,0.3424648940563202,-0.5562150478363037,169.37255859375,160.21728515625,332.1533203125
8.719534873962402,-1268683204,1,-0.051631633192300797,0.4557892382144928,0.3902606964111328,-115.3564453125,190.73486328125,-260.55908203125
8.74475383758545,-1268683183,0,0.6602659821510315,0.5990566611289978,-0.7210099697113037,130.0048828125,179.13818359375,363.22021484375
8.749782085418701,-1268683185,1,-0.1732136607170105,0.6493927836418152,0.3812274932861328,-126.52587890625,166.56494140625,-327.2705078125
8.749920129776001,-1268683166,1,-0.2337605357170105,0.6926056742668152,0.3372821807861328,-147.15576171875,122.37548828125,-397.705078125
8.772866010665894,-1268683164,0,0.7872191071510315,1.0158047676086426,-1.1878068447113037,35.64453125,198.974609375,391.9677734375
8.772931098937988,-1268683145,0,0.5936155915260315,1.1334805488586426,-1.4985978603363037,-50.59814453125,161.7431640625,432.373046875
8.788942098617554,-1268683147,1,-0.5845906138420105,0.8547150492668152,0.3238544464111328,-179.38232421875,62.3779296875,-455.01708984375
8.802541017532349,-1268683126,0,0.7210569977760315,1.3761563301086426,-1.5305802822113037,-88.19580078125,65.49072265625,377.62451171875
8.802626132965088,-1268683107,0,1.2344847917556763,1.5033535957336426,-1.2576310634613037,-99.4873046875,-10.986328125,320.25146484375
8.80963683128357,-1268683128,1,-0.9549519419670105,1.2892853021621704,0.2493915557861328,-230.5908203125,7.38525390625,-487.60986328125
8.809751033782959,-1268683109,1,-1.1949422359466553,1.7575470209121704,0.3177509307861328,-277.4658203125,-15.9912109375,-462.5244140625
8.83963918685913,-1268683088,0,1.8318969011306763,1.9232754707336426,-0.8523576259613037,-112.48779296875,-48.828125,274.169921875
8.843241930007935,-1268683090,1,-1.3924520015716553,1.7941681146621704,0.5469989776611328,-289.9169921875,11.474609375,-422.54638671875
8.843251943588257,-1268683071,1,-1.8348348140716553,1.7580353021621704,0.8853778839111328,-226.98974609375,61.95068359375,-233.7646484375
8.862149000167847,-1268683069,0,2.0464963912963867,2.0595059394836426,-0.4927385151386261,-158.203125,-24.658203125,217.22412109375
8.894126892089844,-1268683033,0,1.7657347917556763,1.6771817207336426,0.0695173516869545,-138.427734375,-19.8974609375,105.52978515625
