sync_time,timestamp_ms,device_id,ax,ay,az,gx,gy,gz
0.0032300949096679688,-1269664641,0,1.2936168909072876,-0.9266117811203003,-0.8617666959762573,-25.32958984375,-213.92822265625,-262.02392578125
0.017870187759399414,-1269664641,1,-0.8043071031570435,-0.08765615522861481,0.9482390880584717,43.02978515625,58.28857421875,47.54638671875
0.0180208683013916,-1269664622,1,-0.7515727281570435,-0.0024510733783245087,0.8786590099334717,65.5517578125,75.0732421875,46.630859375
0.04915904998779297,-1269664603,1,-0.7884379625320435,0.05980478599667549,0.7683074474334717,71.83837890625,73.6083984375,38.4521484375
0.06294083595275879,-1269664622,0,1.3165661096572876,-0.8133305311203003,-1.2345694303512573,-57.43408203125,-225.76904296875,-324.951171875
0.0630788803100586,-1269664603,0,0.9640270471572876,-0.6170414686203003,-1.2704581022262573,-77.392578125,-154.72412109375,-364.07470703125
0.07771801948547363,-1269664584,1,-0.7613383531570435,0.07762704789638519,0.7199676036834717,61.03515625,55.0537109375,15.7470703125
0.07779407501220703,-1269664565,1,-0.7110453844070435,0.06639657914638519,0.6936004161834717,44.73876953125,43.39599609375,-2.5634765625
0.09983992576599121,-1269664584,0,0.2298961877822876,-0.2073734700679779,-0.8957022428512573,-118.1640625,-140.9912109375,-352.4169921875
0.1009979248046875,-1269664565,0,-0.2774280309677124,-0.1224125325679779,-0.6696280241012573,-168.45703125,-186.58447265625,-328.857421875
0.10104608535766602,-1269664546,0,-0.5701526403427124,0.1339351236820221,-0.5172842741012573,-207.82470703125,-299.1943359375,-273.4375
0.10796689987182617,-1269664546,1,-0.6761332750320435,0.07567392289638519,0.6425750255584717,24.10888671875,37.4755859375,-13.36669921875
0.1080789566040039,-1269664527,1,-0.6485453844070435,0.05321298912167549,0.6066863536834717,5.92041015625,37.29248046875,-0.9765625
0.12278890609741211,-1269664527,0,-0.3431018590927124,-0.0931156575679779,-0.7431143522262573,-153.80859375,-297.9736328125,-185.97412109375
0.14791297912597656,-1269664508,1,-0.5933696031570435,-0.02442372962832451,0.5710418224334717,-12.39013671875,45.41015625,5.37109375
0.15260791778564453,-1269664491,0,-0.1267932653427124,-0.1233890950679779,-0.3759268820285797,-89.4775390625,-283.935546875,-156.31103515625
0.16782116889953613,-1269664489,1,-0.6636821031570435,-0.10083974897861481,0.5844695568084717,-25.146484375,54.3212890625,1.708984375
0.16788411140441895,-1269664470,1,-0.7830668687820435,-0.1921483427286148,0.6086394786834717,-26.0009765625,34.423828125,13.97705078125
0.19485688209533691,-1269664472,0,-0.3181995153427124,0.1837398111820221,-0.3012198507785797,-58.7158203125,-319.82421875,-134.27734375
0.19486498832702637,-1269664453,0,-0.4810413122177124,-0.0030277669429779053,-0.3825186789035797,-27.2216796875,-375.9765625,-66.95556640625
0.19914507865905762,-1269664451,1,-0.8133403062820435,-0.1899510771036148,0.6567351818084717,-8.48388671875,-5.43212890625,23.98681640625
0.21297788619995117,-1269664434,0,-0.6028674840927124,-0.2000492513179779,-0.7008780241012573,-27.7099609375,-343.93310546875,11.474609375
0.22789406776428223,-1269664415,1,-0.6031352281570435,-0.05518544837832451,0.7382781505584717,11.474609375,-11.65771484375,25.20751953125
0.24852514266967773,-1269664415,0,-0.2813342809677124,-0.1900394856929779,-0.9877432584762573,-10.3759765625,-195.37353515625,-62.6220703125
0.24857306480407715,-1269664396,0,-0.5508655309677124,-0.1202152669429779,-0.1474112570285797,15.56396484375,-156.1279296875,-103.33251953125
0.25785398483276367,-1269664396,1,-0.6788188219070435,0.07127939164638519,0.7595183849334717,10.3759765625,19.53125,37.41455078125
0.25795412063598633,-1269664377,1,-0.8445903062820435,0.04295908287167549,0.8173797130584717,5.2490234375,31.31103515625,43.64013671875
0.27291011810302734,-1269664377,0,-0.6856311559677124,-0.027930110692977905,0.08378992229700089,11.16943359375,-227.23388671875,-92.83447265625
0.2730419635772705,-1269664358,0,-0.7432483434677124,0.008202701807022095,-0.07563390582799911,43.701171875,-277.9541015625,-79.28466796875
0.2953040599822998,-1269664358,1,-0.9691020250320435,0.1542872041463852,0.8290984630584717,33.0810546875,28.50341796875,84.89990234375
0.30264902114868164,-1269664339,0,-0.8074573278427124,0.2303706705570221,-0.2711905539035797,65.49072265625,-277.40478515625,-39.12353515625
0.3178980350494385,-1269664339,1,-0.9737406969070435,0.3073633909225464,0.6960418224334717,46.69189453125,21.78955078125,102.47802734375
0.318011999130249,-1269664320,1,-0.9288188219070435,0.2941797971725464,0.5737273693084717,31.25,11.71875,94.482421875
0.33429694175720215,-1269664320,0,-0.8028186559677124,0.2201167643070221,-0.4076651632785797,93.68896484375,-231.38427734375,19.8974609375
0.34426188468933105,-1269664301,0,-0.6673206090927124,0.1900874674320221,-0.8051260709762573,129.69970703125,-146.54541015625,83.1298828125
0.3617269992828369,-1269664282,0,-0.5869983434677124,0.1749507486820221,-1.4535635709762573,131.591796875,-64.0869140625,117.919921875
0.3777620792388916,-1269664301,1,-0.9061137437820435,0.3315333127975464,0.48974302411079407,15.625,3.60107421875,100.76904296875
0.37784695625305176,-1269664282,1,-0.9051371812820435,0.3264063596725464,0.38988950848579407,-16.78466796875,-7.38525390625,109.19189453125
0.37872314453125,-1269664263,1,-0.8348246812820435,0.2702540159225464,0.31933286786079407,-48.2177734375,-10.498046875,106.01806640625
0.3981809616088867,-1269664263,0,-0.3484729528427124,0.1749507486820221,-1.8361319303512573,91.4306640625,-1.64794921875,89.35546875
0.40811800956726074,-1269664244,1,-0.7872172594070435,0.1723536103963852,0.27734068036079407,-62.68310546875,4.150390625,99.91455078125
0.42304396629333496,-1269664227,0,-0.0887073203921318,0.1161128580570221,-1.7265127897262573,-29.052734375,125.48828125,-15.07568359375
0.4231529235839844,-1269664208,0,-0.1817249059677124,0.010155826807022095,-1.3258780241012573,-59.50927734375,178.03955078125,-36.865234375
0.4484517574310303,-1269664225,1,-0.7947856187820435,0.07567392289638519,0.27319028973579407,-60.11962890625,13.18359375,88.68408203125
0.44846606254577637,-1269664206,1,-0.8069926500320435,0.01830087974667549,0.28417661786079407,-36.31591796875,19.95849609375,64.63623046875
0.45247316360473633,-1269664189,0,-0.3294299840927124,-0.0799320638179779,-0.8978995084762573,-56.884765625,219.54345703125,-45.41015625
0.4676179885864258,-1269664187,1,-0.8575297594070435,0.1332911103963852,0.26855161786079407,-2.86865234375,14.0380859375,40.58837890625
0.494952917098999,-1269664170,0,-0.5103381872177124,-0.1304691731929779,-0.6090811491012573,-40.10009765625,236.02294921875,-41.1376953125
0.4949629306793213,-1269664151,0,-0.7168811559677124,-0.1907719075679779,-0.4450186789035797,-20.99609375,218.93310546875,-31.6162109375
0.4994790554046631,-1269664151,1,-1.0506449937820435,0.5175684690475464,0.26073911786079407,50.59814453125,15.380859375,0.1220703125
0.5127449035644531,-1269664132,0,-0.7918323278427124,-0.1968754231929779,-0.4948233664035797,-4.2724609375,216.49169921875,-22.94921875
0.5278599262237549,-1269664132,1,-1.1426860094070435,0.8266505002975464,0.32030943036079407,52.3681640625,6.04248046875,-4.57763671875
0.5279948711395264,-1269664113,1,-1.2349711656570435,1.0898340940475464,0.42309263348579407,31.67724609375,-6.28662109375,1.46484375
0.5476369857788086,-1269664113,0,-1.0572131872177124,-0.0860355794429779,-0.4542960226535797,13.97705078125,223.7548828125,19.83642578125
0.5476460456848145,-1269664094,0,-1.3672717809677124,0.060692936182022095,-0.3759268820285797,30.45654296875,185.85205078125,86.24267578125
0.5577988624572754,-1269664094,1,-1.3067485094070435,1.2377833127975464,0.5068328380584717,-13.671875,-32.40966796875,5.126953125
0.5728518962860107,-1269664075,0,-1.5296252965927124,0.1476069986820221,-0.4557608664035797,61.8896484375,137.0849609375,162.41455078125
0.5946569442749023,-1269664075,1,-1.3189555406570435,1.1601465940475464,0.5800750255584717,-32.958984375,-57.67822265625,10.25390625
0.5946650505065918,-1269664056,1,-1.2996684312820435,0.9853419065475464,0.5268523693084717,-12.0849609375,-84.5947265625,26.9775390625
0.6029329299926758,-1269664056,0,-1.5337756872177124,0.1344234049320221,-0.6505850553512573,103.08837890625,91.36962890625,221.86279296875
0.6030228137969971,-1269664037,0,-1.5337756872177124,-0.057715266942977905,-0.9330557584762573,143.73779296875,47.18017578125,235.77880859375
0.617779016494751,-1269664037,1,-1.1973735094070435,0.8630274534225464,0.44726255536079407,24.658203125,-104.18701171875,59.9365234375
0.617887020111084,-1269664018,1,-1.1136332750320435,0.7502344846725464,0.44750669598579407,53.64990234375,-104.6142578125,83.06884765625
0.6486008167266846,-1269663999,1,-0.9197856187820435,0.6552637815475464,0.5676238536834717,96.98486328125,-102.23388671875,85.51025390625
0.6629908084869385,-1269664018,0,-1.3150256872177124,-0.1055668294429779,-1.1562002897262573,162.841796875,24.47509765625,231.0791015625
0.6630480289459229,-1269663999,0,-1.0142444372177124,-0.043555110692977905,-1.2711905241012573,156.494140625,8.4228515625,256.53076171875
0.6639878749847412,-1269663963,0,-0.6592639684677124,-0.1119144856929779,-1.5521963834762573,78.43017578125,5.06591796875,304.931640625
0.6778650283813477,-1269663980,1,-0.7684184312820435,0.6945704221725464,0.6887176036834717,129.5166015625,-62.1337890625,81.84814453125
0.6779022216796875,-1269663961,1,-0.8362895250320435,0.6496485471725464,0.6369597911834717,142.39501953125,-16.17431640625,81.72607421875
0.6979808807373047,-1269663944,0,-0.4329456090927124,-0.1175297200679779,-1.6891592741012573,42.54150390625,2.5634765625,275.32958984375
0.7080841064453125,-1269663942,1,-0.8497172594070435,0.6398829221725464,0.6083953380584717,154.11376953125,-0.8544921875,88.134765625
0.7230339050292969,-1269663925,0,-0.2381213903427124,-0.0984867513179779,-1.7841299772262573,-9.09423828125,-14.2822265625,221.00830078125
0.7231690883636475,-1269663906,0,-0.023277632892131805,-0.051367610692977905,-1.7772940397262573,-74.64599609375,-37.90283203125,153.6865234375
0.745589017868042,-1269663923,1,-0.8687602281570435,0.5944727659225464,0.6401336193084717,167.05322265625,12.02392578125,107.11669921875
0.7526559829711914,-1269663887,0,0.0943981483578682,-0.037939876317977905,-1.6969717741012573,-112.6708984375,-26.2451171875,114.013671875
0.7676208019256592,-1269663887,1,-0.8116313219070435,0.6210840940475464,0.5715301036834717,159.48486328125,8.1787109375,129.2724609375
0.7677371501922607,-1269663868,1,-0.7215434312820435,0.5895899534225464,0.5466277599334717,139.58740234375,10.3759765625,145.1416015625
0.7836859226226807,-1269663868,0,0.0963512733578682,-0.050635188817977905,-1.5563467741012573,-142.08984375,-3.0517578125,83.80126953125
0.7836959362030029,-1269663849,0,0.1398082971572876,-0.1197269856929779,-1.3971670866012573,-140.380859375,5.37109375,68.603515625
0.7995359897613525,-1269663849,1,-0.5984965562820435,0.4606837034225464,0.48656919598579407,109.86328125,1.5869140625,154.4189453125
0.812568187713623,-1269663830,0,0.1234508827328682,-0.1524418294429779,-1.1737784147262573,-118.46923828125,-9.8876953125,57.06787109375
0.8277361392974854,-1269663830,1,-0.5150004625320435,0.3625391721725464,0.42895200848579407,93.6279296875,-4.2724609375,160.0341796875
0.8278520107269287,-1269663811,1,-0.43589887022972107,0.1816309541463852,0.33544614911079407,80.26123046875,-22.76611328125,163.57421875
0.8491320610046387,-1269663811,0,0.1446911096572876,-0.1060551106929779,-0.9818838834762573,-116.76025390625,-17.2119140625,54.13818359375
0.8491411209106445,-1269663792,0,0.1532360315322876,-0.1968754231929779,-0.8310049772262573,-131.04248046875,-29.296875,46.5087890625
0.8576247692108154,-1269663792,1,-0.25669965147972107,0.08275400102138519,0.22729183733463287,72.75390625,-47.7294921875,158.69140625
0.8956658840179443,-1269663773,1,-0.08018599450588226,0.004873145371675491,0.13915707170963287,61.03515625,-70.25146484375,140.56396484375
0.8956739902496338,-1269663754,1,0.045546431094408035,-0.008310448378324509,0.08666683733463287,44.86083984375,-82.45849609375,116.39404296875
0.9031691551208496,-1269663773,0,0.1329723596572876,-0.2591312825679779,-0.7792471647262573,-111.083984375,-47.8515625,7.38525390625
0.9034020900726318,-1269663754,0,0.2071911096572876,-0.1768558919429779,-0.6022452116012573,-81.1767578125,-43.88427734375,-36.43798828125
0.9034171104431152,-1269663735,0,0.2508922815322876,-0.0977543294429779,-0.4652823507785797,-78.857421875,-38.75732421875,-25.45166015625
0.9177968502044678,-1269663735,1,0.19935502111911774,-0.03711904212832451,0.06127621605992317,16.357421875,-93.26171875,93.26171875
0.9178860187530518,-1269663716,1,0.31581011414527893,-0.09571279585361481,0.09960629045963287,-22.8271484375,-95.21484375,63.4765625
0.9327669143676758,-1269663699,0,0.1481090784072876,-0.031348079442977905,-0.2077139914035797,-76.47705078125,-15.380859375,11.23046875
0.9496269226074219,-1269663697,1,0.39100542664527893,-0.1547948271036148,0.15649105608463287,-51.8798828125,-97.47314453125,15.19775390625
0.9628009796142578,-1269663680,0,0.1559215784072876,0.007958561182022095,-0.060008905827999115,-50.35400390625,4.08935546875,40.8935546875
0.9777219295501709,-1269663678,1,0.39979448914527893,-0.1257420927286148,0.23608089983463287,-62.98828125,-88.5009765625,-23.37646484375
0.9778549671173096,-1269663659,1,0.27674761414527893,-0.1474706083536148,0.39135435223579407,-73.30322265625,-57.18994140625,-54.50439453125
0.998176097869873,-1269663661,0,0.1185680702328682,0.040185123682022095,-0.043163202702999115,-5.37109375,8.7890625,67.0166015625
0.9981861114501953,-1269663642,0,0.0885387733578682,0.0746089518070221,-0.060008905827999115,24.7802734375,4.69970703125,77.63671875
1.022094964981079,-1269663623,0,0.058265335857868195,0.0694819986820221,-0.1913565695285797,42.29736328125,-2.8076171875,83.0078125
1.044693946838379,-1269663623,1,0.10999955236911774,-0.11280263960361481,0.6459929943084717,-80.810546875,-29.96826171875,-90.087890625
1.0447020530700684,-1269663604,1,-0.032822709530591965,-0.1528417021036148,0.7790496349334717,-103.45458984375,-36.92626953125,-75.1953125
1.052804946899414,-1269663604,0,0.044837601482868195,0.062157779932022095,-0.2460440695285797,46.142578125,-15.56396484375,78.18603515625
1.0528998374938965,-1269663585,0,-0.038170211017131805,0.020409733057022095,-0.4186514914035797,57.80029296875,-23.25439453125,63.5986328125
1.0676870346069336,-1269663585,1,-0.24229536950588226,-0.1967870146036148,0.7326629161834717,-160.64453125,-65.4296875,-42.17529296875
1.0677859783172607,-1269663566,1,-0.5211039781570435,-0.11622060835361481,0.9299285411834717,-281.005859375,-38.75732421875,-45.654296875
1.0844638347625732,-1269663566,0,-0.1956409215927124,0.020409733057022095,-0.5568350553512573,76.904296875,-22.0947265625,46.32568359375
1.094985008239746,-1269663547,0,-0.3973010778427124,0.0863277018070221,-0.6974600553512573,100.40283203125,-30.029296875,28.62548828125
1.100890874862671,-1269663547,1,-0.8736430406570435,-0.10767568647861481,1.0031707286834717,-382.568359375,-14.22119140625,-115.6005859375
1.1127350330352783,-1269663528,0,-0.5037463903427124,0.2235347330570221,-0.9003409147262573,128.11279296875,-37.29248046875,9.1552734375
1.1298880577087402,-1269663528,1,-1.2317973375320435,-0.07300771772861481,1.2123992443084717,-440.0634765625,0.18310546875,-157.28759765625
1.1298999786376953,-1269663509,1,-1.3336039781570435,-0.1464940458536148,1.4711883068084717,-430.2978515625,41.1376953125,-111.26708984375
1.1480209827423096,-1269663509,0,-0.5667346715927124,0.3924800455570221,-1.0292471647262573,132.8125,-33.935546875,11.04736328125
1.14802885055542,-1269663490,0,-0.6219104528427124,0.4229976236820221,-1.0961416959762573,120.17822265625,-25.20751953125,27.03857421875
1.1576499938964844,-1269663490,1,-1.3760844469070435,-0.2761327028274536,1.7126433849334717,-350.2197265625,119.56787109375,-51.26953125
1.172644853591919,-1269663471,0,-0.6348499059677124,0.4037105143070221,-1.0792959928512573,96.37451171875,-3.0517578125,41.259765625
1.2019829750061035,-1269663435,0,-0.6580432653427124,0.4447261393070221,-0.9660147428512573,77.20947265625,28.01513671875,43.45703125
1.2181780338287354,-1269663471,1,-1.3021098375320435,0.006337989121675491,1.6328094005584717,-253.662109375,149.5361328125,-27.7099609375
1.218358039855957,-1269663452,1,-0.8397074937820435,0.4416407346725464,1.6816375255584717,-206.84814453125,171.56982421875,-73.05908203125
1.2183749675750732,-1269663433,1,-0.6187602281570435,0.6813868284225464,1.8515594005584717,-56.640625,168.39599609375,-175.10986328125
1.219027042388916,-1269663414,1,-1.3016215562820435,2.773427724838257,1.7795379161834717,263.73291015625,135.6201171875,-372.49755859375
1.2327959537506104,-1269663416,0,-0.6673206090927124,0.4254390299320221,-0.8856924772262573,77.63671875,18.9208984375,57.2509765625
1.2328510284423828,-1269663397,0,-0.6053088903427124,0.2833491861820221,-0.8278311491012573,87.46337890625,-4.0283203125,71.1669921875
1.2490019798278809,-1269663395,1,-1.8191996812820435,2.956777334213257,0.28075864911079407,328.79638671875,104.98046875,-216.064453125
1.262800931930542,-1269663378,0,-0.5491565465927124,0.1583491861820221,-0.7658194303512573,88.7451171875,-16.2353515625,72.44873046875
1.2778379917144775,-1269663359,1,-0.24888716638088226,1.5722559690475464,0.7646453380584717,-12.75634765625,35.5224609375,-6.7138671875
1.2980899810791016,-1269663359,0,-0.4881213903427124,0.061669498682022095,-0.6728018522262573,77.33154296875,-20.93505859375,55.5419921875
1.2980990409851074,-1269663340,0,-0.4080432653427124,-0.049170345067977905,-0.6623038053512573,65.24658203125,-14.95361328125,31.25
1.3079791069030762,-1269663340,1,-0.5010844469070435,0.7162989377975464,0.6831023693084717,-162.29248046875,25.08544921875,-38.63525390625
1.3228790760040283,-1269663321,0,-0.3174670934677124,-0.0691898763179779,-0.6662100553512573,55.11474609375,-0.18310546875,7.8125
1.3457250595092773,-1269663321,1,-0.44224652647972107,-0.1911717802286148,0.6567351818084717,-155.57861328125,-21.54541015625,-48.40087890625
1.3457329273223877,-1269663302,1,-0.25572308897972107,-0.1865331083536148,0.7956511974334717,5.126953125,20.6298828125,-20.32470703125
1.3533661365509033,-1269663302,0,-0.3289417028427124,-0.0945805013179779,-0.7143057584762573,45.34912109375,10.68115234375,-20.32470703125
1.3534810543060303,-1269663283,0,-0.4038928747177124,-0.1714847981929779,-0.7470206022262573,60.85205078125,-20.1416015625,-60.302734375
1.367785930633545,-1269663283,1,-0.37437543272972107,0.2018946260213852,0.8998992443084717,121.88720703125,103.21044921875,-16.78466796875
1.3845608234405518,-1269663264,0,-0.4392932653427124,-0.1739262044429779,-0.8825186491012573,72.69287109375,-93.68896484375,-106.99462890625
1.3956010341644287,-1269663245,0,-0.4720081090927124,-0.1397465169429779,-1.0109366178512573,73.8525390625,-142.822265625,-132.32421875
1.4128119945526123,-1269663226,0,-0.5891956090927124,-0.0718754231929779,-1.2172354459762573,53.5888671875,-169.5556640625,-135.3759765625
1.4281630516052246,-1269663264,1,-0.6863871812820435,0.4111231565475464,0.9707000255584717,165.52734375,179.87060546875,13.916015625
1.428246021270752,-1269663245,1,-0.9820414781570435,0.3115137815475464,0.9179656505584717,163.75732421875,166.748046875,5.9814453125
1.4282901287078857,-1269663226,1,-1.1055766344070435,0.2673243284225464,0.8559539318084717,153.99169921875,117.85888671875,-31.43310546875
1.4291789531707764,-1269663207,1,-1.1863871812820435,0.3085840940475464,0.8725554943084717,153.62548828125,85.14404296875,-42.8466796875
1.4474811553955078,-1269663207,0,-0.7525256872177124,-0.027441829442977905,-1.4242666959762573,11.8408203125,-174.072265625,-114.31884765625
1.4577438831329346,-1269663188,1,-1.1607524156570435,0.3222559690475464,0.9096648693084717,154.6630859375,69.03076171875,-16.4794921875
1.4757859706878662,-1269663171,0,-0.8106311559677124,-0.0789555013179779,-1.6103018522262573,-88.07373046875,-150.81787109375,-54.99267578125
1.4961779117584229,-1269663169,1,-1.1356059312820435,0.4350489377975464,0.8491179943084717,149.7802734375,92.1630859375,2.3193359375
1.502830982208252,-1269663152,0,-0.7849963903427124,-0.1155765950679779,-1.5324209928512573,-115.1123046875,-95.52001953125,-34.24072265625
1.5029230117797852,-1269663133,0,-0.7334827184677124,-0.1170414388179779,-1.3253897428512573,-125.9765625,-40.771484375,-14.22119140625
1.5190489292144775,-1269663150,1,-1.2996684312820435,0.3225001096725464,0.9396941661834717,137.14599609375,95.8251953125,60.36376953125
1.519057035446167,-1269663131,1,-1.2564555406570435,0.2460840791463852,0.9565398693084717,111.6943359375,68.42041015625,103.08837890625
1.5436418056488037,-1269663114,0,-0.6763538122177124,-0.1824711263179779,-0.9577139616012573,-123.59619140625,16.845703125,3.23486328125
1.5436511039733887,-1269663095,0,-0.6133655309677124,-0.2159183919429779,-0.6659659147262573,-108.88671875,45.83740234375,12.0849609375
1.5480830669403076,-1269663095,1,-0.8726664781570435,-0.1342870146036148,0.9143035411834717,6.9580078125,-8.30078125,134.521484375
1.5628550052642822,-1269663076,0,-0.5601428747177124,-0.2500980794429779,-0.4550284445285797,-90.33203125,45.83740234375,7.080078125
1.577855110168457,-1269663076,1,-0.7689067125320435,-0.3432713747024536,0.8312957286834717,-28.50341796875,-40.52734375,113.8916015625
1.5779519081115723,-1269663057,1,-0.6522074937820435,-0.4641209840774536,0.7419402599334717,-51.1474609375,-55.96923828125,74.21875
1.598418951034546,-1269663057,0,-0.5108264684677124,-0.2911137044429779,-0.3532218039035797,-70.9228515625,29.1748046875,3.84521484375
1.5984280109405518,-1269663038,0,-0.4871448278427124,-0.3760746419429779,-0.2511710226535797,-42.90771484375,1.28173828125,2.01416015625
1.6079199314117432,-1269663038,1,-0.49888715147972107,-0.5329686403274536,0.6328094005584717,-66.5283203125,-60.36376953125,32.89794921875
1.6230158805847168,-1269663019,0,-0.3863147497177124,-0.4107426106929779,-0.2836417257785797,1.52587890625,-22.03369140625,8.544921875
1.645117998123169,-1269663019,1,-0.47105512022972107,-0.5681248903274536,0.5666472911834717,-71.8994140625,-64.3310546875,-8.544921875
1.6451258659362793,-1269663000,1,-0.48155316710472107,-0.5207616090774536,0.5019500255584717,-67.9931640625,-67.93212890625,-47.2412109375
1.6527988910675049,-1269663000,0,-0.3037952184677124,-0.4878910481929779,-0.3253897726535797,50.048828125,-25.146484375,20.5078125
1.652914047241211,-1269662981,0,-0.2381213903427124,-0.5506352186203003,-0.4127921164035797,117.3095703125,-15.44189453125,36.0107421875
1.6817309856414795,-1269662962,0,-0.2461780309677124,-0.6209477186203003,-0.5875967741012573,182.43408203125,-6.28662109375,55.6640625
1.7000141143798828,-1269662981,1,-0.5066996812820435,-0.3632909059524536,0.5280730724334717,-63.41552734375,-69.76318359375,-73.54736328125
1.7000219821929932,-1269662962,1,-0.5604106187820435,-0.1687108427286148,0.5556609630584717,-73.73046875,-60.4248046875,-91.24755859375
1.7000269889831543,-1269662943,1,-0.6573344469070435,0.05101572349667549,0.6071746349334717,-96.25244140625,-48.03466796875,-100.830078125
1.712751865386963,-1269662943,0,-0.2849963903427124,-0.6294926404953003,-0.7963370084762573,231.8115234375,10.92529296875,90.39306640625
1.7275829315185547,-1269662924,1,-0.7545024156570435,0.1984766572713852,0.6555144786834717,-121.15478515625,-49.560546875,-104.43115234375
1.7496099472045898,-1269662907,0,-0.3587268590927124,-0.6097172498703003,-1.0082510709762573,240.234375,85.51025390625,145.1416015625
1.7496180534362793,-1269662888,0,-0.5191272497177124,-0.5174320936203003,-1.0795401334762573,227.84423828125,122.49755859375,148.193359375
1.7578089237213135,-1269662905,1,-0.9046489000320435,0.2936915159225464,0.6611297130584717,-141.845703125,-53.77197265625,-94.05517578125
1.7578949928283691,-1269662886,1,-0.9490824937820435,0.2993067502975464,0.6987273693084717,-140.869140625,-49.01123046875,-73.91357421875
1.7727160453796387,-1269662869,0,-0.6331409215927124,-0.2918461263179779,-1.1159170866012573,182.373046875,144.53125,131.65283203125
1.7955598831176758,-1269662867,1,-1.0135356187820435,0.1484278291463852,0.8547332286834717,-68.84765625,-43.45703125,-88.68408203125
1.8028769493103027,-1269662850,0,-0.6829456090927124,0.0807124674320221,-1.3935049772262573,187.80517578125,119.140625,129.69970703125
1.8029909133911133,-1269662831,0,-0.8098987340927124,0.3309566080570221,-1.3830069303512573,106.62841796875,126.708984375,120.05615234375
1.817728042602539,-1269662831,1,-1.8094340562820435,3.137685537338257,0.34399107098579407,144.287109375,-88.19580078125,-153.25927734375
1.8439490795135498,-1269662812,0,-1.4263538122177124,1.6222163438796997,-1.9850577116012573,108.45947265625,-43.51806640625,83.67919921875
1.8484070301055908,-1269662812,1,-0.9100199937820435,1.6462305784225464,0.32250669598579407,-32.3486328125,-128.7841796875,-39.4287109375
1.848417043685913,-1269662793,1,-0.24839888513088226,0.8061426877975464,0.6457488536834717,-123.84033203125,-77.94189453125,11.65771484375
1.8653819561004639,-1269662793,0,-1.4844592809677124,1.4366694688796997,-1.6564444303512573,-29.9072265625,36.1328125,49.4384765625
1.8653929233551025,-1269662774,0,-0.8499377965927124,0.7872554063796997,-1.0233877897262573,-1.40380859375,118.0419921875,103.8818359375
1.8777108192443848,-1269662774,1,-0.43370160460472107,0.1374415010213852,0.7407195568084717,-97.16796875,2.74658203125,-33.26416015625
1.897925853729248,-1269662755,0,-0.2134631872177124,0.046044498682022095,-0.6513174772262573,-7.4462890625,86.5478515625,148.4375
1.8979341983795166,-1269662736,0,-0.019615523517131805,-0.4068363606929779,-0.5250967741012573,-28.1982421875,32.5927734375,116.2109375
1.9078559875488281,-1269662755,1,-0.6524516344070435,-0.2951756715774536,0.8500945568084717,-19.775390625,36.62109375,-22.216796875
1.907944917678833,-1269662736,1,-0.5848246812820435,-0.1945897489786148,0.9091765880584717,66.95556640625,41.8701171875,-12.3291015625
1.9451558589935303,-1269662717,1,-0.5501567125320435,0.08543954789638519,0.9550750255584717,125.1220703125,52.1240234375,-28.86962890625
1.953070878982544,-1269662717,0,0.0882946327328682,-0.5274418592453003,-0.4093741476535797,-54.26025390625,-21.30126953125,39.73388671875
1.9532029628753662,-1269662698,0,-0.0027698203921318054,-0.5010746717453003,-0.3729971945285797,-72.3876953125,-61.70654296875,-41.32080078125
1.9677720069885254,-1269662698,1,-0.6548930406570435,0.3034571409225464,0.8503386974334717,125.244140625,59.26513671875,-34.423828125
1.967886209487915,-1269662679,1,-0.7090922594070435,0.4055079221725464,0.8286101818084717,96.86279296875,51.81884765625,-30.2734375
1.9940071105957031,-1269662679,0,-0.1468127965927124,-0.4148930013179779,-0.4398917257785797,-81.60400390625,-81.54296875,-107.91015625
1.9987719058990479,-1269662660,1,-0.7601176500320435,0.4462794065475464,0.7868621349334717,66.0400390625,42.724609375,-9.1552734375
1.9987788200378418,-1269662641,1,-0.7684184312820435,0.3857325315475464,0.7358367443084717,27.28271484375,23.193359375,17.39501953125
2.0130817890167236,-1269662643,0,-0.3181995153427124,-0.2903812825679779,-0.4997061789035797,-98.81591796875,-93.75,-147.52197265625
2.013185977935791,-1269662624,0,-0.4209827184677124,-0.2549808919429779,-0.5033682584762573,-101.4404296875,-100.9521484375,-136.3525390625
2.028960943222046,-1269662622,1,-0.7144633531570435,0.2761133909225464,0.6403777599334717,-2.8076171875,15.93017578125,36.62109375
2.0478060245513916,-1269662605,0,-0.4585803747177124,-0.2771976888179779,-0.5797842741012573,-92.83447265625,-94.78759765625,-124.08447265625
2.0478148460388184,-1269662586,0,-0.4505237340927124,-0.3033207356929779,-0.6198233366012573,-65.73486328125,-75.86669921875,-101.74560546875
2.057699203491211,-1269662603,1,-0.5831156969070435,0.1767481416463852,0.6174285411834717,-19.47021484375,22.76611328125,46.08154296875
2.0725760459899902,-1269662567,0,-0.4502795934677124,-0.3343265950679779,-0.6720694303512573,-33.5693359375,-49.6826171875,-78.125
2.0962679386138916,-1269662567,1,-0.6104594469070435,-0.05298818275332451,0.5593230724334717,-38.26904296875,72.32666015625,41.32080078125
2.096276044845581,-1269662548,1,-0.7503520250320435,-0.2041112333536148,0.5490691661834717,-56.15234375,86.24267578125,38.9404296875
2.1027750968933105,-1269662548,0,-0.4568713903427124,-0.3604496419429779,-0.6798819303512573,6.7138671875,-27.34375,-51.1474609375
2.1028969287872314,-1269662529,0,-0.4837268590927124,-0.4427250325679779,-0.7133291959762573,45.8984375,-29.60205078125,-37.90283203125
2.1175429821014404,-1269662529,1,-0.8018656969070435,-0.3310643434524536,0.6093719005584717,-76.59912109375,82.21435546875,35.5224609375
2.1326348781585693,-1269662510,0,-0.4661487340927124,-0.4820316731929779,-0.7099112272262573,70.80078125,-32.16552734375,-48.095703125
2.148798942565918,-1269662510,1,-0.7842875719070435,-0.4760838747024536,0.6938445568084717,-99.42626953125,79.1015625,26.7333984375
2.148808002471924,-1269662491,1,-0.8243266344070435,-0.6125584840774536,0.6352508068084717,-116.63818359375,80.810546875,19.287109375
2.162853956222534,-1269662491,0,-0.4888538122177124,-0.4751957356929779,-0.7938956022262573,82.763671875,-38.02490234375,-61.34033203125
2.1629629135131836,-1269662472,0,-0.5874866247177124,-0.4937504231929779,-0.9555166959762573,92.1630859375,-50.35400390625,-86.73095703125
2.1777710914611816,-1269662472,1,-0.9354106187820435,-0.7316991090774536,0.5847136974334717,-122.98583984375,65.36865234375,10.7421875
2.1980791091918945,-1269662453,0,-0.6341174840927124,-0.4837406575679779,-1.0197256803512573,89.35546875,-54.6875,-121.03271484375
2.2115390300750732,-1269662453,1,-0.9112406969070435,-0.7297459840774536,0.5554168224334717,-125.18310546875,38.818359375,-4.08935546875
2.211549997329712,-1269662434,1,-0.8582621812820435,-0.6928807497024536,0.5385711193084717,-120.4833984375,31.18896484375,-29.4189453125
2.2228620052337646,-1269662434,0,-0.6844104528427124,-0.4385746419429779,-1.1110342741012573,64.14794921875,-49.62158203125,-143.98193359375
2.2229809761047363,-1269662415,0,-0.6905139684677124,-0.4119633138179779,-1.1415518522262573,37.04833984375,-32.89794921875,-150.20751953125
2.245727062225342,-1269662415,1,-0.9244242906570435,-0.5847264528274536,0.47851255536079407,-70.00732421875,51.33056640625,-35.82763671875
2.246454954147339,-1269662396,1,-1.0464946031570435,-0.1379491239786148,0.39916685223579407,52.67333984375,61.95068359375,-65.91796875
2.2535150051116943,-1269662379,0,-0.5691760778427124,-0.4363773763179779,-1.0365713834762573,-19.775390625,27.64892578125,-143.37158203125
2.26782488822937,-1269662377,1,-1.1788188219070435,0.4907130002975464,0.26879575848579407,149.47509765625,73.974609375,-80.56640625
2.2826619148254395,-1269662360,0,-0.4949573278427124,-0.4349125325679779,-0.8817862272262573,-37.41455078125,49.1943359375,-147.88818359375
2.2993760108947754,-1269662358,1,-1.2764750719070435,1.0651758909225464,0.16357113420963287,177.8564453125,55.84716796875,-30.029296875
2.299384117126465,-1269662339,1,-1.1675883531570435,1.4135645627975464,0.23217464983463287,68.78662109375,-1.708984375,23.193359375
2.313243865966797,-1269662341,0,-0.4619983434677124,-0.3743656575679779,-0.7064932584762573,-47.8515625,49.8046875,-150.81787109375
2.3133509159088135,-1269662322,0,-0.6651233434677124,-0.2088383138179779,-0.4643057882785797,-66.162109375,15.56396484375,-144.71435546875
2.349534034729004,-1269662303,0,-0.8982776403427124,-0.034521907567977905,-0.4552725851535797,-84.53369140625,-58.59375,-151.611328125
2.357806921005249,-1269662303,1,-0.7754985094070435,0.7951563596725464,0.42504575848579407,-129.08935546875,-38.63525390625,30.1513671875
2.357877016067505,-1269662284,1,-0.7535258531570435,0.5036524534225464,0.5219695568084717,-191.40625,-50.9033203125,30.6396484375
2.3727469444274902,-1269662284,0,-0.8855823278427124,0.045067936182022095,-0.6356924772262573,-60.791015625,-72.81494140625,-130.0048828125
2.372821092605591,-1269662265,0,-0.8387073278427124,-0.1060551106929779,-0.7274893522262573,-26.91650390625,-48.4619140625,-108.5205078125
2.397094964981079,-1269662265,1,-0.6873637437820435,0.3098047971725464,0.6169402599334717,-218.20068359375,-41.50390625,46.69189453125
2.397102117538452,-1269662246,1,-0.6839457750320435,-0.006357323378324509,0.6350066661834717,-214.9658203125,-22.8271484375,54.38232421875
2.402862787246704,-1269662246,0,-0.7024768590927124,-0.2488773763179779,-0.7394522428512573,6.2255859375,-23.8037109375,-98.93798828125
2.4029738903045654,-1269662227,0,-0.5196155309677124,-0.3096683919429779,-0.7028311491012573,35.46142578125,-27.40478515625,-81.9091796875
2.4167978763580322,-1269662227,1,-0.5811625719070435,-0.2331639677286148,0.6782195568084717,-169.921875,4.08935546875,45.5322265625
2.443450927734375,-1269662208,0,-0.4551624059677124,-0.3375004231929779,-0.7094229459762573,36.0107421875,-77.08740234375,-54.931640625
2.462048053741455,-1269662189,0,-0.4859241247177124,-0.4261234700679779,-0.8012198209762573,9.82666015625,-154.541015625,-52.91748046875
2.4627509117126465,-1269662170,0,-0.5503772497177124,-0.4207523763179779,-0.9293936491012573,-20.44677734375,-198.18115234375,-63.1103515625
2.478348970413208,-1269662208,1,-0.5731059312820435,-0.3537694215774536,0.7150847911834717,-89.66064453125,57.55615234375,33.5693359375
2.4784278869628906,-1269662189,1,-0.6072856187820435,-0.3095799684524536,0.7465789318084717,-21.78955078125,97.83935546875,31.43310546875
2.498034954071045,-1269662151,0,-0.5335315465927124,-0.3960941731929779,-0.9970206022262573,-55.60302734375,-183.4716796875,-60.97412109375
2.5079569816589355,-1269662170,1,-0.8113871812820435,-0.1306249052286148,0.7966277599334717,24.71923828125,138.61083984375,42.96875
2.5080618858337402,-1269662151,1,-1.0543071031570435,-0.007333885878324509,0.7934539318084717,35.15625,142.7001953125,41.56494140625
2.5229320526123047,-1269662115,0,-0.6197131872177124,-0.4285648763179779,-1.0355948209762573,-67.93212890625,-101.13525390625,-17.39501953125
2.545603036880493,-1269662132,1,-1.2444926500320435,-0.01709951087832451,0.7123992443084717,13.916015625,101.9287109375,20.5078125
2.545612096786499,-1269662113,1,-1.3189555406570435,-0.11426748335361481,0.6953094005584717,-2.01416015625,45.47119140625,-1.89208984375
2.552686929702759,-1269662096,0,-0.6433948278427124,-0.5166996717453003,-1.0167959928512573,-41.32080078125,-37.7197265625,13.00048828125
2.5529191493988037,-1269662077,0,-0.6216663122177124,-0.5665043592453003,-1.0104483366012573,-15.07568359375,13.73291015625,40.10009765625
2.5678999423980713,-1269662094,1,-1.1839457750320435,-0.2185155302286148,0.6782195568084717,-4.33349609375,-15.44189453125,-16.845703125
2.5680298805236816,-1269662075,1,-1.0516215562820435,-0.2473241239786148,0.6184051036834717,6.9580078125,-48.40087890625,-15.19775390625
2.5842409133911133,-1269662058,0,-0.5935901403427124,-0.5657719373703003,-0.9833487272262573,-10.25390625,40.771484375,50.29296875
2.6118409633636475,-1269662039,0,-0.5747913122177124,-0.6070317029953003,-0.8778799772262573,-23.62060546875,52.06298828125,53.955078125
2.6128997802734375,-1269662020,0,-0.5227893590927124,-0.6075199842453003,-0.7619131803512573,-36.865234375,52.67333984375,57.43408203125
2.6278421878814697,-1269662039,1,-0.9334574937820435,-0.2297459989786148,0.45898130536079407,48.2177734375,-40.4052734375,2.9296875
2.628006935119629,-1269662020,1,-0.9244242906570435,-0.2231542021036148,0.39965513348579407,63.720703125,-34.5458984375,14.892578125
2.649340867996216,-1269662001,0,-0.4410022497177124,-0.6175297498703003,-0.6913565397262573,-41.44287109375,52.30712890625,56.21337890625
2.657900094985962,-1269662001,1,-1.0013285875320435,-0.1789647489786148,0.28466489911079407,66.95556640625,-33.3251953125,21.3623046875
2.6579771041870117,-1269661982,1,-1.0696879625320435,-0.08863271772861481,0.18798519670963287,67.93212890625,-37.7197265625,38.0859375
2.6727890968322754,-1269661982,0,-0.3951038122177124,-0.5684574842453003,-0.6549795866012573,-35.2783203125,53.466796875,54.931640625
2.67297101020813,-1269661963,0,-0.3548206090927124,-0.5669926404953003,-0.6110342741012573,-26.55029296875,57.4951171875,47.42431640625
2.7019660472869873,-1269661944,0,-0.3423694372177124,-0.5450199842453003,-0.5863760709762573,-15.80810546875,60.11962890625,38.9404296875
2.7028610706329346,-1269661925,0,-0.3470081090927124,-0.4825199544429779,-0.5729483366012573,-10.986328125,57.9833984375,32.40966796875
2.7180869579315186,-1269661963,1,-0.9676371812820435,-0.02735341712832451,0.17016293108463287,67.56591796875,-41.748046875,59.814453125
2.7182400226593018,-1269661944,1,-0.9073344469070435,0.09203134477138519,0.20214535295963287,79.2236328125,-38.75732421875,40.34423828125
2.7182657718658447,-1269661925,1,-0.9185649156570435,0.3561915159225464,0.13915707170963287,115.90576171875,-35.33935546875,-5.92041015625
2.7326159477233887,-1269661906,0,-0.3919299840927124,-0.4141605794429779,-0.5766104459762573,-5.67626953125,54.26025390625,26.79443359375
2.749016046524048,-1269661906,1,-0.9520121812820435,0.5954493284225464,0.08007504045963287,125.1220703125,-33.5693359375,-18.6767578125
2.749022960662842,-1269661887,1,-0.8567973375320435,0.8478907346725464,0.14696957170963287,72.57080078125,-34.60693359375,-1.3427734375
2.762969970703125,-1269661887,0,-0.4143909215927124,-0.3714359700679779,-0.5961416959762573,-6.8359375,48.2177734375,22.76611328125
2.7779669761657715,-1269661868,1,-0.7332621812820435,0.8732813596725464,0.32445982098579407,-22.4609375,-25.93994140625,24.59716796875
2.797308921813965,-1269661851,0,-0.4217151403427124,-0.3294437825679779,-0.5995596647262573,0.3662109375,41.8701171875,9.6435546875
2.8077609539031982,-1269661849,1,-0.7335063219070435,0.6240137815475464,0.48119810223579407,-78.55224609375,-3.7841796875,43.701171875
2.8078501224517822,-1269661830,1,-0.7469340562820435,0.3867090940475464,0.6083953380584717,-84.16748046875,14.5263671875,51.45263671875
2.8232250213623047,-1269661832,0,-0.4632190465927124,-0.2439945638179779,-0.6015127897262573,4.45556640625,24.23095703125,-3.7841796875
2.8233091831207275,-1269661813,0,-0.5081409215927124,-0.1990726888179779,-0.6281241178512573,2.3193359375,-0.06103515625,-13.24462890625
2.8457658290863037,-1269661811,1,-0.7554789781570435,0.2023829072713852,0.7177703380584717,-54.99267578125,24.10888671875,61.34033203125
2.8527700901031494,-1269661794,0,-0.5262073278427124,-0.1661137044429779,-0.7082022428512573,-8.60595703125,-31.31103515625,-22.216796875
2.8528409004211426,-1269661775,0,-0.5660022497177124,-0.1163090169429779,-0.7797354459762573,-21.30126953125,-46.93603515625,-25.81787109375
2.867698907852173,-1269661775,1,-0.7188578844070435,0.11009775102138519,0.7114226818084717,-6.2255859375,11.04736328125,54.01611328125
2.882711172103882,-1269661756,0,-0.6204456090927124,-0.1343754231929779,-0.8405264616012573,-21.8505859375,-45.59326171875,-24.658203125
2.9012138843536377,-1269661756,1,-0.7459574937820435,0.1569727510213852,0.7040984630584717,-12.20703125,12.02392578125,35.58349609375
2.901221990585327,-1269661737,1,-0.8296977281570435,0.1357325166463852,0.6801726818084717,-31.982421875,17.333984375,13.427734375
2.9129958152770996,-1269661737,0,-0.6463245153427124,-0.1355961263179779,-0.8834952116012573,-13.00048828125,-40.22216796875,-23.681640625
2.9130818843841553,-1269661718,0,-0.6990588903427124,-0.0999515950679779,-0.9887198209762573,2.50244140625,-51.20849609375,-27.4658203125
2.9275598526000977,-1269661718,1,-0.9573832750320435,0.10252939164638519,0.6728484630584717,-48.095703125,19.34814453125,-3.35693359375
2.9483048915863037,-1269661699,0,-0.7071155309677124,-0.0940922200679779,-1.1527823209762573,5.43212890625,-65.12451171875,-30.57861328125
2.957859754562378,-1269661699,1,-1.0648051500320435,0.09105478227138519,0.7036101818084717,-53.5888671875,19.10400390625,-20.6298828125
2.9579579830169678,-1269661680,1,-1.1734477281570435,0.1474512666463852,0.7338836193084717,-31.6162109375,19.775390625,-21.42333984375
2.995180130004883,-1269661661,1,-1.2383891344070435,0.2101954072713852,0.7434051036834717,6.2255859375,15.68603515625,-7.87353515625
3.0028929710388184,-1269661680,0,-0.6931995153427124,-0.0816410481929779,-1.2196768522262573,-8.056640625,-65.0634765625,-38.2080078125
3.002946138381958,-1269661661,0,-0.6753772497177124,-0.0821293294429779,-1.2206534147262573,-23.25439453125,-52.91748046875,-44.7998046875
3.0037519931793213,-1269661642,0,-0.6448596715927124,-0.1006840169429779,-1.1520498991012573,-47.7294921875,-33.38623046875,-44.61669921875
3.003833055496216,-1269661623,0,-0.6280139684677124,-0.1158207356929779,-1.0966299772262573,-69.88525390625,-22.88818359375,-43.9453125
3.0177929401397705,-1269661642,1,-1.2581645250320435,0.2680567502975464,0.7082488536834717,33.99658203125,6.40869140625,11.90185546875
3.017906904220581,-1269661623,1,-1.2789164781570435,0.3105372190475464,0.6403777599334717,63.65966796875,-11.23046875,20.32470703125
3.049010992050171,-1269661604,1,-1.2610942125320435,0.3666895627975464,0.5854461193084717,78.4912109375,-21.3623046875,15.0146484375
3.0629818439483643,-1269661587,0,-0.6607288122177124,-0.1709965169429779,-0.9630850553512573,-111.9384765625,-42.48046875,-55.96923828125
3.063107967376709,-1269661568,0,-0.7188342809677124,-0.1873539388179779,-0.9774893522262573,-132.32421875,-66.5283203125,-72.3876953125
3.077883005142212,-1269661585,1,-1.2952739000320435,0.2751368284225464,0.5305144786834717,89.35546875,-28.74755859375,8.11767578125
3.0972769260406494,-1269661549,0,-0.7732776403427124,-0.1343754231929779,-1.0290030241012573,-160.7666015625,-98.08349609375,-92.041015625
3.1078898906707764,-1269661566,1,-1.3011332750320435,0.1266993135213852,0.5202605724334717,105.95703125,-44.677734375,-7.568359375
3.107996940612793,-1269661547,1,-1.3609477281570435,-0.1279393583536148,0.5908172130584717,150.69580078125,-70.9228515625,-44.7998046875
3.12321400642395,-1269661530,0,-0.8387073278427124,-0.0845707356929779,-1.0509756803512573,-186.5234375,-118.83544921875,-86.5478515625
3.123430013656616,-1269661511,0,-0.9160999059677124,-0.1385258138179779,-1.1002920866012573,-194.4580078125,-125.54931640625,-68.66455078125
3.145380973815918,-1269661511,1,-1.1190043687820435,-0.3471776247024536,0.6376922130584717,318.2373046875,-73.974609375,-132.01904296875
3.1526501178741455,-1269661492,0,-0.9558948278427124,-0.1424320638179779,-1.1195791959762573,-190.49072265625,-113.58642578125,-53.3447265625
3.1677908897399902,-1269661492,1,-1.0811625719070435,-0.2563573122024536,0.40331724286079407,401.611328125,-25.87890625,-137.51220703125
3.1679229736328125,-1269661473,1,-1.1085063219070435,0.2131250947713852,0.09838558733463287,424.9267578125,32.65380859375,-116.0888671875
3.1828291416168213,-1269661473,0,-0.9422229528427124,-0.1929691731929779,-1.0836905241012573,-181.33544921875,-86.60888671875,-26.55029296875
3.182898998260498,-1269661454,0,-0.7058948278427124,-0.4532230794429779,-1.0290030241012573,-211.12060546875,-112.85400390625,-23.0712890625
3.1991281509399414,-1269661454,1,-2.183945655822754,0.7971094846725464,-0.49023744463920593,343.81103515625,89.05029296875,-46.44775390625
3.212977886199951,-1269661435,0,-0.8528674840927124,-0.2876957356929779,-0.4860343039035797,-201.171875,-122.37548828125,-129.21142578125
3.213090181350708,-1269661416,0,-1.1211780309677124,-0.010596126317977905,-0.6608389616012573,-156.67724609375,-123.291015625,-58.837890625
3.227803945541382,-1269661435,1,-0.9444438219070435,1.0768946409225464,-0.27124330401420593,201.35498046875,74.89013671875,26.0009765625
3.227924108505249,-1269661416,1,-1.2657328844070435,0.7663477659225464,0.35253599286079407,106.14013671875,134.70458984375,21.05712890625
3.24812912940979,-1269661397,0,-1.1963733434677124,-0.0845707356929779,-0.8717764616012573,-138.97705078125,-83.80126953125,49.560546875
3.257767915725708,-1269661397,1,-1.1612406969070435,0.7473047971725464,0.43749693036079407,21.6064453125,97.412109375,67.626953125
3.2578470706939697,-1269661378,1,-1.0247660875320435,0.5239161252975464,0.5922820568084717,-2.99072265625,91.6748046875,120.91064453125
3.272883892059326,-1269661378,0,-0.9676135778427124,-0.3357914388179779,-0.9386709928512573,-115.05126953125,-27.2216796875,101.9287109375
3.2730000019073486,-1269661359,0,-0.8789905309677124,-0.3638676106929779,-0.9652823209762573,-92.6513671875,40.52734375,127.25830078125
3.296144962310791,-1269661359,1,-0.9024516344070435,0.5661524534225464,0.6347625255584717,9.33837890625,108.0322265625,139.46533203125
3.3172049522399902,-1269661340,1,-0.7947856187820435,0.6140040159225464,0.6164519786834717,33.935546875,134.765625,148.86474609375
3.3179330825805664,-1269661321,1,-0.8912211656570435,0.7255762815475464,0.5873992443084717,59.326171875,159.72900390625,148.25439453125
3.342453956604004,-1269661323,0,-0.9944690465927124,-0.0772465169429779,-0.7985342741012573,-95.5810546875,39.55078125,141.78466796875
3.3424620628356934,-1269661304,0,-1.0401233434677124,-0.0037601888179779053,-0.7995108366012573,-118.10302734375,-28.1982421875,154.4189453125
3.347599983215332,-1269661302,1,-0.8629008531570435,0.8344630002975464,0.5314910411834717,88.43994140625,183.89892578125,158.38623046875
3.362765073776245,-1269661285,0,-0.9771350622177124,0.0758296549320221,-0.8463858366012573,-139.46533203125,-86.97509765625,178.22265625
3.362879991531372,-1269661266,0,-0.9619983434677124,0.1297847330570221,-0.9423331022262573,-138.73291015625,-96.923828125,209.3505859375
3.378772020339966,-1269661283,1,-0.8487406969070435,0.9111231565475464,0.44799497723579407,98.57177734375,199.8291015625,172.54638671875
3.3974039554595947,-1269661247,0,-0.9309924840927124,0.1766597330570221,-0.9945791959762573,-138.36669921875,-74.70703125,231.38427734375
3.4078469276428223,-1269661247,1,-0.7415629625320435,0.8071192502975464,0.30273130536079407,89.35546875,203.7353515625,194.7021484375
3.4079489707946777,-1269661228,1,-0.6597758531570435,0.5939844846725464,0.29345396161079407,72.1435546875,191.22314453125,168.15185546875
3.4228060245513916,-1269661228,0,-0.7864612340927124,0.1571284830570221,-0.9384268522262573,-142.578125,-46.142578125,243.896484375
3.4228720664978027,-1269661209,0,-0.6824573278427124,0.2088862955570221,-0.8124502897262573,-149.7802734375,-30.6396484375,233.3984375
3.4453718662261963,-1269661209,1,-0.5135356187820435,0.5075587034225464,0.25097349286079407,84.8388671875,192.0166015625,154.84619140625
3.4530398845672607,-1269661190,0,-0.5933459997177124,0.2003413736820221,-0.6483877897262573,-166.44287109375,-33.26416015625,208.31298828125
3.4677650928497314,-1269661190,1,-0.49620160460472107,0.5410059690475464,0.21630550920963287,111.9384765625,201.66015625,162.53662109375
3.4678540229797363,-1269661171,1,-0.47349652647972107,0.6306055784225464,0.10693050920963287,117.0654296875,191.5283203125,173.828125
3.4828381538391113,-1269661171,0,-0.4759143590927124,0.1654292643070221,-0.4809073507785797,-169.61669921875,-42.236328125,186.279296875
3.4829399585723877,-1269661152,0,-0.4346545934677124,0.3011714518070221,-0.3168448507785797,-153.01513671875,-57.92236328125,151.30615234375
3.51177716255188,-1269661133,0,-0.3628772497177124,0.3250972330570221,-0.3073233664035797,-153.564453125,-68.603515625,153.564453125
3.5281190872192383,-1269661152,1,-0.34336957335472107,0.6384180784225464,0.000241059809923172,90.27099609375,166.07666015625,202.45361328125
3.5282909870147705,-1269661133,1,-0.22325240075588226,0.5139063596725464,-0.06982730329036713,63.90380859375,154.84619140625,181.33544921875
3.528311014175415,-1269661114,1,-0.10289107263088226,0.3886622190475464,-0.07007144391536713,45.34912109375,145.69091796875,160.64453125
3.5482969284057617,-1269661114,0,-0.2713245153427124,0.2787105143070221,-0.3017081320285797,-134.27734375,-53.64990234375,156.6162109375
3.5483059883117676,-1269661095,0,-0.2559436559677124,0.2433101236820221,-0.2409171164035797,-118.83544921875,-31.43310546875,145.6298828125
3.55777907371521,-1269661095,1,-0.045518022030591965,0.2748926877975464,-0.07544253766536713,49.6826171875,137.02392578125,157.40966796875
3.5578598976135254,-1269661076,1,0.08338822424411774,0.2575587034225464,-0.16870425641536713,65.61279296875,132.6904296875,136.29150390625
3.5725901126861572,-1269661059,0,-0.1817249059677124,0.2452632486820221,-0.043163202702999115,-113.28125,-13.7939453125,108.642578125
3.595870018005371,-1269661057,1,0.19178666174411774,0.2949122190475464,-0.23242495954036713,70.3125,139.83154296875,115.17333984375
3.6026999950408936,-1269661040,0,-0.1289905309677124,0.2186519205570221,0.07646570354700089,-104.91943359375,-19.34814453125,83.0078125
3.617763042449951,-1269661038,1,0.18470658361911774,0.2831934690475464,-0.25171205401420593,58.9599609375,136.04736328125,94.482421875
3.617893934249878,-1269661019,1,0.19105423986911774,0.2514551877975464,-0.23144839704036713,45.7763671875,121.76513671875,82.58056640625
3.645620107650757,-1269661021,0,-0.0794299766421318,0.1930171549320221,0.1606942117214203,-86.12060546875,-14.22119140625,60.60791015625
3.6456289291381836,-1269661002,0,-0.042564742267131805,0.1825191080570221,0.2512703835964203,-60.97412109375,-5.06591796875,47.8515625
3.6620419025421143,-1269660983,0,-0.053795211017131805,0.1649409830570221,0.3113289773464203,-34.60693359375,15.2587890625,37.29248046875
3.6777119636535645,-1269660983,1,0.24598588049411774,0.1564844697713852,-0.23535464704036713,17.63916015625,87.46337890625,58.41064453125
3.677833080291748,-1269660964,1,0.28431597352027893,0.1276758760213852,-0.21777652204036713,5.2490234375,65.673828125,38.51318359375
3.698184013366699,-1269660964,0,-0.0972522422671318,0.1402827799320221,0.3252449929714203,1.220703125,31.005859375,20.6298828125
3.6981940269470215,-1269660945,0,-0.1421741247177124,0.1703120768070221,0.3237801492214203,27.34375,23.98681640625,9.21630859375
3.7080330848693848,-1269660945,1,0.37440386414527893,0.1733301728963852,-0.21167300641536713,-13.671875,46.44775390625,10.3759765625
3.708112955093384,-1269660926,1,0.43226519227027893,0.1682032197713852,-0.17944644391536713,-31.005859375,44.0673828125,-6.34765625
3.725512981414795,-1269660926,0,-0.1504749059677124,0.1856929361820221,0.3105965554714203,33.14208984375,16.6015625,-5.9814453125
3.725522994995117,-1269660907,0,-0.2176135778427124,0.2093745768070221,0.2246590554714203,44.49462890625,7.32421875,-33.87451171875
3.7464709281921387,-1269660907,1,0.36244097352027893,0.11986337602138519,-0.13403628766536713,-56.5185546875,37.78076171875,-29.11376953125
3.753070116043091,-1269660888,0,-0.2896350622177124,0.2350093424320221,0.1958504617214203,84.89990234375,8.544921875,-46.81396484375
3.768174171447754,-1269660888,1,0.27650347352027893,0.09813486039638519,-0.08838199079036713,-66.83349609375,28.13720703125,-65.0634765625
3.782841920852661,-1269660869,0,-0.3467639684677124,0.2291499674320221,0.12382898479700089,120.2392578125,22.705078125,-57.2509765625
3.7829368114471436,-1269660850,0,-0.4075549840927124,0.2474605143070221,0.09697351604700089,134.82666015625,34.912109375,-63.5986328125
3.7985680103302,-1269660869,1,0.21790970861911774,0.1564844697713852,-0.05029604956507683,-55.72509765625,13.5498046875,-107.7880859375
3.7985758781433105,-1269660850,1,0.21082963049411774,0.2326563447713852,-0.04687808081507683,-40.771484375,2.197265625,-127.62451171875
3.8272600173950195,-1269660831,1,0.21253861486911774,0.2131250947713852,-0.012210112065076828,-44.98291015625,-19.8974609375,-123.046875
3.8283300399780273,-1269660812,1,0.32826128602027893,0.2646387815475464,-0.03174136206507683,-72.021484375,-51.26953125,-120.361328125
3.8451011180877686,-1269660831,0,-0.4549182653427124,0.2520991861820221,0.052539922297000885,133.9111328125,23.98681640625,-67.87109375
3.845108985900879,-1269660795,0,-0.5796741247177124,0.0907222330570221,-0.1864737570285797,147.88818359375,-1.46484375,-69.51904296875
3.8577048778533936,-1269660793,1,0.25990191102027893,0.2399805635213852,-0.001956205815076828,-119.62890625,-48.095703125,-146.17919921875
3.872943878173828,-1269660776,0,-0.6465686559677124,0.0643550455570221,-0.4152335226535797,167.6025390625,-0.8544921875,-66.10107421875
3.8730199337005615,-1269660757,0,-0.6270374059677124,-0.0015629231929779053,-0.4801749289035797,156.06689453125,2.99072265625,-59.4482421875
3.8958189487457275,-1269660774,1,0.14832963049411774,0.2260645478963852,0.09130550920963287,-137.75634765625,-19.34814453125,-208.31298828125
3.895827054977417,-1269660755,1,-0.049912553280591965,0.2509669065475464,0.22192074358463287,-124.32861328125,26.7333984375,-272.39990234375
3.9027090072631836,-1269660738,0,-0.6888049840927124,-0.1568363606929779,-0.4914053976535797,152.099609375,-8.7890625,-62.744140625
3.9177119731903076,-1269660719,1,-0.45982465147972107,0.4604395627975464,0.5549285411834717,-116.02783203125,78.369140625,-313.90380859375
3.9342458248138428,-1269660719,0,-0.7610706090927124,-0.2317875325679779,-0.5226553678512573,159.0576171875,-41.6259765625,-90.33203125
3.944368839263916,-1269660700,0,-0.7813342809677124,-0.2449711263179779,-0.6916006803512573,180.17578125,-70.3125,-102.72216796875
3.950023889541626,-1269660700,1,-0.7256938219070435,0.5419825315475464,0.7001922130584717,-132.2021484375,78.43017578125,-347.22900390625
3.9628829956054688,-1269660681,0,-0.7981799840927124,-0.3116215169429779,-0.8988760709762573,219.05517578125,-65.91796875,-96.49658203125
3.9968841075897217,-1269660662,0,-0.8782581090927124,-0.3807133138179779,-1.0043448209762573,249.93896484375,-51.45263671875,-88.8671875
4.007866859436035,-1269660681,1,-1.0843364000320435,0.5146387815475464,0.8220183849334717,-151.67236328125,60.1806640625,-395.93505859375
4.007982015609741,-1269660662,1,-1.1653910875320435,0.3115137815475464,0.9243133068084717,-129.82177734375,22.3388671875,-434.08203125
4.045337915420532,-1269660643,1,-1.4241801500320435,0.1435450166463852,0.9433562755584717,-67.138671875,-13.97705078125,-417.90771484375
4.046046018600464,-1269660624,1,-1.6653910875320435,-0.009287010878324509,0.9050261974334717,15.5029296875,-62.80517578125,-330.87158203125
4.0529539585113525,-1269660643,0,-1.0032581090927124,-0.3575199544429779,-1.0812491178512573,262.87841796875,-36.43798828125,-85.99853515625
4.053010940551758,-1269660624,0,-1.0235217809677124,-0.4124515950679779,-1.0866202116012573,251.953125,-36.2548828125,-86.181640625
4.054166078567505,-1269660605,0,-1.0440295934677124,-0.4739750325679779,-1.1225088834762573,249.45068359375,-38.26904296875,-82.21435546875
4.054229021072388,-1269660586,0,-1.0813831090927124,-0.5223149061203003,-1.1322745084762573,252.197265625,-30.1513671875,-64.0869140625
4.071065902709961,-1269660605,1,-1.6400004625320435,0.06102548912167549,0.8742644786834717,139.5263671875,-136.5966796875,-202.33154296875
4.071080923080444,-1269660586,1,-1.6671000719070435,-0.1523534208536148,0.6484344005584717,181.70166015625,-180.60302734375,-175.6591796875
4.071089029312134,-1269660567,1,-1.7654887437820435,-0.4248143434524536,0.41259458661079407,184.4482421875,-194.27490234375,-211.73095703125
4.08290696144104,-1269660567,0,-1.0423206090927124,-0.6531742811203003,-1.1498526334762573,265.56396484375,-3.0517578125,-47.42431640625
4.0988428592681885,-1269660548,1,-1.9090434312820435,-0.4995213747024536,0.27611997723579407,190.5517578125,-183.349609375,-266.9677734375
4.114094972610474,-1269660531,0,-1.0454944372177124,-0.9112309217453003,-1.0468252897262573,284.11865234375,29.72412109375,-53.955078125
4.12795090675354,-1269660529,1,-1.9918071031570435,-0.5075780153274536,0.10961605608463287,208.55712890625,-165.1611328125,-300.96435546875
4.12806510925293,-1269660510,1,-2.078965187072754,-0.5583592653274536,0.04833676293492317,235.53466796875,-156.79931640625,-298.03466796875
4.148164987564087,-1269660512,0,-1.0616077184677124,-1.0020512342453003,-1.0802725553512573,301.1474609375,17.2119140625,-67.68798828125
4.148174047470093,-1269660493,0,-1.1419299840927124,-1.0027836561203003,-1.1608389616012573,311.279296875,-0.244140625,-68.115234375
4.158274173736572,-1269660491,1,-2.092881202697754,-0.4807225465774536,0.13158871233463287,241.3330078125,-176.1474609375,-305.908203125
4.172806978225708,-1269660474,0,-1.2010120153427124,-0.9698246717453003,-1.3605459928512573,310.60791015625,-16.90673828125,-55.7861328125
4.172940969467163,-1269660455,0,-1.1836780309677124,-1.1185063123703003,-1.4247549772262573,308.2275390625,-3.41796875,-38.87939453125
4.201884984970093,-1269660436,0,-1.2437366247177124,-1.1810063123703003,-1.4027823209762573,297.36328125,16.05224609375,-28.50341796875
4.217913866043091,-1269660455,1,-2.093857765197754,-0.6145116090774536,0.27001646161079407,214.9658203125,-180.11474609375,-328.06396484375
4.217998027801514,-1269660436,1,-2.006211280822754,-0.6826268434524536,0.08764339983463287,266.78466796875,-112.48779296875,-330.38330078125
4.218707084655762,-1269660417,1,-2.104111671447754,-0.5781346559524536,0.14306332170963287,311.95068359375,-62.6220703125,-310.302734375
4.232899188995361,-1269660417,0,-1.4634631872177124,-1.2645024061203003,-1.3888663053512573,293.88427734375,25.634765625,-27.83203125
4.232973098754883,-1269660398,0,-1.6802600622177124,-1.2955082654953003,-1.4042471647262573,284.97314453125,18.310546875,6.28662109375
4.251107931137085,-1269660398,1,-2.300156593322754,-0.1765233427286148,0.25561216473579407,312.8662109375,-20.99609375,-279.052734375
4.2628679275512695,-1269660379,0,-1.8096545934677124,-1.3367680311203003,-1.4567373991012573,302.79541015625,9.46044921875,67.07763671875
4.277774810791016,-1269660379,1,-2.452500343322754,0.11083017289638519,0.33105161786079407,252.5634765625,-10.31494140625,-238.525390625
4.277858018875122,-1269660360,1,-2.565537452697754,-0.0017186515033245087,0.47607114911079407,243.1640625,18.4326171875,-199.951171875
4.300725936889648,-1269660360,0,-1.8184436559677124,-1.3931645154953003,-1.5954092741012573,301.08642578125,-14.892578125,107.5439453125
4.300734043121338,-1269660341,0,-1.6463245153427124,-1.4561527967453003,-1.6620596647262573,278.74755859375,-14.83154296875,137.63427734375
4.307607173919678,-1269660341,1,-2.682724952697754,-0.2519627809524536,0.45873716473579407,313.17138671875,65.97900390625,-154.96826171875
4.32274317741394,-1269660322,0,-1.4417346715927124,-1.5125492811203003,-1.6249502897262573,266.357421875,-0.3662109375,170.2880859375
4.345361948013306,-1269660322,1,-3.108262062072754,-0.6594334840774536,0.003170747309923172,442.32177734375,133.6669921875,-87.46337890625
4.346060037612915,-1269660303,1,-2.922471046447754,-0.6504002809524536,-0.37549135088920593,520.263671875,150.81787109375,-22.3388671875
4.352735996246338,-1269660303,0,-1.4170764684677124,-1.5608891248703003,-1.6544913053512573,264.2822265625,4.638671875,197.08251953125
4.367609977722168,-1269660284,1,-2.362900733947754,-0.4870702028274536,-0.34326478838920593,493.46923828125,171.875,56.15234375
4.39452600479126,-1269660267,0,-1.3570178747177124,-1.4722660779953003,-1.6737784147262573,187.92724609375,-49.62158203125,218.8720703125
4.39453387260437,-1269660248,0,-1.2542346715927124,-1.3531254529953003,-1.6403311491012573,182.2509765625,-41.3818359375,235.04638671875
4.398903131484985,-1269660265,1,-2.196152687072754,-0.6479588747024536,-0.031008940190076828,394.71435546875,199.0966796875,98.81591796875
4.398910045623779,-1269660246,1,-1.9717875719070435,-1.3437596559524536,0.6240203380584717,284.66796875,211.181640625,105.712890625
4.413393020629883,-1269660229,0,-1.0423206090927124,-1.2811039686203003,-1.5175284147262573,156.55517578125,-46.630859375,273.92578125
4.428092956542969,-1269660227,1,-1.7259379625320435,-1.7417088747024536,1.2031219005584717,323.1201171875,293.701171875,125.67138671875
4.4480907917022705,-1269660210,0,-0.9046252965927124,-1.3267582654953003,-1.3808096647262573,119.9951171875,-50.78125,297.36328125
4.448099136352539,-1269660191,0,-0.7386096715927124,-1.3233402967453003,-1.2685049772262573,102.783203125,-53.77197265625,318.115234375
4.471652984619141,-1269660172,0,-0.7036975622177124,-1.3206547498703003,-1.0768545866012573,97.10693359375,-62.255859375,314.75830078125
4.49462103843689,-1269660191,1,-2.115097999572754,-0.7290135622024536,1.2443816661834717,361.51123046875,308.7158203125,181.640625
4.49462890625,-1269660172,1,-1.8204203844070435,-0.7573338747024536,1.1315886974334717,189.75830078125,187.6220703125,130.2490234375
4.494635105133057,-1269660153,1,-1.0923930406570435,-1.1394139528274536,0.9316375255584717,109.92431640625,133.4228515625,80.4443359375
4.503192186355591,-1269660153,0,-0.5535510778427124,-1.2125004529953003,-0.9042471647262573,79.58984375,-94.54345703125,290.46630859375
4.503200054168701,-1269660134,0,-0.4178088903427124,-1.0120609998703003,-0.7489737272262573,73.54736328125,-128.7841796875,272.705078125
4.517669916152954,-1269660134,1,-0.26915082335472107,-1.1789647340774536,0.49584653973579407,130.0048828125,215.2099609375,-6.9580078125
4.543967008590698,-1269660115,0,-0.5647815465927124,-0.7674320936203003,-0.5766104459762573,89.111328125,-141.90673828125,289.61181640625
4.5439770221710205,-1269660096,0,-0.5616077184677124,-0.7337406873703003,-0.5373038053512573,101.37939453125,-142.7001953125,313.17138671875
4.5617969036102295,-1269660077,0,-0.4388049840927124,-0.8379887342453003,-0.5805166959762573,90.88134765625,-139.34326171875,315.73486328125
4.577838897705078,-1269660115,1,-1.1763774156570435,-0.1928807646036148,0.35546568036079407,158.203125,353.33251953125,-16.90673828125
4.57795786857605,-1269660096,1,-1.6475688219070435,0.2844141721725464,0.48949888348579407,80.50537109375,351.37939453125,15.7470703125
4.579391002655029,-1269660077,1,-1.4400492906570435,-0.2915135622024536,0.6516082286834717,2.3193359375,321.71630859375,12.6953125
4.579491853713989,-1269660058,1,-1.4153910875320435,-0.4165135622024536,0.7651336193084717,19.22607421875,306.640625,40.58837890625
4.599761962890625,-1269660058,0,-0.3152698278427124,-0.7334965467453003,-0.5326651334762573,72.69287109375,-122.9248046875,284.5458984375
4.599769830703735,-1269660039,0,-0.2664417028427124,-0.5677250623703003,-0.3805655539035797,69.82421875,-100.2197265625,249.3896484375
4.608038902282715,-1269660039,1,-1.2601176500320435,0.11864267289638519,0.5102508068084717,40.6494140625,299.8046875,56.2744140625
4.644963026046753,-1269660020,1,-1.1595317125320435,0.4133204221725464,0.08617855608463287,-11.53564453125,314.94140625,83.251953125
4.645662069320679,-1269660001,1,-1.2498637437820435,0.3679102659225464,-0.09472964704036713,-60.05859375,349.06005859375,132.8125
4.653082847595215,-1269660003,0,-0.1653674840927124,-0.2559574544429779,-0.1769522726535797,57.9833984375,-115.8447265625,226.74560546875
4.653120994567871,-1269659984,0,-0.1682971715927124,-0.060156673192977905,-0.1381339132785797,57.31201171875,-122.0703125,242.0654296875
4.667641878128052,-1269659982,1,-1.4944926500320435,0.006093848496675491,0.03661801293492317,-85.75439453125,364.501953125,171.38671875
4.693400144577026,-1269659965,0,-0.1277698278427124,0.012108951807022095,-0.07416906207799911,64.27001953125,-112.60986328125,262.51220703125
4.693408966064453,-1269659946,0,-0.0862659141421318,-0.036963313817977905,0.11748132854700089,86.73095703125,-106.87255859375,255.615234375
4.697923898696899,-1269659963,1,-1.4730082750320435,-0.4345799684524536,0.41698911786079407,-62.01171875,308.7158203125,143.98193359375
4.7128541469573975,-1269659927,0,-0.0640491172671318,0.030175358057022095,0.1785164773464203,83.55712890625,-133.6669921875,236.2060546875
4.727841138839722,-1269659927,1,-0.9134379625320435,-0.08497060835361481,0.24999691545963287,46.630859375,292.66357421875,58.2275390625
4.727956056594849,-1269659908,1,-0.7200785875320435,0.1943262666463852,0.06933285295963287,34.24072265625,302.30712890625,47.30224609375
4.7483861446380615,-1269659908,0,-0.1353381872177124,0.1107417643070221,0.018116094172000885,68.17626953125,-168.15185546875,234.130859375
4.748394012451172,-1269659889,0,-0.050865523517131805,0.2442866861820221,-0.1718253195285797,59.6923828125,-149.4140625,233.21533203125
4.757519960403442,-1269659889,1,-0.5572367906570435,0.2849024534225464,-0.018313627690076828,-22.15576171875,306.82373046875,55.6640625
4.772728204727173,-1269659870,0,0.1837536096572876,0.3912593424320221,-0.2511710226535797,55.5419921875,-103.45458984375,238.28125
4.7959160804748535,-1269659870,1,-0.5262309312820435,0.1794336885213852,-0.05322573706507683,-75.8056640625,307.861328125,65.12451171875
4.79592490196228,-1269659851,1,-0.5052348375320435,-0.08008779585361481,-0.04199526831507683,-125.1220703125,307.18994140625,68.7255859375
4.802713871002197,-1269659851,0,0.3219372034072876,0.4261714518070221,-0.2699698507785797,56.2744140625,-69.3359375,229.43115234375
4.802897930145264,-1269659832,0,0.3683239221572876,0.5157710313796997,-0.3239249289035797,57.6171875,-39.1845703125,211.3037109375
4.817688941955566,-1269659832,1,-0.48472699522972107,-0.3095799684524536,-0.022952299565076828,-139.6484375,287.2314453125,61.767578125
4.832630157470703,-1269659813,0,0.3902965784072876,0.6939936876296997,-0.3969229757785797,49.4384765625,-15.2587890625,215.576171875
4.8492748737335205,-1269659813,1,-0.40464887022972107,-0.3877049684524536,0.04125668480992317,-130.859375,258.1787109375,43.39599609375
4.849294185638428,-1269659794,1,-0.30162152647972107,-0.3857518434524536,0.10204769670963287,-125.0,251.64794921875,39.0625
4.862928867340088,-1269659794,0,0.4327770471572876,0.8106929063796997,-0.3559073507785797,35.09521484375,1.953125,248.1689453125
4.86301589012146,-1269659775,0,0.5284801721572876,0.7965327501296997,-0.2746085226535797,26.4892578125,10.3759765625,275.81787109375
4.877758026123047,-1269659775,1,-0.27012738585472107,-0.3540135622024536,0.17138363420963287,-124.93896484375,257.38525390625,41.3818359375
4.87786078453064,-1269659756,1,-0.17613326013088226,-0.3376561403274536,0.19115902483463287,-138.7939453125,252.9296875,39.24560546875
4.900307893753052,-1269659739,0,0.7279430627822876,0.5379878282546997,-0.049022577702999115,59.814453125,36.92626953125,304.99267578125
4.9217259883880615,-1269659720,0,0.8580700159072876,0.4977046549320221,0.050342656672000885,81.787109375,26.30615234375,291.50390625
4.9473748207092285,-1269659737,1,-0.10728560388088226,-0.4138280153274536,0.21874691545963287,-154.72412109375,249.3896484375,40.10009765625
4.9473841190338135,-1269659718,1,-0.08043013513088226,-0.4516698122024536,0.20751644670963287,-163.4521484375,252.8076171875,41.93115234375
4.9481611251831055,-1269659699,1,-0.048203568905591965,-0.5456639528274536,0.18969418108463287,-173.03466796875,253.96728515625,41.3818359375
4.952962160110474,-1269659701,0,1.0087047815322876,0.4940425455570221,0.032520391047000885,92.10205078125,-10.7421875,269.53125
4.953060865402222,-1269659682,0,1.0902477502822876,0.4930659830570221,-0.039989374577999115,97.5341796875,-45.0439453125,243.65234375
4.981956958770752,-1269659663,0,1.1036754846572876,0.5111323595046997,-0.10053624957799911,112.73193359375,-54.62646484375,215.087890625
4.998867988586426,-1269659663,1,-0.004258256405591965,-0.6713963747024536,0.18603207170963287,-183.89892578125,279.6630859375,8.72802734375
4.998875856399536,-1269659644,1,-0.021348100155591965,-0.6743260622024536,0.19750668108463287,-181.884765625,301.6357421875,-31.43310546875
5.013298988342285,-1269659644,0,1.1727672815322876,0.5287104845046997,-0.1666983664035797,130.615234375,-63.17138671875,199.70703125
5.013419151306152,-1269659625,0,1.2538219690322876,0.5401850938796997,-0.2291983664035797,145.32470703125,-82.763671875,183.4716796875
5.027863025665283,-1269659625,1,-0.13902388513088226,-0.6408787965774536,0.20287777483463287,-180.6640625,340.63720703125,-63.78173828125
5.027901887893677,-1269659606,1,-0.24717818200588226,-0.5534764528274536,0.21093441545963287,-171.142578125,373.53515625,-78.06396484375
5.048313856124878,-1269659606,0,1.2418590784072876,0.5072261095046997,-0.3385733664035797,154.96826171875,-95.3369140625,148.0712890625
5.048323154449463,-1269659587,0,1.2377086877822876,0.5931636095046997,-0.4550284445285797,165.0390625,-88.9892578125,121.826171875
5.094280004501343,-1269659587,1,-0.44688519835472107,-0.3027440309524536,0.28075864911079407,-156.31103515625,427.18505859375,-96.74072265625
5.0942888259887695,-1269659568,1,-0.7437602281570435,0.1989649385213852,0.40478208661079407,-175.96435546875,477.05078125,-119.62890625
5.09429407119751,-1269659549,1,-1.0289164781570435,0.8347071409225464,0.6252410411834717,-266.41845703125,519.287109375,-122.37548828125
5.103111982345581,-1269659568,0,1.2777477502822876,0.5833979845046997,-0.6195791959762573,209.53369140625,-52.734375,121.76513671875
5.103248834609985,-1269659549,0,1.2831188440322876,0.5548335313796997,-0.8236807584762573,260.009765625,-9.58251953125,110.41259765625
5.103334903717041,-1269659530,0,1.3011852502822876,0.5633784532546997,-0.9933584928512573,278.6865234375,15.56396484375,96.3134765625
5.11777400970459,-1269659530,1,-1.3594828844070435,1.3979395627975464,0.8657195568084717,-347.71728515625,559.6923828125,-80.6884765625
5.132654905319214,-1269659511,0,1.2928844690322876,0.5143061876296997,-1.1886709928512573,267.333984375,36.19384765625,65.91796875
5.148571968078613,-1269659511,1,-1.7191020250320435,2.134755849838257,1.1157195568084717,-403.86962890625,652.4658203125,50.72021484375
5.148579835891724,-1269659492,1,-2.415635108947754,2.503652334213257,1.5485808849334717,-463.92822265625,781.67724609375,171.630859375
5.162761926651001,-1269659475,0,1.0582653284072876,0.5777827501296997,-1.5807608366012573,242.61474609375,48.03466796875,26.9775390625
5.177654981613159,-1269659473,1,-3.149765968322754,2.115957021713257,3.3168914318084717,-488.22021484375,764.22119140625,231.75048828125
5.197906017303467,-1269659456,0,0.9813610315322876,0.7105952501296997,-1.7504385709762573,240.90576171875,84.3505859375,36.31591796875
5.197913885116577,-1269659437,0,0.8546520471572876,0.7403804063796997,-1.7663077116012573,226.62353515625,129.2724609375,65.673828125
5.207835912704468,-1269659454,1,-3.184433937072754,1.6982325315475464,5.207028388977051,-410.94970703125,537.109375,263.48876953125
5.20793604850769,-1269659435,1,-2.735947608947754,0.8522852659225464,5.208249092102051,-144.6533203125,50.23193359375,291.07666015625
5.222810983657837,-1269659418,0,0.7416149377822876,0.6485835313796997,-1.7028311491012573,204.40673828125,145.93505859375,91.49169921875
5.245626926422119,-1269659399,1,-1.1207133531570435,0.4733790159225464,0.39843443036079407,-322.20458984375,-51.57470703125,232.97119140625
5.252861022949219,-1269659399,0,0.7362438440322876,0.4393550455570221,-1.5685538053512573,161.1328125,155.57861328125,106.3232421875
5.252964973449707,-1269659380,0,0.8214489221572876,0.059228092432022095,-1.3031729459762573,114.92919921875,160.0341796875,105.16357421875
5.282006025314331,-1269659361,0,0.8378063440322876,-0.3260258138179779,-1.0631827116012573,61.46240234375,145.81298828125,96.6796875
5.29863715171814,-1269659380,1,-0.7078715562820435,-0.3230077028274536,0.6130340099334717,-408.87451171875,66.5283203125,278.86962890625
5.298648118972778,-1269659361,1,-1.8306742906570435,-0.7978612184524536,0.9616668224334717,-260.07080078125,57.06787109375,339.7216796875
5.29979395866394,-1269659342,1,-2.000351905822754,-0.8667088747024536,1.1164519786834717,36.31591796875,-165.771484375,455.50537109375
5.319033861160278,-1269659342,0,0.8478161096572876,-0.6224125623703003,-0.9147452116012573,41.07666015625,128.41796875,83.43505859375
5.319095134735107,-1269659323,0,0.7870250940322876,-0.7867192029953003,-0.9621084928512573,96.00830078125,109.80224609375,30.82275390625
5.327845811843872,-1269659323,1,-1.3409281969070435,-1.8842869997024536,1.0651824474334717,19.1650390625,-188.232421875,440.5517578125
5.347927093505859,-1269659304,0,0.6993786096572876,-0.6568363904953003,-1.2509268522262573,199.15771484375,112.73193359375,-33.0810546875
5.347935914993286,-1269659285,0,0.6012340784072876,-0.4874027669429779,-1.5644034147262573,291.9921875,141.4794921875,-77.2705078125
5.3566060066223145,-1269659304,1,-1.1046000719070435,-1.6901952028274536,0.9750945568084717,70.6787109375,-152.7099609375,373.4130859375
5.357689142227173,-1269659285,1,-0.9556742906570435,-1.7705174684524536,1.1367156505584717,53.64990234375,-132.9345703125,300.72021484375
5.3730010986328125,-1269659266,0,0.5028454065322876,-0.3509281575679779,-1.7567862272262573,315.73486328125,147.4609375,-103.69873046875
5.395039081573486,-1269659266,1,-0.5923930406570435,-1.8916112184524536,1.2839324474334717,102.294921875,-128.41796875,233.3984375
5.395046949386597,-1269659247,1,-0.45811566710472107,-1.6132909059524536,1.1660125255584717,160.7666015625,-136.29150390625,185.791015625
5.402747869491577,-1269659247,0,0.3849254846572876,-0.3431156575679779,-1.8400381803512573,286.2548828125,149.47509765625,-157.16552734375
5.4176881313323975,-1269659228,1,-0.10289107263088226,-1.4506932497024536,1.0432097911834717,182.92236328125,-158.0810546875,104.6142578125
5.443920850753784,-1269659211,0,0.020179398357868195,-0.1824711263179779,-1.6901358366012573,206.9091796875,145.93505859375,-253.173828125
5.448079824447632,-1269659209,1,0.037978071719408035,-1.1416112184524536,0.8798797130584717,190.49072265625,-160.82763671875,38.87939453125
5.448086977005005,-1269659190,1,0.20838822424411774,-1.0271092653274536,0.7651336193084717,190.36865234375,-158.26416015625,-11.474609375
5.462937831878662,-1269659192,0,-0.1346057653427124,-0.040137141942977905,-1.4352530241012573,185.72998046875,157.71484375,-272.76611328125
5.463043928146362,-1269659173,0,-0.3584827184677124,0.0760737955570221,-1.1796377897262573,196.35009765625,182.373046875,-264.7705078125
5.478168964385986,-1269659171,1,0.33363237977027893,-0.9629002809524536,0.7033660411834717,203.369140625,-141.29638671875,-46.44775390625
5.498306035995483,-1269659154,0,-0.3897327184677124,0.0880366861820221,-0.7978018522262573,243.5302734375,212.70751953125,-259.21630859375
5.498313903808594,-1269659135,0,-0.4549182653427124,0.3231441080570221,-0.6139639616012573,233.45947265625,157.28759765625,-267.333984375
5.508056879043579,-1269659135,1,0.35536089539527893,-0.8613377809524536,0.5756804943084717,228.08837890625,-106.99462890625,-125.79345703125
5.522830009460449,-1269659116,0,-0.3406604528427124,0.3236323893070221,-0.5290030241012573,163.9404296875,81.23779296875,-279.4189453125
5.546126842498779,-1269659116,1,0.27381792664527893,-0.6821385622024536,0.5031707286834717,256.77490234375,-91.4306640625,-172.30224609375
5.546133995056152,-1269659097,1,0.039198774844408035,-0.6191502809524536,0.41650083661079407,269.6533203125,-92.95654296875,-207.1533203125
5.553025007247925,-1269659097,0,-0.1983264684677124,0.041894108057022095,-0.4330557882785797,151.55029296875,51.69677734375,-312.56103515625
5.553117990493774,-1269659078,0,-0.2454456090927124,-0.2081058919429779,-0.5102041959762573,148.62060546875,61.70654296875,-367.37060546875
5.568629026412964,-1269659078,1,-0.022568803280591965,-0.7312108278274536,0.35961607098579407,286.7431640625,-100.03662109375,-227.294921875
5.612065076828003,-1269659059,0,-0.6407092809677124,-0.1282719075679779,-0.5602530241012573,116.69921875,60.48583984375,-364.92919921875
5.6125640869140625,-1269659040,0,-0.8106311559677124,-0.018896907567977905,-0.7116202116012573,43.9453125,11.53564453125,-309.14306640625
5.628248929977417,-1269659059,1,-0.12681685388088226,-0.7949315309524536,0.35278013348579407,310.05859375,-93.93310546875,-242.0654296875
5.62825608253479,-1269659040,1,-0.5020610094070435,-0.8259373903274536,0.37109068036079407,331.1767578125,-110.77880859375,-292.8466796875
5.628861904144287,-1269659021,1,-0.9463969469070435,-0.8212987184524536,0.32445982098579407,351.01318359375,-190.85693359375,-397.64404296875
5.647507905960083,-1269659021,0,-0.6538928747177124,-0.1485355794429779,-0.7741202116012573,-54.19921875,-9.33837890625,-264.83154296875
5.6475160121917725,-1269659002,0,-0.4121936559677124,-0.3294437825679779,-0.9633291959762573,-128.7841796875,-3.41796875,-269.287109375
5.657910108566284,-1269659002,1,-1.6097270250320435,-0.8095799684524536,0.09692074358463287,343.8720703125,-313.41552734375,-524.59716796875
5.658005952835083,-1269658983,1,-2.129258155822754,-0.8855077028274536,-0.04492495581507683,306.5185546875,-385.498046875,-602.9052734375
5.673046112060547,-1269658983,0,-0.4197620153427124,-0.4537113606929779,-0.9523428678512573,-159.24072265625,39.1845703125,-294.98291015625
5.695451974868774,-1269658964,1,-2.788681983947754,-0.6518651247024536,-0.29907533526420593,244.07958984375,-398.13232421875,-648.193359375
5.702877998352051,-1269658947,0,-0.8745959997177124,-0.5347660779953003,-1.0395010709762573,-75.01220703125,149.84130859375,-317.0166015625
5.7029900550842285,-1269658928,0,-0.9761584997177124,-0.6978520154953003,-1.1444815397262573,-23.37646484375,198.2421875,-359.9853515625
5.71816611289978,-1269658945,1,-3.362168312072754,-0.2900487184524536,-0.6972687244415283,208.80126953125,-407.5927734375,-664.4287109375
5.718191862106323,-1269658926,1,-3.031113624572754,0.7993067502975464,-0.8479034900665283,228.21044921875,-458.80126953125,-587.7685546875
5.743801832199097,-1269658909,0,-1.2400745153427124,-0.7112797498703003,-1.2558096647262573,-2.38037109375,223.6328125,-429.0771484375
5.74812912940979,-1269658907,1,-2.793320655822754,1.3268946409225464,-0.6330597400665283,170.22705078125,-407.470703125,-447.32666015625
5.762909889221191,-1269658890,0,-1.6390002965927124,-0.7808598279953003,-1.4276846647262573,-2.99072265625,262.51220703125,-523.37646484375
5.76302695274353,-1269658871,0,-2.466636896133423,-0.8196781873703003,-1.6002920866012573,-28.86962890625,287.4755859375,-646.05712890625
5.778117895126343,-1269658871,1,-2.723496437072754,1.9941309690475464,-0.5246613025665283,-49.49951171875,-317.44384765625,-183.53271484375
5.7976319789886475,-1269658852,0,-3.191734552383423,-0.4966801106929779,-1.6283682584762573,-96.86279296875,322.20458984375,-665.52734375
5.807788133621216,-1269658852,1,-2.808701515197754,1.5522364377975464,-0.17969058454036713,-153.50341796875,-244.44580078125,-50.537109375
5.807903051376343,-1269658833,1,-2.773789405822754,1.3229883909225464,-0.09253238141536713,-147.52197265625,-173.7060546875,47.18017578125
5.822789907455444,-1269658833,0,-3.647789239883423,-0.3604496419429779,-1.1759756803512573,-207.275390625,327.1484375,-589.90478515625
5.822882175445557,-1269658814,0,-3.663658380508423,-0.5516117811203003,-0.8549307584762573,-253.84521484375,311.09619140625,-530.70068359375
5.846096992492676,-1269658814,1,-2.487656593322754,1.6586817502975464,0.001217622309923172,-118.83544921875,-99.30419921875,133.30078125
5.852866172790527,-1269658795,0,-3.786461114883423,-0.5003422498703003,-0.8395498991012573,-241.14990234375,330.62744140625,-474.67041015625
5.852911949157715,-1269658776,0,-3.884117364883423,-0.4698246419429779,-0.7560538053512573,-237.060546875,361.2060546875,-437.56103515625
5.8677308559417725,-1269658795,1,-2.271103858947754,1.8527735471725464,0.12279964983463287,-123.59619140625,-36.80419921875,212.0361328125
5.867865800857544,-1269658776,1,-2.036484718322754,1.9350489377975464,0.25170591473579407,-152.03857421875,3.23486328125,266.66259765625
5.882889032363892,-1269658757,0,-3.999351739883423,-0.3790043294429779,-0.7516592741012573,-214.2333984375,368.7744140625,-379.150390625
5.90144681930542,-1269658757,1,-1.7388774156570435,1.7529200315475464,0.5478484630584717,-215.27099609375,42.8466796875,327.45361328125
5.901455879211426,-1269658738,1,-1.3741313219070435,0.9042872190475464,1.2311980724334717,-168.5791015625,90.6982421875,370.60546875
5.91283106803894,-1269658738,0,-3.757896661758423,-0.6214359998703003,-0.6718252897262573,-201.47705078125,292.66357421875,-300.96435546875
5.9129319190979,-1269658719,0,-2.735191583633423,-0.3719242513179779,-0.2882803976535797,-307.373046875,178.64990234375,-267.333984375
5.930773973464966,-1269658719,1,-0.5640727281570435,0.9782618284225464,1.3146941661834717,-107.48291015625,162.353515625,359.31396484375
5.957851886749268,-1269658700,1,0.11195267736911774,1.0717676877975464,0.9680144786834717,-82.09228515625,259.1552734375,294.12841796875
5.9579761028289795,-1269658681,1,-0.12242232263088226,0.3134669065475464,0.5231902599334717,-148.74267578125,381.53076171875,235.83984375
5.974108934402466,-1269658683,0,-3.018394708633423,-0.5301274061203003,-0.5797842741012573,-203.9794921875,310.05859375,-186.5234375
5.974116802215576,-1269658664,0,-2.870689630508423,-0.6951664686203003,-0.1798819601535797,-184.87548828125,344.3603515625,-135.3759765625
5.995628118515015,-1269658662,1,-0.5804301500320435,-0.2924901247024536,0.9008758068084717,-188.41552734375,340.63720703125,274.169921875
6.003314018249512,-1269658645,0,-2.470543146133423,-0.6490238904953003,0.11479578167200089,-218.6279296875,203.79638671875,-128.47900390625
6.003422975540161,-1269658626,0,-2.013511896133423,-0.6812504529953003,0.09502039104700089,-239.07470703125,68.05419921875,-101.01318359375
6.017875909805298,-1269658643,1,0.13270463049411774,-0.4763280153274536,1.2976043224334717,-158.935546875,186.21826171875,228.33251953125
6.03269100189209,-1269658607,0,-1.5745471715927124,-0.6121586561203003,0.11503992229700089,-204.345703125,54.87060546875,-48.9501953125
6.049140930175781,-1269658607,1,0.5601948499679565,-0.8166600465774536,1.4448211193084717,-80.26123046875,272.94921875,138.427734375
6.049149990081787,-1269658588,1,-0.25279340147972107,-0.7248631715774536,1.7802703380584717,-95.458984375,314.5751953125,120.849609375
6.062988042831421,-1269658588,0,-1.2881702184677124,-0.6709965467453003,0.2805672585964203,-166.32080078125,68.90869140625,-14.83154296875
6.063065767288208,-1269658569,0,-1.1519397497177124,-0.5232914686203003,0.2952156960964203,-153.86962890625,23.37646484375,35.46142578125
6.077981948852539,-1269658569,1,-0.8406840562820435,-1.3330174684524536,1.9504363536834717,-83.3740234375,188.720703125,119.68994140625
6.0978310108184814,-1269658550,0,-0.8509143590927124,-0.5376957654953003,0.2659188210964203,-143.06640625,-39.12353515625,34.0576171875
6.12295389175415,-1269658531,0,-0.7307971715927124,-0.4185551106929779,0.10820398479700089,-140.31982421875,-80.56640625,27.77099609375
6.143732070922852,-1269658550,1,-0.013779740780591965,-1.8212987184524536,1.0559051036834717,68.603515625,118.896484375,126.15966796875
6.1444480419158936,-1269658531,1,0.41078081727027893,-1.1357518434524536,0.5009734630584717,205.078125,230.16357421875,83.0078125
6.1444549560546875,-1269658512,1,-0.36021527647972107,-0.5827733278274536,0.45214536786079407,220.88623046875,292.6025390625,107.84912109375
6.153025150299072,-1269658512,0,-0.4114612340927124,-0.4620121419429779,0.006153203547000885,-161.43798828125,-135.19287109375,-18.798828125
6.153151035308838,-1269658493,0,-0.4285510778427124,-0.1731937825679779,0.06670007854700089,-171.630859375,-199.951171875,-11.71875
6.168161153793335,-1269658493,1,-0.8968364000320435,-0.4755955934524536,0.36474302411079407,183.89892578125,250.732421875,160.888671875
6.168260812759399,-1269658474,1,-1.2452250719070435,-1.0649510622024536,0.5388152599334717,161.92626953125,190.3076171875,161.9873046875
6.1949989795684814,-1269658474,0,-0.4571155309677124,-0.050391048192977905,0.002735234797000885,-153.25927734375,-232.7880859375,7.4462890625
6.195008039474487,-1269658455,0,-0.5357288122177124,0.0965816080570221,-0.3087882101535797,-138.427734375,-201.23291015625,35.2783203125
6.200702905654907,-1269658455,1,-0.5987406969070435,0.4406641721725464,-0.22363589704036713,255.4931640625,75.74462890625,102.23388671875
6.200708866119385,-1269658436,1,-1.6351176500320435,-0.5764256715774536,-0.22436831891536713,46.630859375,85.8154296875,3.173828125
6.212868928909302,-1269658419,0,-0.7771838903427124,0.1517573893070221,-0.5653799772262573,-71.71630859375,37.841796875,73.05908203125
6.227766990661621,-1269658417,1,-1.3697367906570435,-1.1352635622024536,0.42382505536079407,184.4482421875,-0.244140625,9.1552734375
6.248667001724243,-1269658400,0,-1.0056995153427124,0.3182612955570221,-0.5758780241012573,-79.58984375,94.17724609375,52.06298828125
6.257771968841553,-1269658398,1,-1.5037699937820435,-1.1665135622024536,0.06664730608463287,334.65576171875,15.31982421875,35.0341796875
6.257871866226196,-1269658379,1,-1.9744731187820435,-1.1142674684524536,-0.14648745954036713,409.912109375,1.89208984375,49.37744140625
6.2727460861206055,-1269658381,0,-1.2334827184677124,0.3929683268070221,-0.3380850851535797,-84.16748046875,59.99755859375,68.9697265625
6.272813081741333,-1269658362,0,-1.5664905309677124,-0.032324641942977905,-0.1254386007785797,26.06201171875,-38.57421875,89.17236328125
6.303102970123291,-1269658343,0,-1.3089221715927124,-0.2129887044429779,-0.039256952702999115,128.90625,-47.9736328125,73.974609375
6.320780992507935,-1269658343,1,-2.275742530822754,-1.3410741090774536,-0.7854034900665283,431.15234375,-151.7333984375,55.96923828125
6.32079005241394,-1269658324,1,-2.281357765197754,-1.6406346559524536,-1.1586945056915283,464.17236328125,-234.19189453125,52.8564453125
6.334457159042358,-1269658324,0,-1.0596545934677124,-0.1219242513179779,0.051075078547000885,162.59765625,-63.5986328125,71.1669921875
6.344515085220337,-1269658305,0,-1.0327991247177124,-0.2769535481929779,-0.1630362570285797,121.39892578125,-148.4375,77.1484375
6.348958969116211,-1269658305,1,-2.194443702697754,-1.7834569215774536,-1.4025909900665283,512.451171875,-259.09423828125,64.75830078125
6.348965883255005,-1269658286,1,-2.033066749572754,-1.8064061403274536,-1.5917999744415283,574.76806640625,-253.662109375,87.2802734375
6.362934112548828,-1269658286,0,-1.6765979528427124,0.0848628580570221,-0.3935050070285797,118.5302734375,-162.841796875,88.56201171875
6.362989187240601,-1269658267,0,-1.2696155309677124,-0.4581058919429779,-0.1264151632785797,191.83349609375,-95.947265625,122.25341796875
6.377914905548096,-1269658267,1,-1.9178324937820435,-1.7509862184524536,-1.5896027088165283,603.82080078125,-226.806640625,107.91015625
6.398084878921509,-1269658248,0,-1.1211780309677124,-0.7132328748703003,0.06792078167200089,317.56591796875,-63.53759765625,125.67138671875
6.407760858535767,-1269658248,1,-1.7728129625320435,-1.6994725465774536,-1.3979523181915283,595.21484375,-188.3544921875,134.58251953125
6.4078688621521,-1269658229,1,-1.8111430406570435,-1.7324315309524536,-1.3735382556915283,588.9892578125,-169.12841796875,132.568359375
6.422709941864014,-1269658229,0,-0.9944690465927124,-1.0154789686203003,0.09331140667200089,364.44091796875,-76.59912109375,91.12548828125
6.422906875610352,-1269658210,0,-0.8999866247177124,-1.2112797498703003,-0.020458124577999115,391.6015625,-117.37060546875,39.0625
6.44544792175293,-1269658210,1,-1.7481547594070435,-1.6074315309524536,-1.3681671619415283,563.41552734375,-168.0908203125,106.14013671875
6.452755928039551,-1269658191,0,-0.9478381872177124,-1.5213383436203003,-0.2809561789035797,409.48486328125,-174.6826171875,-14.6484375
6.467772960662842,-1269658191,1,-1.8096781969070435,-1.6596776247024536,-1.2617218494415283,500.79345703125,-147.4609375,91.30859375
6.467886924743652,-1269658172,1,-1.8462992906570435,-1.8320409059524536,-0.9631378650665283,481.8115234375,-152.2216796875,91.796875
6.494843006134033,-1269658155,0,-1.3919299840927124,-1.8582524061203003,-1.2870596647262573,428.5888671875,-213.31787109375,-95.39794921875
6.500691890716553,-1269658153,1,-1.8426371812820435,-1.8654881715774536,-0.8083527088165283,492.98095703125,-163.02490234375,96.923828125
6.513385057449341,-1269658136,0,-1.2986682653427124,-1.8680180311203003,-1.7064932584762573,412.9638671875,-159.11865234375,-101.86767578125
6.513447046279907,-1269658117,0,-0.9615100622177124,-1.9634770154953003,-1.9093741178512573,406.06689453125,-77.20947265625,-113.46435546875
6.527674913406372,-1269658134,1,-1.9031840562820435,-1.6674901247024536,-0.6870148181915283,491.943359375,-151.2451171875,113.95263671875
6.5277299880981445,-1269658115,1,-1.8191996812820435,-1.3752537965774536,-0.5976593494415283,452.81982421875,-109.4970703125,159.5458984375
6.549976110458374,-1269658098,0,-0.5623401403427124,-1.9207524061203003,-1.9103506803512573,405.09033203125,-31.79931640625,-150.57373046875
6.557996988296509,-1269658079,1,-1.5728617906570435,-2.062265634536743,-0.07861636579036713,377.25830078125,-80.13916015625,176.45263671875
6.572715997695923,-1269658079,0,-0.2635120153427124,-1.9456547498703003,-1.9599112272262573,389.0380859375,-64.0869140625,-235.7177734375
6.572833061218262,-1269658060,0,0.1119762733578682,-1.9312504529953003,-2.063915252685547,351.62353515625,-150.69580078125,-377.197265625
6.595732927322388,-1269658060,1,-1.7322856187820435,1.9548243284225464,-1.2187530994415283,440.61279296875,-42.78564453125,213.92822265625
6.602960824966431,-1269658041,0,-0.6136096715927124,-2.0074222087860107,-1.8346670866012573,226.318359375,-255.615234375,-489.8681640625
6.619513034820557,-1269658041,1,-2.774277687072754,-4.277841567993164,0.6447722911834717,289.24560546875,2.5634765625,297.66845703125
6.619619131088257,-1269658022,1,-2.261826515197754,-2.322763681411743,0.7932097911834717,471.6796875,-38.39111328125,159.66796875
6.648290157318115,-1269658003,1,-1.6204692125320435,-1.0686131715774536,-0.08423160016536713,573.73046875,-13.671875,198.54736328125
6.663038015365601,-1269658022,0,-0.3692249059677124,-0.7208012342453003,-2.599803924560547,215.88134765625,-81.298828125,-613.525390625
6.6631810665130615,-1269658003,0,-0.8858264684677124,-1.3829106092453003,-2.080028533935547,179.6875,51.26953125,-572.81494140625
6.677927017211914,-1269657984,1,-1.4044047594070435,-0.8364354372024536,-0.17676089704036713,498.4130859375,46.0205078125,202.1484375
6.678009986877441,-1269657965,1,-1.4034281969070435,-0.8886815309524536,-0.21240542829036713,443.90869140625,121.88720703125,200.37841796875
6.6987221240997314,-1269657984,0,-1.0105823278427124,-1.2256840467453003,-1.6693838834762573,145.263671875,157.77587890625,-503.47900390625
6.698729038238525,-1269657965,0,-0.7322620153427124,-1.2459477186203003,-1.3346670866012573,151.123046875,227.9052734375,-458.80126953125
6.698734760284424,-1269657946,0,-0.5931018590927124,-1.3760746717453003,-1.1786612272262573,139.892578125,253.41796875,-419.12841796875
6.709676027297974,-1269657946,1,-1.4102641344070435,-0.7014256715774536,-0.21460269391536713,363.83056640625,170.2880859375,148.92578125
6.709689140319824,-1269657927,1,-1.7132426500320435,-0.8745213747024536,-0.11645816266536713,282.71484375,242.431640625,117.98095703125
6.7229719161987305,-1269657927,0,0.0028454139828681946,-1.6390141248703003,-0.9447745084762573,147.64404296875,280.09033203125,-438.3544921875
6.7452239990234375,-1269657908,1,-2.070420265197754,-0.6640721559524536,0.25854185223579407,309.5703125,252.38037109375,157.04345703125
6.753164052963257,-1269657891,0,-0.037681929767131805,-1.5364750623703003,-0.9860342741012573,95.3369140625,233.82568359375,-425.9033203125
6.767880916595459,-1269657889,1,-1.5828715562820435,-0.3999119997024536,-0.06079409644007683,229.55322265625,206.54296875,97.35107421875
6.768013000488281,-1269657870,1,-0.8829203844070435,-0.4687596559524536,-0.42456361651420593,155.33447265625,241.5771484375,35.70556640625
6.796252012252808,-1269657872,0,0.2045055627822876,-1.3167484998703003,-0.9787100553512573,110.4736328125,293.8232421875,-382.50732421875
6.796264886856079,-1269657853,0,0.3497692346572876,-1.3821781873703003,-0.9855459928512573,103.82080078125,333.49609375,-334.65576171875
6.8020710945129395,-1269657851,1,-1.0858012437820435,-0.6533299684524536,-0.6047394275665283,127.0751953125,376.77001953125,36.0107421875
6.813017845153809,-1269657834,0,0.4418102502822876,-1.6377934217453003,-1.3830069303512573,59.5703125,424.25537109375,-280.94482421875
6.813162088394165,-1269657815,0,0.3461071252822876,-1.7757328748703003,-1.1005362272262573,67.68798828125,536.62109375,-248.71826171875
6.827800035476685,-1269657815,1,-1.5372172594070435,-0.06934560835361481,-0.5056183338165283,67.0166015625,398.74267578125,66.95556640625
6.849242925643921,-1269657796,0,0.2970348596572876,-1.6246098279953003,-0.4516104757785797,158.14208984375,558.41064453125,-220.64208984375
6.857792139053345,-1269657796,1,-1.3287211656570435,-0.01661122962832451,-0.49243471026420593,-49.37744140625,342.46826171875,29.78515625
6.857873916625977,-1269657777,1,-1.0408793687820435,0.04271494224667549,-0.5861847400665283,-124.20654296875,369.32373046875,1.03759765625
6.872954845428467,-1269657777,0,0.3324352502822876,-1.5711430311203003,-0.08832921832799911,237.48779296875,479.8583984375,-166.6259765625
6.873044013977051,-1269657758,0,0.2826305627822876,-1.6275395154953003,-0.1513175070285797,280.57861328125,381.103515625,-71.4111328125
6.896259784698486,-1269657758,1,-1.1165629625320435,0.1752832978963852,-0.6179230213165283,-140.9912109375,455.87158203125,33.26416015625
6.902883052825928,-1269657739,0,0.1747204065322876,-1.9097660779953003,-0.5270498991012573,307.373046875,369.873046875,24.5361328125
6.91762900352478,-1269657739,1,-1.7332621812820435,-0.01807607337832451,-0.6440460681915283,-155.3955078125,548.2177734375,100.5859375
6.917748928070068,-1269657720,1,-2.139512062072754,-0.3181248903274536,-0.27685853838920593,-132.080078125,495.66650390625,44.86083984375
6.932749032974243,-1269657720,0,0.2626110315322876,-1.8152836561203003,-0.9806631803512573,285.7666015625,479.30908203125,52.1240234375
6.9389488697052,-1269657701,0,0.0799938514828682,-1.4258793592453003,-1.0297354459762573,242.12646484375,603.3935546875,47.7294921875
6.948318004608154,-1269657701,1,-1.7261821031570435,-0.1923924833536148,-0.06885074079036713,-94.1162109375,423.76708984375,-5.7373046875
6.962937831878662,-1269657682,0,-0.3604358434677124,-1.0171879529953003,-0.9662588834762573,199.951171875,772.27783203125,58.04443359375
6.97797703742981,-1269657682,1,-1.4649516344070435,-0.0007420890033245087,-0.13818667829036713,-61.70654296875,415.46630859375,3.7841796875
6.978074789047241,-1269657663,1,-1.3099223375320435,-0.08521474897861481,-0.30517885088920593,-41.8701171875,414.36767578125,26.9775390625
6.997162103652954,-1269657663,0,-0.6187366247177124,-0.6883305311203003,-0.5810049772262573,244.62890625,941.650390625,138.5498046875
7.007860898971558,-1269657644,1,-1.2794047594070435,-0.4536229372024536,-0.29419252276420593,-28.13720703125,391.90673828125,1.3427734375
7.022943019866943,-1269657627,0,-0.9893420934677124,-0.8785160779953003,0.6035653352737427,412.109375,968.56689453125,184.814453125
7.023082971572876,-1269657608,0,-0.8445667028427124,-0.3230961263179779,0.5420418977737427,398.49853515625,679.19921875,178.8330078125
7.045287847518921,-1269657625,1,-0.9993754625320435,-0.7229100465774536,-0.14160464704036713,-6.2255859375,353.1494140625,-80.13916015625
7.04529595375061,-1269657606,1,-0.8465434312820435,-0.6914159059524536,-0.16089175641536713,24.7802734375,360.4736328125,-127.13623046875
7.055145025253296,-1269657589,0,-0.5696643590927124,-0.2918461263179779,0.4111824929714203,250.79345703125,437.5,235.29052734375
7.0680201053619385,-1269657587,1,-0.7376567125320435,-0.6674901247024536,-0.26465150713920593,33.8134765625,399.2919921875,-170.22705078125
7.0941078662872314,-1269657570,0,-0.4471057653427124,-0.6495121717453003,0.1562996804714203,125.9765625,216.49169921875,304.38232421875
7.094115972518921,-1269657551,0,-0.3994983434677124,-0.6917484998703003,-0.09565343707799911,102.6611328125,90.576171875,310.1806640625
7.098949909210205,-1269657551,1,-1.2042094469070435,-1.1301366090774536,-0.22729800641536713,-20.5078125,505.79833984375,-259.70458984375
7.113107919692993,-1269657532,0,-0.5269397497177124,-0.7518070936203003,-0.2560538351535797,170.10498046875,31.3720703125,258.36181640625
7.128044128417969,-1269657532,1,-1.6727153062820435,-1.4292088747024536,-0.06860660016536713,-70.6787109375,531.67724609375,-339.84375
7.128108978271484,-1269657513,1,-2.011826515197754,-1.6821385622024536,0.11498714983463287,-100.28076171875,539.12353515625,-385.6201171875
7.1504130363464355,-1269657513,0,-0.6094592809677124,-0.6875981092453003,-0.5607413053512573,256.9580078125,45.83740234375,120.2392578125
7.150422096252441,-1269657494,0,-0.6223987340927124,-0.4739750325679779,-0.9459952116012573,322.32666015625,89.78271484375,17.578125
7.17193078994751,-1269657475,0,-0.7642444372177124,-0.3069828450679779,-1.2343252897262573,324.462890625,80.74951171875,22.15576171875
7.17284893989563,-1269657456,0,-0.9270862340927124,-0.3118656575679779,-1.4784659147262573,265.31982421875,45.166015625,54.62646484375
7.197601079940796,-1269657494,1,-2.259140968322754,-1.8628026247024536,0.21410824358463287,-107.72705078125,569.091796875,-403.076171875
7.197608947753906,-1269657475,1,-2.501816749572754,-2.066416025161743,0.39794614911079407,-77.81982421875,569.64111328125,-392.822265625
7.1976141929626465,-1269657456,1,-2.501572608947754,-2.081064462661743,0.5056121349334717,-35.2783203125,548.583984375,-416.748046875
7.20308518409729,-1269657437,0,-1.1741565465927124,-0.2950199544429779,-1.9240225553512573,186.5234375,10.25390625,85.9375
7.21780800819397,-1269657437,1,-2.572617530822754,-2.256113290786743,0.41820982098579407,-23.92578125,518.24951171875,-468.994140625
7.217878103256226,-1269657418,1,-2.999619483947754,-2.401865243911743,0.43652036786079407,-43.15185546875,507.01904296875,-542.90771484375
7.232866048812866,-1269657418,0,-0.8372424840927124,-0.2154301106929779,-2.079051971435547,156.73828125,52.30712890625,108.33740234375
7.232956886291504,-1269657399,0,-0.5679553747177124,-0.3211430013179779,-1.8646963834762573,144.4091796875,128.60107421875,119.5068359375
7.248375177383423,-1269657399,1,-3.617295265197754,-2.556894540786743,0.7072722911834717,-86.97509765625,431.640625,-637.20703125
7.2772438526153564,-1269657380,1,-4.223252296447754,-2.447031259536743,1.2119109630584717,-137.51220703125,281.005859375,-721.435546875
7.278083086013794,-1269657361,1,-4.474717140197754,-2.426035165786743,1.3281219005584717,-224.9755859375,80.50537109375,-822.20458984375
7.295586109161377,-1269657363,0,-0.7593616247177124,-0.2276371419429779,-1.9269522428512573,97.22900390625,175.1708984375,10.25390625
7.295593976974487,-1269657344,0,-0.9539417028427124,-0.1163090169429779,-2.096630096435547,101.86767578125,219.29931640625,-24.0478515625
7.3078789710998535,-1269657342,1,-5.647812843322754,-2.318613290786743,0.6611297130584717,-310.1806640625,-34.60693359375,-955.01708984375
7.3227379322052,-1269657325,0,-1.1189807653427124,-0.032568782567977905,-2.048290252685547,135.498046875,296.81396484375,-66.46728515625
7.322851896286011,-1269657306,0,-1.1770862340927124,-0.047217220067977905,-1.9987295866012573,143.1884765625,327.81982421875,-115.05126953125
7.345164060592651,-1269657323,1,-7.345322608947754,-1.3762303590774536,0.24194027483463287,-400.93994140625,73.18115234375,-920.83740234375
7.352672100067139,-1269657287,0,-1.5733264684677124,-0.042822688817977905,-2.047557830810547,136.29150390625,317.9931640625,-101.318359375
7.368432998657227,-1269657287,1,-7.115097999572754,1.8439844846725464,2.2705047130584717,-95.88623046875,361.99951171875,-179.3212890625
7.368541955947876,-1269657268,1,-4.793564796447754,1.6274317502975464,1.8391082286834717,-134.8876953125,42.48046875,-43.0908203125
7.3939080238342285,-1269657268,0,-1.8626331090927124,-0.058203548192977905,-2.160350799560547,148.8037109375,325.37841796875,-52.3681640625
7.393915891647339,-1269657249,0,-1.9927600622177124,-0.1841801106929779,-2.194530487060547,190.4296875,331.4208984375,-42.17529296875
7.399267911911011,-1269657249,1,-3.265244483947754,1.8102930784225464,0.6865203380584717,-267.02880859375,-81.72607421875,-145.99609375
7.413077116012573,-1269657230,0,-1.9051135778427124,-0.0835941731929779,-2.285839080810547,154.60205078125,348.2666015625,-107.48291015625
7.428287982940674,-1269657230,1,-3.815293312072754,1.9662989377975464,0.5913054943084717,-328.857421875,83.3740234375,-96.3134765625
7.428367853164673,-1269657211,1,-4.358506202697754,1.0500391721725464,1.0527312755584717,-330.078125,136.1083984375,47.119140625
7.450201988220215,-1269657211,0,-1.8753284215927124,0.0682612955570221,-2.022899627685547,29.11376953125,354.248046875,-136.474609375
7.450210094451904,-1269657192,0,-1.5691760778427124,-0.3562992513179779,-1.7863272428512573,-59.99755859375,352.96630859375,-130.4931640625
7.457870006561279,-1269657192,1,-3.233017921447754,-0.1694432646036148,0.9870574474334717,-319.82421875,-18.9208984375,149.2919921875
7.473005056381226,-1269657173,0,-1.2781604528427124,-1.1331547498703003,-1.3852041959762573,-15.13671875,411.31591796875,-171.44775390625
7.498165130615234,-1269657173,1,-2.053574562072754,-0.5739842653274536,0.12279964983463287,-374.08447265625,-134.70458984375,140.625
7.498172998428345,-1269657154,1,-1.3165141344070435,-0.7143651247024536,-0.33740541338920593,-437.6220703125,-155.94482421875,137.5732421875
7.502665042877197,-1269657154,0,-1.4480823278427124,-0.8831547498703003,-0.6862295866012573,181.884765625,461.12060546875,-256.28662109375
7.5027899742126465,-1269657135,0,-1.2827991247177124,-0.7098149061203003,-0.7531241178512573,255.55419921875,422.4853515625,-297.7294921875
7.517657995223999,-1269657135,1,-1.1478129625320435,-0.9370213747024536,-0.46142885088920593,-422.05810546875,-112.1826171875,159.97314453125
7.517773151397705,-1269657116,1,-1.2833110094070435,-0.9411717653274536,-0.42065736651420593,-334.1064453125,-32.28759765625,234.130859375
7.545073986053467,-1269657099,0,-1.0972522497177124,-0.6675785779953003,-1.6535147428512573,-4.08935546875,289.00146484375,-319.82421875
7.54980206489563,-1269657097,1,-1.8987895250320435,-1.2448827028274536,-0.19116519391536713,-295.166015625,-29.296875,301.69677734375
7.5628440380096436,-1269657080,0,-0.8626331090927124,-0.9979008436203003,-1.7758291959762573,-88.623046875,304.3212890625,-319.03076171875
7.577795028686523,-1269657078,1,-0.9983989000320435,0.5720118284225464,-0.6301300525665283,-97.412109375,-188.232421875,350.52490234375
7.5778679847717285,-1269657059,1,-1.6956645250320435,-1.6616307497024536,-0.11767886579036713,-294.43359375,-178.16162109375,289.36767578125
7.598702907562256,-1269657061,0,-0.9622424840927124,-0.9822758436203003,-2.120800018310547,-132.6904296875,343.6279296875,-337.21923828125
7.598713159561157,-1269657042,0,-0.9461292028427124,-0.7618168592453003,-2.076610565185547,-163.57421875,354.1259765625,-290.46630859375
7.621981859207153,-1269657023,0,-1.0528186559677124,-0.5257328748703003,-1.5685538053512573,-116.76025390625,387.6953125,-252.685546875
7.643841981887817,-1269657023,1,-1.2806254625320435,-0.7856541872024536,0.38036802411079407,127.13623046875,-81.60400390625,342.83447265625
7.643848896026611,-1269657004,1,-1.2120219469070435,-0.6291600465774536,0.28735044598579407,169.921875,-128.173828125,324.3408203125
7.652952194213867,-1269657004,0,-0.7488635778427124,0.043847233057022095,-1.6010245084762573,-92.041015625,452.1484375,-257.568359375
7.653064012527466,-1269656985,0,-0.6180042028427124,0.5526362657546997,-1.3737295866012573,-63.78173828125,494.20166015625,-287.90283203125
7.667986869812012,-1269656985,1,-0.9197856187820435,-0.6648045778274536,0.22387386858463287,164.1845703125,-167.66357421875,294.921875
7.668102979660034,-1269656966,1,-0.6902934312820435,-0.5273534059524536,0.11913754045963287,163.9404296875,-161.376953125,261.90185546875
7.698847055435181,-1269656947,1,-0.5474711656570435,-0.5622655153274536,0.17748714983463287,184.4482421875,-136.90185546875,251.3427734375
7.713463068008423,-1269656966,0,-0.5638049840927124,-0.3484867513179779,-1.8656729459762573,-159.66796875,489.74609375,-365.90576171875
7.7136571407318115,-1269656947,0,-0.7058948278427124,-0.4593265950679779,-1.6122549772262573,-194.51904296875,460.693359375,-385.986328125
7.7136759757995605,-1269656928,0,-0.7127307653427124,-0.4979008138179779,-1.5348623991012573,-221.37451171875,479.3701171875,-309.9365234375
7.7279369831085205,-1269656928,1,-0.5303813219070435,-0.4594823122024536,0.17211605608463287,216.97998046875,-114.6240234375,230.1025390625
7.727987051010132,-1269656909,1,-0.6107035875320435,-0.1626073271036148,0.028073091059923172,230.16357421875,-121.64306640625,204.52880859375
7.748544931411743,-1269656909,0,-0.5992053747177124,-0.5618656873703003,-1.4542959928512573,-188.41552734375,496.7041015625,-253.35693359375
7.748554944992065,-1269656890,0,-0.6360706090927124,-0.4354008138179779,-1.0724600553512573,-140.0146484375,501.40380859375,-235.65673828125
7.7580060958862305,-1269656890,1,-0.37266644835472107,-0.2959080934524536,-0.03369448706507683,240.234375,-142.08984375,131.65283203125
7.772892951965332,-1269656871,0,-0.7723010778427124,-0.3028324544429779,-0.9164541959762573,-89.35546875,495.54443359375,-223.2666015625
7.795758008956909,-1269656871,1,-0.37437543272972107,-0.2854100465774536,-0.20044253766536713,242.24853515625,-159.423828125,27.52685546875
7.795766115188599,-1269656852,1,-0.46812543272972107,-0.4138280153274536,-0.26660463213920593,236.99951171875,-186.95068359375,-65.673828125
7.802910089492798,-1269656835,0,-0.9754260778427124,0.1263667643070221,-1.0360831022262573,25.57373046875,450.5615234375,-107.421875
7.817908048629761,-1269656833,1,-0.6397563219070435,-0.4289647340774536,-0.24609683454036713,219.17724609375,-252.8076171875,-179.19921875
7.834825038909912,-1269656816,0,-0.9309924840927124,-0.0779789388179779,-1.5499991178512573,39.9169921875,462.890625,-100.76904296875
7.834835052490234,-1269656797,0,-0.9014514684677124,-0.2703617513179779,-1.9408682584762573,37.2314453125,500.0,-145.93505859375
7.850947856903076,-1269656814,1,-0.8062602281570435,-0.2368260771036148,-0.5034210681915283,206.97021484375,-305.419921875,-244.9951171875
7.850955963134766,-1269656795,1,-0.7330180406570435,-0.05201162025332451,-0.8125030994415283,179.13818359375,-323.73046875,-289.4287109375
7.863039016723633,-1269656778,0,-0.8499377965927124,-0.4327152669429779,-1.7736319303512573,45.0439453125,487.79296875,-174.31640625
7.877866983413696,-1269656759,1,-1.1067973375320435,-0.1335545927286148,-0.5441925525665283,70.98388671875,-374.08447265625,-399.4140625
7.898783922195435,-1269656759,0,-0.8111194372177124,-0.5040043592453003,-1.2584952116012573,47.607421875,425.72021484375,-225.341796875
7.89879298210144,-1269656740,0,-0.6475452184677124,-0.6644047498703003,-1.0048331022262573,62.56103515625,378.47900390625,-263.73291015625
7.907948017120361,-1269656740,1,-1.3028422594070435,0.3933008909225464,-0.45996400713920593,31.55517578125,-426.6357421875,-412.9638671875
7.922855854034424,-1269656721,0,-0.7552112340927124,-0.8907231092453003,-1.3732413053512573,119.5068359375,352.9052734375,-330.078125
7.944385051727295,-1269656721,1,-1.5440531969070435,0.6379297971725464,-0.33447572588920593,-4.150390625,-417.66357421875,-337.5244140625
7.944392919540405,-1269656702,1,-1.6028910875320435,1.1079005002975464,-0.17309878766536713,-44.677734375,-340.63720703125,-275.5126953125
7.953304767608643,-1269656702,0,-0.8872913122177124,-1.0442875623703003,-1.8693350553512573,150.634765625,326.47705078125,-418.02978515625
7.953403949737549,-1269656683,0,-1.2962268590927124,-1.2984379529953003,-2.287059783935547,122.314453125,275.0244140625,-540.4052734375
7.967947006225586,-1269656683,1,-1.9835063219070435,1.3188380002975464,0.24364925920963287,-78.9794921875,-207.8857421875,-169.25048828125
7.98292088508606,-1269656664,0,-2.151939630508423,-1.2854984998703003,-2.292430877685547,12.5732421875,195.3125,-632.01904296875
7.998676061630249,-1269656664,1,-2.191758155822754,1.4006251096725464,0.5756804943084717,-76.7822265625,-125.79345703125,-71.59423828125
7.998683929443359,-1269656645,1,-2.067246437072754,1.4448145627975464,0.6669890880584717,-114.3798828125,-96.0693359375,7.99560546875
8.012993097305298,-1269656645,0,-3.144127130508423,-1.0079106092453003,-2.018749237060547,-163.2080078125,147.0947265625,-635.7421875
8.01305079460144,-1269656626,0,-3.422447443008423,-0.8560551404953003,-1.5829581022262573,-266.845703125,75.1953125,-566.71142578125
8.02788519859314,-1269656626,1,-1.5911723375320435,1.2819727659225464,0.6569793224334717,-140.93017578125,-63.78173828125,80.078125
8.027960062026978,-1269656607,1,-1.2520610094070435,1.2043360471725464,0.7019011974334717,-141.29638671875,7.32421875,152.40478515625
8.04836106300354,-1269656607,0,-3.513756036758423,-1.2063969373703003,-1.4188956022262573,-231.689453125,118.71337890625,-467.7734375
8.058097839355469,-1269656588,1,-1.1580668687820435,1.0917872190475464,0.8068816661834717,-147.4609375,68.2373046875,203.18603515625
8.072826862335205,-1269656571,0,-3.640220880508423,-1.6082524061203003,-1.1730459928512573,-202.0263671875,341.552734375,-270.08056640625
8.09597396850586,-1269656569,1,-1.1602641344070435,0.9689844846725464,0.9592254161834717,-156.79931640625,101.806640625,243.46923828125
8.095982789993286,-1269656550,1,-1.0164653062820435,0.7993067502975464,1.0849578380584717,-153.74755859375,99.609375,261.474609375
8.102813959121704,-1269656552,0,-3.720054864883423,-1.4883793592453003,-0.6942862272262573,-259.1552734375,345.3369140625,-212.0361328125
8.102897882461548,-1269656533,0,-3.338951349258423,-1.3655766248703003,-0.1706046164035797,-250.8544921875,292.3583984375,-117.431640625
8.118113040924072,-1269656531,1,-0.7764750719070435,0.7675684690475464,1.1325652599334717,-158.14208984375,80.74951171875,278.4423828125
8.132832050323486,-1269656514,0,-2.880699396133423,-1.2710942029953003,0.1587410867214203,-227.23388671875,231.4453125,-56.0302734375
8.151419878005981,-1269656495,1,-0.20909224450588226,0.11278329789638519,1.2624480724334717,-156.8603515625,97.900390625,260.986328125
8.162935018539429,-1269656495,0,-2.266197443008423,-1.2618168592453003,0.5447274446487427,-166.3818359375,192.44384765625,-9.58251953125
8.163051128387451,-1269656476,0,-1.8599475622177124,-1.1536625623703003,0.2810555398464203,-122.98583984375,200.50048828125,11.5966796875
8.180174827575684,-1269656476,1,-0.14048872888088226,-0.1691991239786148,1.4304168224334717,-110.65673828125,122.55859375,240.05126953125
8.180184125900269,-1269656457,1,-0.24815474450588226,-0.2905369997024536,1.7053191661834717,-0.18310546875,153.4423828125,266.66259765625
8.198861122131348,-1269656457,0,-1.6790393590927124,-1.0569828748703003,-0.3317374289035797,-171.142578125,222.83935546875,12.51220703125
8.19887113571167,-1269656438,0,-1.5979846715927124,-1.0838383436203003,-0.2492178976535797,-203.7353515625,200.1953125,-0.30517578125
8.22354507446289,-1269656419,0,-1.3951038122177124,-1.1158207654953003,0.10356531292200089,-193.359375,87.82958984375,-29.84619140625
8.244248867034912,-1269656438,1,-0.22374068200588226,-0.4799901247024536,1.5261199474334717,108.58154296875,215.27099609375,263.73291015625
8.244256973266602,-1269656419,1,-0.06334029138088226,-0.6621190309524536,1.5214812755584717,212.70751953125,320.00732421875,208.67919921875
8.252814054489136,-1269656400,0,-0.9185413122177124,-0.8995121717453003,-0.1278800070285797,-181.396484375,-88.623046875,-102.9052734375
8.252946853637695,-1269656381,0,-1.1370471715927124,-0.5921391248703003,-0.6115225553512573,-242.12646484375,-195.556640625,-79.58984375
8.267790079116821,-1269656400,1,-0.11998091638088226,-0.7783299684524536,1.4179656505584717,316.0400390625,371.337890625,156.43310546875
8.267899990081787,-1269656381,1,-0.41856488585472107,-0.5515233278274536,1.3410613536834717,428.52783203125,396.30126953125,136.90185546875
8.294768810272217,-1269656362,0,-1.0667346715927124,-0.6858891248703003,-0.6640127897262573,-259.21630859375,-199.951171875,-71.2890625
8.299448013305664,-1269656362,1,-0.5494242906570435,-0.4050389528274536,0.6977508068084717,500.244140625,426.94091796875,134.70458984375
8.299456119537354,-1269656343,1,-0.5074321031570435,-0.5234471559524536,0.22973324358463287,537.78076171875,450.50048828125,73.2421875
8.312725067138672,-1269656343,0,-1.0957874059677124,-0.5604008436203003,-0.3607901632785797,-238.4033203125,-180.7861328125,-62.6220703125
8.327999114990234,-1269656324,1,-0.7659770250320435,-0.3608494997024536,-0.18481753766536713,572.93701171875,473.876953125,76.84326171875
8.347802877426147,-1269656307,0,-0.9829944372177124,-0.3855961263179779,0.2175789773464203,-148.5595703125,-190.73486328125,-51.6357421875
8.34898591041565,-1269656288,0,-1.0223010778427124,-0.2305668294429779,0.2212410867214203,-69.51904296875,-151.123046875,-5.92041015625
8.357785940170288,-1269656305,1,-1.1851664781570435,-0.2160741239786148,-0.21606753766536713,553.5888671875,407.8369140625,54.13818359375
8.357913970947266,-1269656286,1,-1.3272563219070435,0.1728418916463852,-0.05005190894007683,455.078125,212.890625,38.02490234375
8.372965812683105,-1269656269,0,-0.9339221715927124,-0.1485355794429779,0.051075078547000885,-19.775390625,-95.8251953125,42.17529296875
8.395189046859741,-1269656267,1,-1.0955668687820435,0.3120020627975464,-0.11694644391536713,313.5986328125,55.17578125,118.896484375
8.402955055236816,-1269656250,0,-0.8531116247177124,-0.2320316731929779,-0.029979608952999115,25.390625,-21.3623046875,97.412109375
8.403043031692505,-1269656231,0,-0.8413928747177124,-0.3079594075679779,-0.019969843327999115,74.76806640625,-26.30615234375,106.4453125
8.418476104736328,-1269656231,1,-0.49278363585472107,-0.4690037965774536,-0.28930971026420593,111.26708984375,-23.3154296875,203.7353515625
8.432971000671387,-1269656212,0,-0.8772815465927124,-0.3365238606929779,-0.1347159445285797,103.6376953125,-96.3134765625,87.5244140625
8.451015949249268,-1269656212,1,-0.6492778062820435,-1.1958104372024536,0.04784848168492317,146.05712890625,74.76806640625,201.59912109375
8.451023817062378,-1269656193,1,-1.0804301500320435,-1.4382420778274536,0.16967464983463287,221.3134765625,105.46875,177.734375
8.463408946990967,-1269656193,0,-0.8528674840927124,-0.4358890950679779,-0.3673819601535797,117.3095703125,-136.04736328125,55.17578125
8.463429927825928,-1269656174,0,-0.8186877965927124,-0.3941410481929779,-0.5495108366012573,126.64794921875,-130.615234375,19.83642578125
8.477882862091064,-1269656174,1,-1.2344828844070435,-1.1508885622024536,-0.05737612769007683,285.21728515625,57.67822265625,141.29638671875
8.498894214630127,-1269656155,0,-0.8279651403427124,-0.3226078450679779,-0.5546377897262573,127.13623046875,-96.6796875,21.17919921875
8.498905897140503,-1269656136,0,-0.8499377965927124,-0.3494633138179779,-0.4708975851535797,126.15966796875,-65.36865234375,27.9541015625
8.508275985717773,-1269656155,1,-1.3670512437820435,-0.9089452028274536,-0.34204408526420593,299.01123046875,33.203125,170.47119140625
8.508349895477295,-1269656136,1,-1.3853617906570435,-0.9455662965774536,-0.35400697588920593,271.54541015625,6.04248046875,210.3271484375
8.526477098464966,-1269656117,0,-0.9524768590927124,-0.2193363606929779,-0.3024405539035797,141.54052734375,-40.8935546875,61.82861328125
8.545832872390747,-1269656117,1,-1.2735453844070435,-1.1938573122024536,-0.31860658526420593,252.3193359375,-5.92041015625,232.48291015625
8.546550035476685,-1269656098,1,-1.1321879625320435,-1.4716893434524536,-0.26880189776420593,254.08935546875,13.18359375,239.8681640625
8.55281114578247,-1269656098,0,-1.0965198278427124,-0.1963871419429779,-0.2047843039035797,181.396484375,-14.7705078125,110.83984375
8.569462060928345,-1269656079,1,-1.2349711656570435,-1.5988866090774536,-0.45459291338920593,267.7001953125,52.6123046875,247.13134765625
8.594264030456543,-1269656079,0,-1.1136096715927124,-0.4603031575679779,-0.1435050070285797,240.66162109375,12.14599609375,152.587890625
8.598697900772095,-1269656060,1,-1.3599711656570435,-1.5520116090774536,-0.5822784900665283,279.23583984375,71.83837890625,250.91552734375
8.598703861236572,-1269656041,1,-1.3636332750320435,-1.4665623903274536,-0.5061066150665283,271.17919921875,60.302734375,258.4228515625
8.612791061401367,-1269656043,0,-0.8841174840927124,-0.6902836561203003,-0.2060050070285797,306.15234375,25.7568359375,128.72314453125
8.612909078598022,-1269656024,0,-0.7891467809677124,-0.7857426404953003,-0.2738761007785797,299.4384765625,4.7607421875,96.5576171875
8.627958059310913,-1269656022,1,-1.3138285875320435,-1.4543553590774536,-0.27148744463920593,251.64794921875,41.32080078125,289.12353515625
8.648040056228638,-1269656005,0,-0.7036975622177124,-0.9305180311203003,-0.4010733664035797,280.1513671875,-30.76171875,43.5791015625
8.648047924041748,-1269655986,0,-0.5938342809677124,-1.0210942029953003,-0.5045889616012573,295.41015625,-46.2646484375,-14.22119140625
8.65789794921875,-1269656003,1,-1.3372660875320435,-1.4985448122024536,-0.31811830401420593,217.529296875,18.798828125,304.01611328125
8.672719955444336,-1269655967,0,-0.4402698278427124,-1.2237309217453003,-0.6630362272262573,336.7919921875,-54.0771484375,-65.36865234375
8.695647954940796,-1269655967,1,-1.0818949937820435,-1.7399998903274536,-0.42529603838920593,190.36865234375,38.02490234375,300.1708984375
8.695656061172485,-1269655948,1,-1.1827250719070435,-1.7307225465774536,-0.47095033526420593,190.36865234375,71.6552734375,297.4853515625
8.703141927719116,-1269655948,0,-0.3286975622177124,-1.5608891248703003,-0.8244131803512573,376.77001953125,-63.4765625,-130.55419921875
8.703228950500488,-1269655929,0,-0.0879748985171318,-1.8355473279953003,-1.0407217741012573,409.3017578125,-98.5107421875,-259.09423828125
8.71837592124939,-1269655929,1,-1.3494731187820435,-1.6372166872024536,-0.44946596026420593,190.4296875,74.52392578125,313.53759765625
8.750105857849121,-1269655910,1,-1.6707621812820435,-1.6853123903274536,-0.41479799151420593,161.56005859375,33.38623046875,361.51123046875
8.750115156173706,-1269655891,1,-1.9976664781570435,-2.095957040786743,-0.20556949079036713,125.67138671875,-83.3740234375,392.08984375
8.763043880462646,-1269655910,0,-0.1021350547671318,-1.9065922498703003,-1.2714346647262573,408.99658203125,-129.57763671875,-400.45166015625
8.763142824172974,-1269655891,0,-0.3606799840927124,-1.6443852186203003,-1.5512198209762573,376.0986328125,-139.892578125,-486.2060546875
8.764266014099121,-1269655872,0,-0.5848010778427124,-1.6727055311203003,-1.8795889616012573,316.40625,-127.74658203125,-517.2119140625
8.777811050415039,-1269655872,1,-1.9544535875320435,-2.249765634536743,-0.30273744463920593,142.08984375,-213.07373046875,406.18896484375
8.800074100494385,-1269655853,0,-0.6038440465927124,-1.6111820936203003,-2.311473846435547,237.36572265625,9.94873046875,-530.1513671875
8.808418035507202,-1269655853,1,-1.7635356187820435,-2.277109384536743,-0.6767609119415283,168.76220703125,-266.05224609375,397.52197265625
8.808538913726807,-1269655834,1,-1.5018168687820435,-2.117929697036743,-1.0017120838165283,197.998046875,-229.55322265625,361.63330078125
8.823054790496826,-1269655834,0,-0.7906116247177124,-1.5894535779953003,-2.186229705810547,165.4052734375,209.5947265625,-499.32861328125
8.82314395904541,-1269655815,0,-0.8738635778427124,-1.6182621717453003,-1.8075674772262573,116.88232421875,298.2177734375,-467.28515625
