sync_time,timestamp_ms,device_id,ax,ay,az,gx,gy,gz
0.006537914276123047,-148310983,0,0.010329138487577438,0.7064948081970215,0.15854865312576294,14.0380859375,-16.6015625,-34.5458984375
0.006551027297973633,-148310964,0,-0.008225549012422562,0.7077155113220215,0.16929084062576294,8.6669921875,-18.1884765625,-29.96826171875
0.026123046875,-148310973,1,0.18020734190940857,0.5112777948379517,0.06778210401535034,-55.60302734375,2.9296875,11.41357421875
0.02613091468811035,-148310954,1,0.19290265440940857,0.5513168573379517,0.06045788526535034,-41.748046875,-2.13623046875,-2.3193359375
0.03097391128540039,-148310945,0,-0.07072554528713226,0.7069830894470215,0.19394904375076294,4.39453125,-12.939453125,-11.3525390625
0.04543590545654297,-148310935,1,0.18362531065940857,0.6279770135879517,0.04336804151535034,-26.0009765625,-10.92529296875,-13.36669921875
0.06947207450866699,-148310926,0,-0.06047164276242256,0.7338385581970215,0.18638068437576294,-1.0986328125,-7.38525390625,4.82177734375
0.06947994232177734,-148310907,0,-0.08854781091213226,0.7382330894470215,0.17002326250076294,-7.38525390625,-0.8544921875,18.85986328125
0.07762312889099121,-148310916,1,0.15042218565940857,0.6697250604629517,-0.004727661609649658,-17.63916015625,-25.08544921875,-27.16064453125
0.07763195037841797,-148310897,1,0.17654523253440857,0.7549301385879517,-0.07186633348464966,-14.70947265625,-37.9638671875,-48.828125
0.0894310474395752,-148310888,0,-0.07341109216213226,0.7738776206970215,0.13144904375076294,-12.51220703125,2.74658203125,29.60205078125
0.11680197715759277,-148310878,1,0.15310773253440857,0.8560043573379517,-0.08724719285964966,-14.70947265625,-45.34912109375,-62.01171875
0.12278389930725098,-148310869,0,-0.03386031463742256,0.7907233238220215,0.13340216875076294,-12.63427734375,-0.9765625,32.470703125
0.12278985977172852,-148310850,0,-0.05900679901242256,0.8109869956970215,0.11753302812576294,-10.68115234375,-7.9345703125,33.50830078125
0.13377094268798828,-148310859,1,0.08694561570882797,1.0103012323379517,-0.11434680223464966,-13.48876953125,-48.583984375,-64.27001953125
0.13385486602783203,-148310840,1,0.06814678758382797,1.1621567010879517,-0.18002063035964966,-13.73291015625,-47.9736328125,-56.33544921875
0.148759126663208,-148310831,0,-0.013840783387422562,0.8893561363220215,0.15806037187576294,-14.22119140625,-14.70947265625,39.4287109375
0.14887285232543945,-148310812,0,-0.006760705262422562,0.9364752769470215,0.24521857500076294,-26.55029296875,-14.2822265625,40.1611328125
0.1743171215057373,-148310821,1,0.12893781065940857,1.2371078729629517,-0.20370227098464966,-17.51708984375,-31.982421875,-45.34912109375
0.18023300170898438,-148310793,0,0.03840531036257744,0.9252448081970215,0.29111701250076294,-35.5224609375,-2.62451171875,44.921875
0.19501209259033203,-148310785,1,0.16726788878440857,1.1973129510879517,-0.29208117723464966,-35.2783203125,-0.244140625,-44.5556640625
0.2194371223449707,-148310757,0,-0.12345992028713226,0.9518561363220215,0.19053107500076294,-48.15673828125,12.39013671875,45.10498046875
0.2251288890838623,-148310766,1,0.19680890440940857,1.2607895135879517,-0.30379992723464966,-44.189453125,18.73779296875,-32.1044921875
0.22527217864990234,-148310747,1,0.20999249815940857,1.2546859979629517,-0.31771594285964966,-53.89404296875,35.64453125,-11.3525390625
0.23859715461730957,-148310738,0,-0.12126265466213226,0.9232916831970215,0.16172248125076294,-51.94091796875,12.20703125,49.37744140625
0.2660510540008545,-148310728,1,0.25076398253440857,1.1299301385879517,-0.29989367723464966,-55.2978515625,41.07666015625,-0.8544921875
0.2705039978027344,-148310719,0,-0.09660445153713226,0.9662604331970215,0.16367560625076294,-34.36279296875,12.75634765625,60.11962890625
0.2705111503601074,-148310700,0,-0.10514937341213226,1.0346198081970215,0.16196662187576294,-13.0615234375,11.53564453125,63.720703125
0.28351497650146484,-148310709,1,0.35037335753440857,0.9626938104629517,-0.29427844285964966,-28.1982421875,43.39599609375,0.18310546875
0.2836489677429199,-148310690,1,0.45584210753440857,0.8765121698379517,-0.30404406785964966,-0.18310546875,48.52294921875,-7.080078125
0.2987809181213379,-148310681,0,-0.13346968591213226,1.1017584800720215,0.11631232500076294,-4.39453125,20.3857421875,70.73974609375
0.29884910583496094,-148310662,0,-0.06803999841213226,1.1701178550720215,0.07432013750076294,-8.6669921875,18.85986328125,73.91357421875
0.3211829662322998,-148310671,1,0.5349436402320862,0.8203598260879517,-0.32040148973464966,22.94921875,58.89892578125,-24.47509765625
0.32119083404541016,-148310652,1,0.40066632628440857,0.8809067010879517,-0.27792102098464966,23.25439453125,67.9931640625,-52.8564453125
0.3321070671081543,-148310643,0,0.09944047033786774,1.1686530113220215,0.17197638750076294,-6.34765625,-2.01416015625,69.4580078125
0.3438148498535156,-148310633,1,0.20779523253440857,1.0051742792129517,-0.20760852098464966,11.77978515625,68.84765625,-64.02587890625
0.3685271739959717,-148310624,0,0.23445023596286774,1.2475104331970215,0.33188849687576294,0.9765625,-16.41845703125,63.96484375
0.3685340881347656,-148310605,0,0.44441115856170654,1.3124518394470215,0.5086463093757629,3.173828125,-26.3671875,51.7578125
0.37628912925720215,-148310614,1,-0.05514422804117203,1.1650863885879517,-0.10970813035964966,-9.27734375,66.95556640625,-75.74462890625
0.3762979507446289,-148310595,1,-0.24508562684059143,1.2212387323379517,-0.006924927234649658,-8.7890625,69.091796875,-89.111328125
0.38889503479003906,-148310586,0,0.5542744398117065,1.3388190269470215,0.6629431843757629,4.82177734375,-22.64404296875,40.8935546875
0.40337109565734863,-148310576,1,-0.5278005003929138,1.4143539667129517,0.10513561964035034,29.052734375,77.63671875,-79.9560546875
0.42333006858825684,-148310567,0,0.6067646741867065,1.2877936363220215,0.7745154500007629,5.55419921875,-15.19775390625,19.6533203125
0.4233369827270508,-148310548,0,0.6846455335617065,1.2252936363220215,0.8694861531257629,10.43701171875,-6.103515625,-3.5400390625
0.44788599014282227,-148310529,0,0.6543720960617065,1.1188483238220215,0.8794959187507629,12.51220703125,10.92529296875,-22.216796875
0.4698629379272461,-148310557,1,-0.6962575316429138,1.6172348260879517,0.10074108839035034,75.1953125,78.7353515625,-43.02978515625
0.46987009048461914,-148310521,1,-0.6347340941429138,1.6111313104629517,0.028719604015350342,33.99658203125,37.65869140625,38.57421875
0.4710221290588379,-148310502,1,-0.41305437684059143,1.3259750604629517,-0.11556750535964966,-1.89208984375,11.474609375,59.5703125
0.4787600040435791,-148310493,0,0.45881545543670654,0.8971686363220215,0.5589392781257629,24.96337890625,48.64501953125,-43.27392578125
0.4939839839935303,-148310483,1,-0.25118914246559143,1.1279770135879517,-0.23275500535964966,-13.36669921875,16.9677734375,75.3173828125
0.5182840824127197,-148310474,0,0.35505568981170654,0.7716803550720215,0.46250373125076294,40.4052734375,49.49951171875,-45.22705078125
0.5182919502258301,-148310455,0,0.21296586096286774,0.7567877769470215,0.33774787187576294,45.83740234375,49.25537109375,-39.12353515625
0.5238730907440186,-148310464,1,-0.11227313429117203,0.8975082635879517,-0.31014758348464966,-7.50732421875,37.29248046875,78.61328125
0.5239369869232178,-148310445,1,-0.05978289991617203,0.8440414667129517,-0.28500109910964966,0.0,56.884765625,79.77294921875
0.538689136505127,-148310436,0,0.12605179846286774,0.7748541831970215,0.29429084062576294,36.56005859375,44.0673828125,-39.97802734375
0.553861141204834,-148310426,1,-0.09542743116617203,0.8081527948379517,-0.28036242723464966,2.25830078125,65.97900390625,75.927734375
0.5741760730743408,-148310417,0,0.05061234161257744,0.7675299644470215,0.27842170000076294,27.7099609375,43.45703125,-32.04345703125
0.5741848945617676,-148310398,0,-0.04191695526242256,0.7978034019470215,0.26548224687576294,25.2685546875,47.4853515625,-17.02880859375
0.5830981731414795,-148310407,1,-0.09298602491617203,0.8123031854629517,-0.25277453660964966,-0.42724609375,63.8427734375,72.3876953125
0.5992560386657715,-148310379,0,-0.07780562341213226,0.8288092613220215,0.23520880937576294,26.55029296875,44.7998046875,-6.103515625
0.6227619647979736,-148310388,1,-0.04586688429117203,0.8135238885879517,-0.23397570848464966,-8.85009765625,55.11474609375,64.8193359375
0.622769832611084,-148310369,1,0.04959210008382797,0.8074203729629517,-0.24203234910964966,-20.56884765625,46.38671875,55.96923828125
0.6290490627288818,-148310360,0,-0.08928023278713226,0.8891119956970215,0.22739630937576294,33.14208984375,36.68212890625,1.5869140625
0.6292238235473633,-148310341,0,-0.04704390838742256,0.9684576988220215,0.23227912187576294,35.400390625,28.25927734375,2.0751953125
0.644927978515625,-148310350,1,0.11258038133382797,0.7842270135879517,-0.24838000535964966,-27.40478515625,43.5791015625,49.560546875
0.6677849292755127,-148310322,0,-0.05876265838742256,1.0338873863220215,0.27329474687576294,31.79931640625,23.4375,1.28173828125
0.667792797088623,-148310303,0,0.0032490603625774384,1.0746588706970215,0.28696662187576294,20.93505859375,23.98681640625,-6.04248046875
0.6740858554840088,-148310331,1,0.19876202940940857,0.7910629510879517,-0.26522570848464966,-24.23095703125,41.1376953125,45.654296875
0.6742289066314697,-148310312,1,0.23318585753440857,0.7690902948379517,-0.29598742723464966,-17.02880859375,48.095703125,40.83251953125
0.6742498874664307,-148310293,1,0.23220929503440857,0.7622543573379517,-0.29256945848464966,-9.21630859375,48.88916015625,37.109375
0.6885819435119629,-148310284,0,0.04035843536257744,1.0448737144470215,0.27768927812576294,18.00537109375,26.55029296875,-13.7939453125
0.7215621471405029,-148310265,0,0.03767288848757744,1.0531744956970215,0.28061896562576294,13.97705078125,21.30126953125,-21.05712890625
0.7337000370025635,-148310257,1,0.20120343565940857,0.7642074823379517,-0.25082141160964966,4.45556640625,48.03466796875,26.06201171875
0.733828067779541,-148310238,1,0.15603742003440857,0.7971664667129517,-0.20858508348464966,24.658203125,52.42919921875,30.33447265625
0.7487969398498535,-148310229,0,0.09602250158786774,0.9511237144470215,0.32602912187576294,8.11767578125,16.17431640625,-34.423828125
0.771643877029419,-148310219,1,0.12210186570882797,0.8113266229629517,-0.17611438035964966,34.85107421875,54.0771484375,34.3017578125
0.7787818908691406,-148310210,0,0.13679398596286774,0.8219733238220215,0.32261115312576294,7.080078125,18.24951171875,-38.6962890625
0.7789199352264404,-148310191,0,0.13874711096286774,0.7052741050720215,0.30893927812576294,5.37109375,23.74267578125,-39.73388671875
0.7942709922790527,-148310200,1,0.10501202195882797,0.8210922479629517,-0.13143664598464966,28.4423828125,48.76708984375,35.21728515625
0.7944159507751465,-148310181,1,0.11843975633382797,0.7344223260879517,-0.05770617723464966,10.3759765625,37.9638671875,34.66796875
0.8225059509277344,-148310172,0,0.16633500158786774,0.5819830894470215,0.29404670000076294,2.0751953125,23.49853515625,-36.865234375
0.8225867748260498,-148310153,0,0.15779007971286774,0.4875006377696991,0.20151740312576294,-0.244140625,21.66748046875,-28.6865234375
0.8292229175567627,-148310162,1,0.17849835753440857,0.6020981073379517,0.021151244640350342,-8.9111328125,29.23583984375,28.4423828125
0.8292310237884521,-148310143,1,0.23684796690940857,0.4426742494106293,0.05191296339035034,-8.48388671875,23.13232421875,23.8037109375
0.8386580944061279,-148310134,0,0.19172562658786774,0.3712897002696991,0.18296271562576294,-6.16455078125,12.26806640625,-22.8271484375
0.8564300537109375,-148310124,1,0.24978742003440857,0.3262191712856293,0.06900280714035034,1.0986328125,20.6298828125,17.9443359375
0.8767459392547607,-148310115,0,0.19050492346286774,0.2836432158946991,0.13511115312576294,-11.962890625,5.55419921875,-9.46044921875
0.8767549991607666,-148310096,0,0.24104203283786774,0.2436041682958603,0.10532599687576294,-16.7236328125,-3.90625,3.96728515625
0.8840649127960205,-148310105,1,0.28616437315940857,0.24516448378562927,0.09390515089035034,15.9912109375,15.625,8.97216796875
0.8841989040374756,-148310086,1,0.28201398253440857,0.19072112441062927,0.10245007276535034,23.13232421875,12.8173828125,-2.0751953125
0.8996448516845703,-148310077,0,0.29597365856170654,0.2179694026708603,0.14853888750076294,-28.74755859375,-18.1884765625,20.263671875
0.9207570552825928,-148310067,1,0.27688702940940857,0.17070159316062927,0.13345593214035034,21.1181640625,5.615234375,-22.03369140625
0.9286069869995117,-148310058,0,0.33235061168670654,0.2450690120458603,0.19101935625076294,-53.89404296875,-25.57373046875,35.64453125
0.9286999702453613,-148310039,0,0.38532912731170654,0.2108893245458603,0.23227912187576294,-78.857421875,-33.203125,53.40576171875
0.9440021514892578,-148310048,1,0.25711163878440857,0.16533049941062927,0.16031140089035034,8.60595703125,-7.6904296875,-41.259765625
0.9441280364990234,-148310029,1,0.17923077940940857,0.18901214003562927,0.18326061964035034,-20.56884765625,-25.69580078125,-81.54296875
0.9682250022888184,-148310020,0,0.45124709606170654,0.1898932307958603,0.27622443437576294,-89.4775390625,-38.14697265625,62.8662109375
0.9734089374542236,-148309993,1,0.10232647508382797,0.18754729628562927,0.25918835401535034,-54.74853515625,-55.908203125,-153.50341796875
0.9886369705200195,-148310001,0,0.46198928356170654,0.1461920589208603,0.30649787187576294,-89.35546875,-49.74365234375,81.4208984375
1.0034189224243164,-148309974,1,-0.03561297804117203,0.18803557753562927,0.28042858839035034,-54.26025390625,-59.814453125,-184.50927734375
1.0230929851531982,-148309965,0,0.6402119398117065,0.2433600276708603,0.41904670000076294,-106.3232421875,-72.08251953125,119.9951171875
1.0231029987335205,-148309946,0,0.7630146741867065,0.3080572783946991,0.5672400593757629,-131.16455078125,-82.82470703125,130.37109375
1.0337588787078857,-148309955,1,-0.23580828309059143,0.2639633119106293,0.33267468214035034,-40.6494140625,-65.61279296875,-213.5009765625
1.0338170528411865,-148309936,1,-0.42648211121559143,0.3818832337856293,0.38101452589035034,-34.72900390625,-67.138671875,-234.31396484375
1.0488660335540771,-148309927,0,0.9268330335617065,0.2719244658946991,0.7457068562507629,-159.85107421875,-90.8203125,141.78466796875
1.0711848735809326,-148309917,1,-0.6466969847679138,0.5249496698379517,0.47696179151535034,-35.888671875,-76.5380859375,-267.27294921875
1.0786261558532715,-148309908,0,1.0486592054367065,0.1891608089208603,0.8536170125007629,-173.64501953125,-92.95654296875,155.82275390625
1.0787639617919922,-148309889,0,1.1018818616867065,0.1537604182958603,0.9776404500007629,-172.2412109375,-101.4404296875,182.4951171875
1.0936100482940674,-148309898,1,-0.8871755003929138,0.6287094354629517,0.6175867915153503,-45.5322265625,-96.98486328125,-311.82861328125
1.093695878982544,-148309879,1,-1.206999659538269,0.6128402948379517,0.7511317133903503,-46.875,-137.39013671875,-364.68505859375
1.122196912765503,-148309870,0,1.2019795179367065,0.2428717464208603,1.0730993747711182,-178.03955078125,-112.48779296875,205.4443359375
1.128406047821045,-148309860,1,-1.511931300163269,0.6343246698379517,0.8546473383903503,-30.029296875,-178.955078125,-407.28759765625
1.128420114517212,-148309841,1,-1.853484034538269,0.6626449823379517,0.9288660883903503,20.32470703125,-242.431640625,-406.982421875
1.138740062713623,-148309851,0,1.2342060804367065,0.2323736995458603,1.1197302341461182,-208.31298828125,-113.09814453125,227.23388671875
1.1388731002807617,-148309832,0,1.2857197523117065,0.1442389339208603,1.0679724216461182,-245.05615234375,-114.31884765625,251.40380859375
1.1583669185638428,-148309822,1,-2.0243825912475586,0.6113754510879517,0.8922449946403503,81.97021484375,-300.23193359375,-361.2060546875
1.1787559986114502,-148309813,0,1.3501728773117065,-0.018847007304430008,1.0103552341461182,-280.8837890625,-136.77978515625,285.400390625
1.1798341274261475,-148309794,0,1.4444111585617065,-0.1794915348291397,0.9551795125007629,-306.396484375,-164.55078125,320.61767578125
1.1839540004730225,-148309803,1,-2.1503591537475586,0.4416976869106293,0.7330653071403503,114.31884765625,-336.181640625,-318.90869140625
1.1840620040893555,-148309784,1,-2.3788747787475586,0.3677230775356293,0.6346766352653503,119.140625,-359.86328125,-276.7333984375
1.2019259929656982,-148309775,0,1.7639912366867065,-0.10869075357913971,1.0381872653961182,-339.41650390625,-176.1474609375,329.7119140625
1.2208449840545654,-148309765,1,-2.4452810287475586,0.4465804994106293,0.7113367915153503,154.11376953125,-364.31884765625,-207.70263671875
1.228640079498291,-148309756,0,1.9832295179367065,0.2599615752696991,1.2867224216461182,-382.75146484375,-170.10498046875,246.9482421875
1.228769063949585,-148309737,0,2.104323387145996,0.4137701690196991,1.5284216403961182,-413.02490234375,-143.49365234375,80.87158203125
1.2435619831085205,-148309729,1,-2.4438161849975586,0.03959808498620987,0.23330944776535034,202.08740234375,-321.22802734375,-176.025390625
1.2729270458221436,-148309710,1,-2.9213552474975586,-0.14643707871437073,-0.08114367723464966,260.498046875,-267.2119140625,-150.0244140625
1.2735559940338135,-148309691,1,-2.8942556381225586,0.3181625306606293,-0.23299914598464966,399.10888671875,-262.451171875,-28.86962890625
1.2886981964111328,-148309701,0,1.8450459241867065,0.07246159017086029,1.6924841403961182,-431.57958984375,-91.6748046875,-61.09619140625
1.2888240814208984,-148309682,0,1.7991474866867065,0.1435065120458603,1.9161169528961182,-349.853515625,-141.41845703125,-116.5771484375
1.303321123123169,-148309672,1,-2.7704763412475586,0.4460922181606293,-0.43514758348464966,440.12451171875,-273.681640625,53.955078125
1.3209750652313232,-148309663,0,1.8672627210617065,0.3332037627696991,2.113870859146118,-290.34423828125,-189.208984375,-139.34326171875
1.3209829330444336,-148309644,0,1.9365986585617065,0.3383307158946991,2.263040781021118,-206.23779296875,-211.3037109375,-189.51416015625
1.3336279392242432,-148309653,1,-2.6130056381225586,0.5955063104629517,-0.48055773973464966,404.9072265625,-280.76171875,109.7412109375
1.3337578773498535,-148309634,1,-2.2487478256225586,0.6228500604629517,-0.37606555223464966,327.08740234375,-288.14697265625,151.4892578125
1.3488597869873047,-148309625,0,2.113844871520996,0.5006842613220215,2.461527109146118,-99.4873046875,-167.78564453125,-268.9208984375
1.369980812072754,-148309615,1,-2.1020193099975586,0.3166976869106293,-0.41390734910964966,250.06103515625,-258.6669921875,148.37646484375
1.3787121772766113,-148309606,0,1.9746845960617065,0.9770026206970215,2.188577890396118,-47.05810546875,-111.02294921875,-334.41162109375
1.3788280487060547,-148309587,0,1.8621357679367065,0.8666510581970215,1.8560583591461182,-54.74853515625,-58.28857421875,-359.80224609375
1.3936800956726074,-148309596,1,-1.971159815788269,0.10600433498620987,-0.38265734910964966,191.22314453125,-250.6103515625,141.357421875
1.3937749862670898,-148309577,1,-1.707243800163269,0.05400238186120987,-0.33065539598464966,173.27880859375,-225.28076171875,131.89697265625
1.4203319549560547,-148309568,0,1.6258076429367065,0.7943854331970215,1.6099646091461182,-63.65966796875,-16.90673828125,-403.076171875
1.425959825515747,-148309558,1,-1.458464503288269,-0.01948394626379013,-0.35970813035964966,167.90771484375,-179.8095703125,133.97216796875
1.4387881755828857,-148309549,0,1.6812275648117065,0.6989264488220215,1.4888708591461182,-62.68310546875,0.91552734375,-450.62255859375
1.4388599395751953,-148309530,0,1.7661885023117065,0.4420904815196991,1.4783728122711182,-57.92236328125,27.28271484375,-494.62890625
1.4535181522369385,-148309539,1,-1.168669581413269,0.08451995998620987,-0.42904406785964966,167.724609375,-123.96240234375,125.9765625
1.4536120891571045,-148309520,1,-0.8666676878929138,0.3018051087856293,-0.42001086473464966,133.85009765625,-64.39208984375,103.515625
1.4777190685272217,-148309511,0,1.6895283460617065,0.2189459651708603,1.3677771091461182,-37.841796875,54.99267578125,-520.32470703125
1.477729082107544,-148309492,0,1.5271748304367065,0.017774086445569992,1.2813513278961182,-4.45556640625,96.8017578125,-533.99658203125
1.4834880828857422,-148309501,1,-0.7660817503929138,0.4785629212856293,-0.36483508348464966,85.205078125,-19.34814453125,68.359375
1.498723030090332,-148309473,0,1.2984150648117065,-0.08696223795413971,1.1473181247711182,27.03857421875,115.478515625,-521.240234375
1.525136947631836,-148309465,1,-0.5343922972679138,0.4216781556606293,-0.06600695848464966,14.34326171875,83.740234375,61.5234375
1.5300941467285156,-148309437,0,1.0064228773117065,0.05927799269556999,1.0709021091461182,61.5234375,54.8095703125,-481.38427734375
1.5456461906433105,-148309446,1,-0.5529469847679138,0.4617172181606293,0.05142468214035034,7.87353515625,122.37548828125,73.3642578125
1.5456559658050537,-148309427,1,-0.5282887816429138,0.5098129510879517,0.10953015089035034,2.685546875,147.76611328125,75.01220703125
1.5676460266113281,-148309418,0,0.9495381116867065,0.10615299642086029,1.1009314060211182,30.33447265625,41.6259765625,-479.55322265625
1.5736980438232422,-148309408,1,-0.44015398621559143,0.5227524042129517,0.05386608839035034,-12.02392578125,176.7578125,64.3310546875
1.5893449783325195,-148309399,0,0.8797138929367065,0.016553383320569992,1.2159216403961182,-9.1552734375,68.359375,-439.3310546875
1.5893540382385254,-148309380,0,0.6602314710617065,0.04829166457056999,1.2569372653961182,-44.25048828125,120.60546875,-365.72265625
1.6037240028381348,-148309389,1,-0.39376726746559143,0.5124984979629517,0.011629760265350342,-24.59716796875,208.740234375,57.31201171875
1.603848934173584,-148309370,1,-0.36056414246559143,0.5481430292129517,-0.003262817859649658,-46.630859375,258.11767578125,52.6123046875
1.6221609115600586,-148309361,0,0.49128615856170654,0.07929752767086029,1.1797888278961182,-78.369140625,154.4189453125,-282.2265625
1.622169017791748,-148309342,0,0.43830764293670654,0.05366275832056999,1.0562536716461182,-120.1171875,169.677734375,-233.7646484375
1.6338329315185547,-148309351,1,-0.40206804871559143,0.4971176087856293,0.015536010265350342,-76.171875,309.2041015625,47.8515625
1.6339449882507324,-148309332,1,-0.44186297059059143,0.2957015931606293,0.12637585401535034,-101.74560546875,318.78662109375,14.83154296875
1.6487998962402344,-148309323,0,0.6690205335617065,-0.06352473795413971,1.0633337497711182,-173.64501953125,185.48583984375,-161.7431640625
1.671699047088623,-148309313,1,-0.46139422059059143,0.20829924941062927,0.22232311964035034,-101.25732421875,319.76318359375,-12.3291015625
1.679394006729126,-148309304,0,0.8477314710617065,-0.12309505045413971,1.2916052341461182,-176.81884765625,224.18212890625,-80.4443359375
1.6794030666351318,-148309285,0,0.9478291273117065,-0.11796809732913971,1.3248083591461182,-100.52490234375,248.291015625,-2.5634765625
1.6938061714172363,-148309294,1,-0.7145680785179138,0.4866195619106293,0.26040905714035034,-88.0126953125,326.59912109375,-4.82177734375
1.6938769817352295,-148309275,1,-0.8383473753929138,0.9751449823379517,0.22671765089035034,-88.68408203125,309.50927734375,31.55517578125
1.7177400588989258,-148309266,0,1.0117939710617065,-0.09379817545413971,1.2288610935211182,-45.2880859375,252.25830078125,40.34423828125
1.7237811088562012,-148309256,1,-0.9142751097679138,1.0913559198379517,0.23135632276535034,-138.5498046875,274.2919921875,43.9453125
1.7386600971221924,-148309247,0,1.1460713148117065,-0.04814388230443001,1.1297399997711182,-18.37158203125,274.169921875,70.6787109375
1.738778829574585,-148309228,0,1.1917256116867065,-0.3416009247303009,0.8521521687507629,9.033203125,321.22802734375,110.7177734375
1.7533349990844727,-148309237,1,-0.8459157347679138,1.0903793573379517,0.25064343214035034,-170.59326171875,249.20654296875,51.513671875
1.77659010887146,-148309209,0,1.1863545179367065,-0.5869622230529785,0.42881232500076294,97.2900390625,337.95166015625,176.3916015625
1.7836191654205322,-148309201,1,-0.7255544066429138,0.8359848260879517,0.22036999464035034,-166.50390625,229.18701171875,72.1435546875
1.7837560176849365,-148309182,1,-0.6806325316429138,0.7424789667129517,0.26382702589035034,-133.1787109375,224.4873046875,74.15771484375
1.8026680946350098,-148309173,0,1.6870869398117065,-0.4426751434803009,-0.38442009687423706,232.666015625,321.35009765625,221.00830078125
1.8204569816589355,-148309163,1,-0.6108083128929138,0.7473617792129517,0.32486218214035034,-100.28076171875,220.27587890625,71.2890625
1.8285419940948486,-148309154,0,1.6687763929367065,-0.4873528778553009,-0.7140099406242371,270.1416015625,319.03076171875,190.61279296875
1.828624963760376,-148309135,0,1.5747822523117065,-0.6494622230529785,-0.9977013468742371,299.98779296875,307.67822265625,194.3359375
1.8444969654083252,-148309144,1,-0.5531911253929138,0.7520004510879517,0.38101452589035034,-86.5478515625,208.1298828125,70.4345703125
1.844506025314331,-148309125,1,-0.47994890809059143,0.7407699823379517,0.41568249464035034,-87.890625,188.78173828125,66.89453125
1.869438886642456,-148309116,0,1.5366963148117065,-0.6846184730529785,-1.1681115627288818,329.7119140625,282.53173828125,225.15869140625
1.873816967010498,-148309106,1,-0.43209734559059143,0.6982895135879517,0.45181530714035034,-93.8720703125,171.875,62.68310546875
1.8932850360870361,-148309097,0,1.5747822523117065,-0.6382317543029785,-1.2098596096038818,356.3232421875,265.5029296875,250.6103515625
1.8933000564575195,-148309078,0,1.5840595960617065,-0.5732903480529785,-1.2906701564788818,388.18359375,247.4365234375,262.51220703125
1.9038450717926025,-148309087,1,-0.35031023621559143,0.6252914667129517,0.5353114008903503,-86.5478515625,158.14208984375,62.98828125
1.9039459228515625,-148309068,1,-0.29855242371559143,0.6489731073379517,0.5475184321403503,-70.80078125,148.49853515625,69.4580078125
1.922287940979004,-148309059,0,1.4673603773117065,-0.5374016761779785,-1.4461877346038818,422.36328125,209.47265625,216.064453125
1.93355393409729,-148309049,1,-0.29513445496559143,0.6665512323379517,0.5536219477653503,-59.02099609375,143.98193359375,64.453125
1.9488279819488525,-148309040,0,1.1653584241867065,-0.5242180824279785,-1.5099084377288818,429.931640625,140.7470703125,175.6591796875
1.9489028453826904,-148309021,0,1.2041767835617065,-0.5159173011779785,-1.3888146877288818,407.16552734375,92.46826171875,165.10009765625
1.9701330661773682,-148309030,1,-0.26144304871559143,0.6606918573379517,0.5416590571403503,-52.67333984375,138.00048828125,59.2041015625
1.9701409339904785,-148309011,1,-0.21383562684059143,0.6155258417129517,0.5414149165153503,-35.2783203125,133.7890625,45.71533203125
1.9790630340576172,-148309002,0,1.2012470960617065,-0.4792962372303009,-1.2769982814788818,377.25830078125,75.01220703125,154.052734375
1.9790709018707275,-148308983,0,1.1592549085617065,-0.4612298309803009,-1.2730920314788818,331.11572265625,78.857421875,125.54931640625
1.9936299324035645,-148308992,1,-0.13473406434059143,0.5476547479629517,0.5646082758903503,0.79345703125,135.1318359375,27.52685546875
1.9937489032745361,-148308973,1,-0.09396258741617203,0.5901352167129517,0.5140711665153503,38.330078125,144.53125,8.72802734375
2.018479824066162,-148308964,0,1.1045674085617065,-0.5234856605529785,-1.1910607814788818,294.49462890625,85.63232421875,107.177734375
2.0374951362609863,-148308945,0,1.0286396741867065,-0.5447258949279785,-1.1109826564788818,265.0146484375,82.3974609375,85.5712890625
2.0536110401153564,-148308937,1,-0.11324969679117203,0.9622055292129517,0.11050671339035034,-5.37109375,174.98779296875,-5.4931640625
2.053691864013672,-148308918,1,-0.19601336121559143,1.0310531854629517,-0.07186633348464966,-102.72216796875,179.38232421875,-14.46533203125
2.0754098892211914,-148308909,0,1.0789326429367065,-0.6843743324279785,-0.9430138468742371,268.12744140625,65.7958984375,57.55615234375
2.0836100578308105,-148308899,1,-0.21407976746559143,0.9343734979629517,-0.13485461473464966,-213.8671875,177.55126953125,-18.4326171875
2.098707914352417,-148308890,0,1.1175068616867065,-0.7280755043029785,-0.9222618937492371,269.22607421875,76.171875,55.5419921875
2.09879994392395,-148308871,0,1.1260517835617065,-0.7957024574279785,-0.9371544718742371,259.27734375,77.392578125,59.4482421875
2.1213459968566895,-148308880,1,-0.30343523621559143,0.8008285760879517,-0.14754992723464966,-289.1845703125,193.90869140625,2.86865234375
2.1213538646698,-148308861,1,-0.35641375184059143,0.6653305292129517,-0.14779406785964966,-318.603515625,222.2900390625,7.87353515625
2.1286020278930664,-148308852,0,1.1160420179367065,-0.8357415199279785,-0.9566857218742371,265.07568359375,41.19873046875,39.0625
2.128722906112671,-148308833,0,1.1660908460617065,-0.8970208168029785,-1.0191857814788818,289.61181640625,7.8125,0.8544921875
2.1434948444366455,-148308842,1,-0.44943132996559143,0.5513168573379517,-0.08846789598464966,-313.17138671875,255.06591796875,14.09912109375
2.143601894378662,-148308823,1,-0.49362078309059143,0.5452133417129517,0.027498900890350342,-289.61181640625,301.8798828125,4.57763671875
2.1670069694519043,-148308814,0,1.2207783460617065,-0.9351067543029785,-0.9957482218742371,286.68212890625,-14.58740234375,-57.861328125
2.173393964767456,-148308804,1,-0.6659840941429138,0.5344711542129517,0.14200085401535034,-281.8603515625,346.25244140625,-19.34814453125
2.1912930011749268,-148308795,0,1.2774189710617065,-0.8772454261779785,-0.8939415812492371,255.31005859375,-6.591796875,-116.2109375
2.191303014755249,-148308776,0,1.4016865491867065,-0.9651360511779785,-0.8990685343742371,217.041015625,23.25439453125,-176.33056640625
2.2038609981536865,-148308785,1,-0.9159840941429138,0.5210434198379517,0.35415905714035034,-278.01513671875,371.64306640625,-37.353515625
2.217668056488037,-148308766,1,-1.100554347038269,0.6382309198379517,0.5899989008903503,-267.578125,356.4453125,-33.50830078125
2.222909927368164,-148308757,0,1.6023701429367065,-1.0930657386779785,-0.9935509562492371,178.22265625,66.83349609375,-245.9716796875
2.238039016723633,-148308747,1,-1.210173487663269,0.7764145135879517,0.7557703852653503,-275.45166015625,319.9462890625,-11.71875
2.248999834060669,-148308738,0,1.6929463148117065,-1.2012200355529785,-1.2186486721038818,146.240234375,90.02685546875,-301.1474609375
2.249086856842041,-148308719,0,1.7698506116867065,-1.3540520668029785,-1.2818810939788818,104.91943359375,86.669921875,-328.857421875
2.273146867752075,-148308728,1,-1.350310206413269,0.8782211542129517,0.8299891352653503,-288.14697265625,292.1142578125,35.46142578125
2.27315616607666,-148308709,1,-1.454558253288269,0.9270492792129517,0.9415614008903503,-297.42431640625,269.1650390625,105.5908203125
2.28363299369812,-148308700,0,1.8101338148117065,-1.5112786293029785,-1.4107873439788818,103.82080078125,60.24169921875,-346.19140625
2.2940709590911865,-148308673,1,-1.419890284538269,0.6992660760879517,1.1710536479949951,-236.4501953125,241.27197265625,193.78662109375
2.3214111328125,-148308681,0,1.8506611585617065,-1.3811516761779785,-1.5853478908538818,79.16259765625,30.70068359375,-332.3974609375
2.326366901397705,-148308654,1,-1.148650050163269,0.6428695917129517,1.2428309917449951,-220.3369140625,210.51025390625,200.50048828125
2.3389759063720703,-148308645,0,1.5135029554367065,-1.1963372230529785,-1.5545861721038818,-1.28173828125,45.41015625,-337.7685546875
2.339120864868164,-148308626,0,1.0625752210617065,-1.2205071449279785,-1.4469201564788818,-48.9501953125,58.59375,-323.05908203125
2.353543996810913,-148308635,1,-1.258025050163269,0.7524887323379517,0.8856531977653503,-222.83935546875,196.2890625,205.4443359375
2.35365891456604,-148308616,1,-1.328581690788269,0.6523910760879517,0.8973719477653503,-283.935546875,162.53662109375,197.998046875
2.3755130767822266,-148308607,0,0.5955342054367065,-0.9192376136779785,-1.3590295314788818,-42.41943359375,36.1328125,-303.1005859375
2.3834848403930664,-148308597,1,-1.028532862663269,0.19365081191062927,1.0184657573699951,-242.37060546875,156.6162109375,179.931640625
2.3986082077026367,-148308588,0,0.7461689710617065,-0.7947258949279785,-0.9061486124992371,-52.30712890625,41.44287109375,-276.67236328125
2.398712158203125,-148308569,0,0.8164814710617065,-0.3948235809803009,-0.6275841593742371,-53.03955078125,87.646484375,-296.32568359375
2.4242429733276367,-148308578,1,-0.9059743285179138,0.3662582337856293,0.9752528071403503,-213.8671875,132.9345703125,174.31640625
2.424250841140747,-148308559,1,-0.9535817503929138,0.2732406556606293,0.8868739008903503,-212.46337890625,131.77490234375,175.048828125
2.42838191986084,-148308550,0,0.7017353773117065,-0.2397942692041397,-0.6524865031242371,-90.63720703125,110.4736328125,-287.2314453125
2.4436919689178467,-148308540,1,-0.7153005003929138,0.06840667873620987,0.6949793696403503,-229.6142578125,86.7919921875,114.19677734375
2.443774938583374,-148308521,1,-0.8368825316429138,-0.3195327818393707,0.8390223383903503,-169.3115234375,66.71142578125,137.02392578125
2.4703240394592285,-148308531,0,0.5642842054367065,-0.11796809732913971,-0.7245079874992371,-116.3330078125,57.43408203125,-283.203125
2.4703328609466553,-148308512,0,0.5330342054367065,0.05976627394556999,-0.5787560343742371,-101.86767578125,-22.15576171875,-290.6494140625
2.474684000015259,-148308502,1,-1.186003565788269,-0.11909332126379013,1.1376063823699951,-29.1748046875,54.87060546875,197.32666015625
2.488779067993164,-148308493,0,0.6658467054367065,0.1750006526708603,-0.17641228437423706,-56.2744140625,-79.52880859375,-294.5556640625
2.488860845565796,-148308474,0,0.6809834241867065,0.3512701690196991,-0.10829704999923706,-48.40087890625,-64.14794921875,-313.90380859375
2.5037801265716553,-148308483,1,-0.8258962035179138,0.4807601869106293,0.6012293696403503,1.0986328125,-19.95849609375,225.830078125
2.5040719509124756,-148308464,1,-0.6943044066429138,-0.03852691501379013,0.8165614008903503,16.2353515625,-45.10498046875,218.81103515625
2.522753953933716,-148308455,0,0.40730178356170654,0.10639713704586029,-0.13197869062423706,-59.5703125,-27.16064453125,-299.4384765625
2.5336649417877197,-148308445,1,-0.36324968934059143,0.13896331191062927,0.30581921339035034,12.39013671875,-71.1669921875,169.7998046875
2.548666000366211,-148308436,0,0.17780961096286774,-0.09062434732913971,-0.10902947187423706,-65.673828125,-18.37158203125,-236.4501953125
2.5487308502197266,-148308417,0,-0.02043258026242256,0.05415103957056999,-0.09511345624923706,-63.90380859375,-38.51318359375,-179.0771484375
2.5696771144866943,-148308409,1,-0.45187273621559143,0.3535629212856293,0.47305554151535034,91.552734375,-58.28857421875,118.59130859375
2.593597888946533,-148308390,1,-0.7182301878929138,0.6973129510879517,0.18033093214035034,71.6552734375,-51.20849609375,157.71484375
2.593702793121338,-148308371,1,-0.5146169066429138,0.4690414369106293,0.30288952589035034,58.59375,-45.2880859375,180.84716796875
2.616128921508789,-148308381,0,-0.12883101403713226,0.07563541829586029,-0.02162712812423706,-70.86181640625,-58.7158203125,-186.767578125
2.616135835647583,-148308362,0,-0.20817671716213226,-0.07963801920413971,-0.03017204999923706,-61.09619140625,-60.9130859375,-168.51806640625
2.623469114303589,-148308352,1,-0.23239031434059143,0.15580901503562927,0.35098522901535034,128.60107421875,-29.47998046875,147.76611328125
2.6386969089508057,-148308343,0,-0.25383102893829346,-0.004930991679430008,0.00864630937576294,-58.53271484375,-78.61328125,-117.7978515625
2.638779878616333,-148308324,0,-0.18791304528713226,-0.2312493473291397,-0.01332634687423706,-74.76806640625,-106.75048828125,-62.68310546875
2.6535580158233643,-148308333,1,-0.13839617371559143,0.3403793275356293,0.21792858839035034,127.685546875,-17.822265625,56.396484375
2.653672933578491,-148308314,1,-0.19601336121559143,0.6277328729629517,-0.016690552234649658,-1.220703125,-33.87451171875,-58.77685546875
2.6762149333953857,-148308305,0,-0.16301070153713226,-0.012499351054430008,0.09311896562576294,-82.70263671875,-148.13232421875,-21.30126953125
2.6835479736328125,-148308295,1,-0.18893328309059143,0.6128402948379517,-0.16219836473464966,-149.23095703125,-38.4521484375,-143.98193359375
2.6985998153686523,-148308286,0,0.06941117346286774,-0.08745051920413971,0.26621466875076294,-55.11474609375,-154.60205078125,-0.6103515625
2.6986958980560303,-148308267,0,0.11946000158786774,-0.11406184732913971,0.19858771562576294,-60.9130859375,-143.6767578125,44.61669921875
2.7263739109039307,-148308276,1,-0.12325946241617203,0.3777328431606293,-0.29134875535964966,-274.5361328125,15.19775390625,-199.64599609375
2.726383924484253,-148308257,1,-0.35885515809059143,0.2722640931606293,-0.12801867723464966,-312.1337890625,101.01318359375,-209.16748046875
2.7298591136932373,-148308248,0,0.14655961096286774,-0.11235286295413971,0.24717170000076294,-63.720703125,-109.19189453125,103.3935546875
2.743621826171875,-148308238,1,-0.6635426878929138,0.24199065566062927,0.14346569776535034,-318.4814453125,119.9951171875,-187.01171875
2.7730019092559814,-148308229,0,0.24299515783786774,-0.2429680973291397,0.20932990312576294,-69.2138671875,-88.9892578125,159.48486328125
2.773010015487671,-148308210,0,0.42951858043670654,-0.2800774872303009,0.16416388750076294,-43.8232421875,-77.1484375,236.38916015625
2.7779290676116943,-148308219,1,-0.6225270628929138,0.10185394436120987,0.31997936964035034,-289.794921875,125.67138671875,-167.90771484375
2.7779362201690674,-148308200,1,-0.7907399535179138,-0.04316558688879013,0.44375866651535034,-224.91455078125,152.2216796875,-153.38134765625
2.7886669635772705,-148308191,0,0.5774677991867065,-0.3135247528553009,0.09922248125076294,-7.9345703125,-88.07373046875,287.841796875
2.788727045059204,-148308172,0,0.8699482679367065,-0.4197259247303009,0.08188849687576294,52.978515625,-104.736328125,350.03662109375
2.816922187805176,-148308181,1,-1.036101222038269,0.01616058498620987,0.5191981196403503,-185.4248046875,169.49462890625,-114.013671875
2.82163405418396,-148308153,0,1.1665791273117065,-0.4521966278553009,0.08262091875076294,124.32861328125,-104.8583984375,420.0439453125
2.833590030670166,-148308145,1,-1.227995753288269,-0.5155776739120483,1.1578700542449951,-132.080078125,233.82568359375,-64.51416015625
2.8490281105041504,-148308117,0,1.8953388929367065,-0.4141106903553009,0.0032752156257629395,234.7412109375,-58.4716796875,506.65283203125
2.871309995651245,-148308126,1,-1.485564112663269,-0.3876480162143707,1.4137294292449951,-64.8193359375,195.3125,-84.9609375
2.871316909790039,-148308107,1,-1.267790675163269,-0.6669448614120483,1.4496181011199951,-38.330078125,138.12255859375,-106.26220703125
2.8787879943847656,-148308098,0,2.038161277770996,-0.3318352997303009,-0.02675408124923706,276.55029296875,-26.9775390625,508.7890625
2.893484115600586,-148308088,1,-1.296599268913269,-0.6347182989120483,1.5018641948699951,2.8076171875,121.15478515625,-139.46533203125
2.9193270206451416,-148308079,0,2.096510887145996,-0.1550774723291397,-0.09389275312423706,286.376953125,-2.44140625,478.515625
2.919334888458252,-148308060,0,2.273024559020996,-0.027147788554430008,-0.12074822187423706,254.45556640625,46.2646484375,404.23583984375
2.923677921295166,-148308069,1,-1.307829737663269,-0.4423355162143707,1.6034266948699951,42.1142578125,89.111328125,-145.6298828125
2.923738956451416,-148308050,1,-1.402068018913269,-0.03266754001379013,1.6566493511199951,66.40625,70.98388671875,-116.02783203125
2.9391491413116455,-148308041,0,2.305739402770996,0.10859440267086029,-0.24501579999923706,207.58056640625,122.55859375,324.64599609375
2.939268112182617,-148308022,0,2.246169090270996,0.1942877620458603,-0.40175408124923706,160.0341796875,176.33056640625,244.32373046875
2.9536449909210205,-148308031,1,-1.304167628288269,0.3633285462856293,1.7171962261199951,82.94677734375,58.10546875,-49.25537109375
2.953747034072876,-148308012,1,-1.364470362663269,0.8579574823379517,1.7765223979949951,103.515625,48.76708984375,-1.708984375
2.9767160415649414,-148308003,0,2.125075340270996,0.2541022002696991,-0.6334435343742371,78.4912109375,216.49169921875,147.94921875
2.9852869510650635,-148307993,1,-1.218962550163269,1.7832504510879517,1.6734950542449951,120.7275390625,35.09521484375,110.16845703125
2.9997618198394775,-148307984,0,2.005446434020996,0.09614323079586029,-0.7823693156242371,4.08935546875,243.34716796875,59.814453125
2.999846935272217,-148307965,0,1.7251728773117065,-0.1963372379541397,-0.5843712687492371,-14.892578125,256.89697265625,5.43212890625
3.0263941287994385,-148307974,1,-1.387663722038269,2.364060878753662,1.7010829448699951,65.0634765625,39.306640625,222.412109375
3.026401996612549,-148307955,1,-1.597380518913269,2.417283535003662,1.6251552104949951,-51.20849609375,-34.912109375,372.314453125
3.030256986618042,-148307946,0,1.6563252210617065,-0.1655755192041397,-0.33022087812423706,13.36669921875,252.3193359375,-19.34814453125
3.045530080795288,-148307936,1,-0.9726247191429138,1.6553207635879517,1.3556239604949951,-135.80322265625,-102.1728515625,401.2451171875
3.072638988494873,-148307927,0,1.5867451429367065,0.1566901057958603,-0.22865837812423706,17.15087890625,240.90576171875,-42.78564453125
3.0726468563079834,-148307908,0,1.4234150648117065,0.3449225127696991,-0.25990837812423706,-28.25927734375,229.06494140625,-59.2041015625
3.0770480632781982,-148307917,1,-0.07833758741617203,0.9885727167129517,1.2423427104949951,-152.03857421875,-50.59814453125,369.0185546875
3.090607166290283,-148307889,0,1.2825459241867065,0.2284674495458603,-0.18300408124923706,-53.5888671875,179.74853515625,-79.4677734375
3.103766918182373,-148307881,1,0.31204327940940857,-0.03291168063879013,1.3375575542449951,-86.85302734375,44.49462890625,386.90185546875
3.103886127471924,-148307862,1,0.5176096558570862,-0.5441421270370483,1.2943446636199951,-36.2548828125,123.6572265625,358.82568359375
3.122467041015625,-148307853,0,1.1250752210617065,-0.3574700653553009,-0.17567986249923706,-16.54052734375,20.6298828125,-68.90869140625
3.1352157592773438,-148307843,1,0.18069562315940857,-0.8778823614120483,1.5350673198699951,5.126953125,177.91748046875,325.25634765625
3.1504080295562744,-148307834,0,1.2622822523117065,0.2738775908946991,0.32627326250076294,49.25537109375,-10.92529296875,-95.39794921875
3.1505138874053955,-148307815,0,1.0581806898117065,0.4074225127696991,0.35068732500076294,48.76708984375,-6.8359375,-128.662109375
3.1717519760131836,-148307824,1,-0.05660907179117203,-1.0600112676620483,1.7728602886199951,23.92578125,181.640625,309.87548828125
3.1731009483337402,-148307805,1,-0.28878679871559143,-1.3817886114120483,1.8815028667449951,58.53271484375,162.7197265625,275.87890625
3.179685115814209,-148307796,0,0.9798115491867065,-0.030077476054430008,0.5132849812507629,87.2802734375,-11.16943359375,-163.87939453125
3.1936540603637695,-148307786,1,-0.6186208128929138,-1.3124526739120483,1.9894130229949951,177.734375,130.67626953125,279.84619140625
3.2187089920043945,-148307777,0,1.1314228773117065,0.2165045589208603,0.30039435625076294,89.84375,13.24462890625,-190.5517578125
3.218716859817505,-148307758,0,0.8777607679367065,-0.11967708170413971,0.24009162187576294,49.8046875,3.90625,-118.896484375
3.2237298488616943,-148307767,1,-0.8322438597679138,-0.8312515020370483,1.6520106792449951,316.650390625,142.08984375,255.31005859375
3.223790168762207,-148307748,1,-1.348357081413269,-0.20063629746437073,1.5594813823699951,370.60546875,123.22998046875,244.5068359375
3.2386739253997803,-148307739,0,1.0623310804367065,0.2790045440196991,0.28574591875076294,99.91455078125,-40.283203125,-116.5771484375
3.2535929679870605,-148307729,1,-1.863737940788269,0.23198089003562927,1.3876063823699951,366.5771484375,37.90283203125,227.1728515625
3.270932912826538,-148307720,0,1.4334248304367065,0.4298834502696991,0.35898810625076294,107.666015625,-59.63134765625,-209.65576171875
3.2709410190582275,-148307701,0,1.5220478773117065,0.2287115901708603,0.32480841875076294,103.759765625,-29.11376953125,-229.30908203125
3.2836949825286865,-148307710,1,-1.560271143913269,0.3745590150356293,1.1249110698699951,304.8095703125,-37.2314453125,156.25
3.28379487991333,-148307691,1,-1.837370753288269,0.3347640931606293,1.2167079448699951,226.86767578125,-69.88525390625,95.5810546875
3.2985711097717285,-148307682,0,1.4734638929367065,0.2753424346446991,0.16123420000076294,89.599609375,21.240234375,-214.90478515625
3.298628091812134,-148307663,0,1.2532490491867065,0.3507818877696991,-0.06459587812423706,67.56591796875,31.494140625,-212.2802734375
3.3216919898986816,-148307672,1,-2.1454763412475586,0.21415862441062927,1.3399989604949951,198.974609375,-119.5068359375,66.83349609375
3.3216991424560547,-148307653,1,-2.5370779037475586,0.01249847561120987,1.4115321636199951,203.30810546875,-169.86083984375,60.546875
3.328357219696045,-148307644,0,1.0857685804367065,0.3524908721446991,-0.29359978437423706,42.236328125,-2.3193359375,-210.3271484375
3.371654987335205,-148307625,0,1.1367939710617065,0.4250006377696991,-0.39247673749923706,20.93505859375,-48.27880859375,-200.01220703125
3.375488042831421,-148307617,1,-2.9794607162475586,-1.0585464239120483,0.8951746821403503,318.84765625,-333.43505859375,99.4873046875
3.375494956970215,-148307598,1,-3.0343923568725586,-1.6701186895370483,0.26040905714035034,422.36328125,-368.1640625,135.19287109375
3.388611078262329,-148307589,0,1.2129658460617065,0.3129400908946991,-0.43080681562423706,23.8037109375,-117.98095703125,-246.64306640625
3.419196844100952,-148307579,1,-3.1069021224975586,-2.169142246246338,-0.29305773973464966,488.4033203125,-391.7236328125,177.91748046875
3.424299955368042,-148307570,0,1.2134541273117065,0.2021002620458603,-0.5177208781242371,-7.32421875,-135.986328125,-215.8203125
3.424309015274048,-148307551,0,1.1470478773117065,0.2938971221446991,-0.46400994062423706,-53.1005859375,-127.86865234375,-185.36376953125
3.433903217315674,-148307560,1,-2.9760427474975586,-2.534132480621338,-0.9109776616096497,526.42822265625,-414.36767578125,215.51513671875
3.4340169429779053,-148307541,1,-2.7460622787475586,-2.653028964996338,-1.3147861957550049,560.791015625,-394.04296875,235.90087890625
3.4501922130584717,-148307532,0,1.1114033460617065,0.3119635283946991,-0.39027947187423706,-116.69921875,-101.62353515625,-195.1904296875
3.450202226638794,-148307513,0,1.1499775648117065,0.2851080596446991,-0.32240837812423706,-163.14697265625,-69.580078125,-207.03125
3.4707388877868652,-148307522,1,-2.3818044662475586,-2.498487949371338,-1.5686924457550049,597.47314453125,-328.55224609375,257.38525390625
3.4707460403442383,-148307503,1,-2.1347341537475586,-2.254103183746338,-1.5469639301300049,595.8251953125,-293.64013671875,258.7890625
3.4788990020751953,-148307494,0,1.1194599866867065,0.3959479033946991,-0.28407829999923706,-220.15380859375,-30.6396484375,-205.74951171875
3.4936139583587646,-148307484,1,-1.811980128288269,-1.9909194707870483,-1.2881748676300049,558.89892578125,-271.91162109375,224.2431640625
3.5189990997314453,-148307475,0,1.0623310804367065,0.3798346221446991,-0.32314079999923706,-290.6494140625,-10.498046875,-181.396484375
3.5190069675445557,-148307456,0,0.9356220960617065,0.3852057158946991,-0.34218376874923706,-351.07421875,-22.4609375,-167.66357421875
3.523643970489502,-148307465,1,-1.683318018913269,-1.8532241582870483,-0.9585850834846497,515.19775390625,-257.38525390625,183.10546875
3.5237770080566406,-148307446,1,-1.650114893913269,-1.6857436895370483,-0.39413195848464966,466.9189453125,-232.36083984375,136.77978515625
3.538680076599121,-148307437,0,0.8479756116867065,0.3029303252696991,-0.28285759687423706,-385.07080078125,-54.62646484375,-164.85595703125
3.553368091583252,-148307427,1,-1.808318018913269,-1.5844253301620483,-0.024503052234649658,482.5439453125,-205.4443359375,116.76025390625
3.573951005935669,-148307418,0,0.7803486585617065,0.1276373714208603,-0.13857048749923706,-392.27294921875,-109.43603515625,-186.09619140625
3.5739598274230957,-148307399,0,0.6651142835617065,-0.12260676920413971,0.08579474687576294,-354.43115234375,-199.951171875,-225.4638671875
3.5839197635650635,-148307408,1,-2.2328786849975586,-1.4530776739120483,0.03628796339035034,513.85498046875,-193.42041015625,168.0908203125
3.5839622020721436,-148307389,1,-2.3581228256225586,-1.4267104864120483,0.05508679151535034,490.72265625,-217.10205078125,229.30908203125
3.598496913909912,-148307380,0,0.6848896741867065,-0.3066888153553009,0.16440802812576294,-309.50927734375,-265.19775390625,-237.79296875
3.622594118118286,-148307353,1,-2.1576833724975586,-2.140089511871338,0.021395385265350342,355.65185546875,-213.56201171875,323.486328125
3.6317298412323,-148307361,0,0.49275100231170654,-0.5083489418029785,0.19516974687576294,-294.7998046875,-270.5078125,-180.48095703125
3.645167827606201,-148307334,1,-2.0373220443725586,-2.240675449371338,0.24673718214035034,341.00341796875,-155.33447265625,327.33154296875
3.673272132873535,-148307325,0,0.49861037731170654,-0.7554192543029785,0.5040076375007629,-341.552734375,-232.84912109375,-17.02880859375
3.6732800006866455,-148307306,0,0.6636494398117065,-0.5273919105529785,0.6836951375007629,-323.73046875,-203.61328125,-60.4248046875
3.679574966430664,-148307315,1,-2.0417165756225586,-1.9416030645370483,0.28872936964035034,317.68798828125,-92.46826171875,338.0126953125
3.67958402633667,-148307296,1,-2.0990896224975586,-1.8546890020370483,0.13150280714035034,236.328125,-16.29638671875,338.7451171875
3.6885361671447754,-148307287,0,0.8218525648117065,-0.4558587372303009,0.6756384968757629,-285.2783203125,-233.45947265625,-116.5771484375
3.7033557891845703,-148307277,1,-1.461150050163269,-2.220167636871338,0.41104382276535034,219.1162109375,29.6630859375,342.95654296875
3.7259042263031006,-148307268,0,0.9903095960617065,-0.3047356903553009,0.8289588093757629,-236.02294921875,-282.53173828125,-129.33349609375
3.725912094116211,-148307249,0,1.2918232679367065,0.09296940267086029,1.1495153903961182,-218.994140625,-286.7431640625,-130.67626953125
3.733715057373047,-148307258,1,-1.630827784538269,-2.132765293121338,0.05435436964035034,235.7177734375,103.8818359375,294.7998046875
3.7338309288024902,-148307239,1,-1.739714503288269,-1.3517593145370483,-0.41586047410964966,216.1865234375,163.02490234375,322.69287109375
3.7521469593048096,-148307230,0,1.3452900648117065,0.2899908721446991,1.1761267185211182,-253.35693359375,-218.3837890625,-136.90185546875
3.7707550525665283,-148307220,1,-1.633269190788269,-1.3544448614120483,-0.44613391160964966,86.0595703125,148.3154296875,334.47265625
3.7707629203796387,-148307201,1,-1.363249659538269,-1.3922866582870483,-0.6954014897346497,32.77587890625,177.1240234375,312.3779296875
3.778733968734741,-148307211,0,1.2088154554367065,0.4267096221446991,1.4512732028961182,-215.39306640625,-163.9404296875,-164.48974609375
3.7788379192352295,-148307192,0,1.1555927991867065,0.3549322783946991,0.9998572468757629,-207.21435546875,-162.4755859375,-181.7626953125
3.793606996536255,-148307182,1,-1.085905909538269,-1.1149429082870483,-0.8460362553596497,6.9580078125,213.31787109375,275.0244140625
3.8178770542144775,-148307173,0,1.0203388929367065,0.2702154815196991,1.0936071872711182,-197.998046875,-163.51318359375,-211.97509765625
3.8178858757019043,-148307154,0,0.9800556898117065,0.2899908721446991,1.1192419528961182,-155.70068359375,-164.61181640625,-247.314453125
3.8237388134002686,-148307163,1,-1.000944972038269,-0.7843765020370483,-0.9017003178596497,-31.3720703125,287.78076171875,228.57666015625
3.823837995529175,-148307144,1,-1.257048487663269,-0.4188980162143707,-0.7203038334846497,-62.255859375,315.12451171875,234.80224609375
3.8401339054107666,-148307135,0,0.9995869398117065,0.1693854182958603,1.3223669528961182,-116.02783203125,-152.89306640625,-269.8974609375
3.867621898651123,-148307125,1,-1.119597315788269,-0.11689605563879013,-0.9153721928596497,-128.41796875,294.3115234375,273.3154296875
3.8724968433380127,-148307116,0,1.1170185804367065,0.2091803401708603,1.5245153903961182,-62.1337890625,-129.2724609375,-298.828125
3.8725039958953857,-148307097,0,0.8782490491867065,-0.08085872232913971,2.401956796646118,52.79541015625,-72.69287109375,-349.54833984375
3.8852059841156006,-148307089,1,-0.6086110472679138,-0.18256989121437073,-1.2593662738800049,-219.6044921875,403.80859375,271.17919921875
3.900151014328003,-148307061,0,0.03108109161257744,-0.2644524872303009,1.3890173435211182,71.1669921875,-26.7333984375,-393.61572265625
3.9213509559631348,-148307070,1,-0.7365407347679138,-0.3825210630893707,-0.7637608647346497,-261.71875,484.19189453125,218.3837890625
3.921358108520508,-148307051,1,-0.7113942503929138,-0.4484390318393707,-0.33260852098464966,-287.2314453125,498.10791015625,173.4619140625
3.929050922393799,-148307042,0,0.6109150648117065,0.2809576690196991,1.4363806247711182,126.953125,-34.85107421875,-274.658203125
3.945004940032959,-148307032,1,-0.5900563597679138,-0.3192886412143707,-0.09798938035964966,-289.73388671875,494.07958984375,165.1611328125
3.970201015472412,-148307023,0,0.5728291273117065,0.3410162627696991,1.1387732028961182,75.8056640625,60.05859375,-176.45263671875
3.9702091217041016,-148307004,0,0.42024123668670654,0.2440924495458603,0.9434607625007629,28.13720703125,110.107421875,-146.3623046875
3.9768640995025635,-148307013,1,-0.5644215941429138,-0.4032730162143707,0.07168835401535034,-306.884765625,478.271484375,142.2119140625
3.9768710136413574,-148306994,1,-0.5404958128929138,-0.5297378301620483,0.20865124464035034,-310.1806640625,461.181640625,107.666015625
3.9902520179748535,-148306985,0,0.22541703283786774,0.021192055195569992,0.7740271687507629,42.1142578125,107.91015625,-113.46435546875
4.021551847457886,-148306975,1,-0.6366872191429138,-0.6151870489120483,0.38272351026535034,-280.57861328125,435.4248046875,55.419921875
4.0294189453125,-148306966,0,0.19123734533786774,-0.014940757304430008,0.6932166218757629,84.228515625,89.78271484375,-70.12939453125
4.029428005218506,-148306947,0,0.23835648596286774,-0.012011069804430008,0.6380408406257629,104.06494140625,90.6982421875,-33.14208984375
4.0337560176849365,-148306956,1,-0.6889333128929138,-0.6388686895370483,0.6041590571403503,-218.1396484375,384.58251953125,-10.986328125
4.033881187438965,-148306937,1,-0.6093434691429138,-0.4066909849643707,0.7147547602653503,-147.0947265625,311.21826171875,-74.3408203125
4.050446033477783,-148306928,0,0.25910842418670654,0.019238930195569992,0.5840857625007629,114.74609375,104.98046875,28.74755859375
4.075353145599365,-148306918,1,-0.5602712035179138,-0.17158356308937073,0.6586024165153503,-109.06982421875,268.1884765625,-109.68017578125
4.079770088195801,-148306909,0,0.35627639293670654,0.1457037776708603,0.5486853718757629,109.4970703125,126.03759765625,82.8857421875
4.079777002334595,-148306890,0,0.33918654918670654,0.2836432158946991,0.48740607500076294,76.72119140625,156.982421875,106.50634765625
4.098346948623657,-148306899,1,-0.6706227660179138,4.7303736209869385e-05,0.5575281977653503,-104.79736328125,218.56689453125,-149.2919921875
4.09836220741272,-148306880,1,-0.6647633910179138,0.05058441311120987,0.5023524165153503,-127.5634765625,172.2412109375,-199.70703125
4.119226932525635,-148306871,0,0.29206740856170654,0.2743658721446991,0.47056037187576294,41.259765625,164.48974609375,125.91552734375
4.119234085083008,-148306852,0,0.22688187658786774,0.2609381377696991,0.48154670000076294,21.78955078125,167.17529296875,170.41015625
4.12345814704895,-148306861,1,-0.7599782347679138,-0.01972808688879013,0.5653406977653503,-122.86376953125,156.18896484375,-246.2158203125
4.138549089431763,-148306833,0,0.31355178356170654,0.2685064971446991,0.43491584062576294,17.02880859375,158.0810546875,221.00830078125
4.153412103652954,-148306825,1,-1.170134425163269,0.10527191311120987,0.6678797602653503,-56.884765625,101.806640625,-321.22802734375
4.171671152114868,-148306797,0,0.5679463148117065,0.5861334800720215,0.25620490312576294,19.83642578125,137.26806640625,239.44091796875
4.183619976043701,-148306806,1,-1.275114893913269,0.18437346816062927,0.7054774165153503,-41.19873046875,68.603515625,-356.01806640625
4.1837708950042725,-148306787,1,-1.380339503288269,0.2766586244106293,0.7023035883903503,-41.19873046875,34.85107421875,-374.93896484375
4.198338031768799,-148306778,0,0.7622822523117065,0.7682623863220215,0.19175177812576294,-6.8359375,121.64306640625,227.35595703125
4.220445871353149,-148306768,1,-1.559782862663269,0.2615219056606293,0.7379481196403503,-37.109375,11.04736328125,-374.0234375
4.228888988494873,-148306759,0,0.7549580335617065,0.9604010581970215,0.09531623125076294,-44.73876953125,99.79248046875,212.95166015625
4.229002952575684,-148306740,0,0.8198994398117065,1.1662116050720215,0.05845099687576294,-79.65087890625,39.48974609375,178.3447265625
4.24367094039917,-148306749,1,-1.670378565788269,0.3142562806606293,0.8058192133903503,-19.22607421875,-17.51708984375,-363.8916015625
4.243741035461426,-148306730,1,-1.725798487663269,0.3586898744106293,0.8653895258903503,-16.41845703125,-50.59814453125,-353.759765625
4.26934289932251,-148306721,0,0.9976338148117065,1.4582037925720215,0.09800177812576294,-122.4365234375,-21.1181640625,135.6201171875
4.269352912902832,-148306702,0,1.1748799085617065,1.7743659019470215,0.22910529375076294,-162.353515625,-62.80517578125,59.5703125
4.273890972137451,-148306711,1,-1.767058253288269,0.3184066712856293,0.8771082758903503,-7.75146484375,-99.365234375,-338.43994140625
4.273899078369141,-148306692,1,-1.816862940788269,0.4338851869106293,0.7657801508903503,5.7373046875,-138.0615234375,-326.84326171875
4.288625001907349,-148306683,0,1.1946552991867065,1.9103522300720215,0.35972052812576294,-223.57177734375,-80.38330078125,-0.1220703125
4.32331395149231,-148306664,0,1.1074970960617065,1.7487311363220215,0.5543006062507629,-319.4580078125,-116.0888671875,-36.92626953125
4.323321104049683,-148306645,0,1.0352314710617065,1.3156256675720215,0.8809607625007629,-373.1689453125,-164.00146484375,-49.4384765625
4.333474159240723,-148306673,1,-1.831511378288269,0.6645981073379517,0.5790125727653503,-0.8544921875,-167.724609375,-315.61279296875
4.3335959911346436,-148306654,1,-1.725310206413269,0.9311996698379517,0.5099207758903503,-32.71484375,-161.376953125,-257.26318359375
4.334795951843262,-148306635,1,-1.686491847038269,1.0056625604629517,0.49038952589035034,-66.46728515625,-137.63427734375,-202.7587890625
4.34865403175354,-148306626,0,0.9766377210617065,1.1461920738220215,1.3064978122711182,-374.57275390625,-194.64111328125,-58.837890625
4.37148118019104,-148306616,1,-1.689665675163269,0.8064438104629517,0.34463757276535034,-80.26123046875,-105.40771484375,-146.1181640625
4.378710985183716,-148306607,0,0.8802021741867065,0.8166022300720215,1.8064978122711182,-344.6044921875,-184.2041015625,-139.22119140625
4.378848075866699,-148306588,0,0.8242939710617065,0.1820807307958603,2.074808359146118,-278.38134765625,-112.4267578125,-208.80126953125
4.397342920303345,-148306597,1,-1.770232081413269,0.6807113885879517,0.49893444776535034,-24.35302734375,-73.486328125,-109.375
4.418686866760254,-148306569,0,0.5083760023117065,-0.1885247379541397,2.115579843521118,-178.03955078125,-63.17138671875,-222.5341796875
4.423749923706055,-148306561,1,-1.869597315788269,0.8811508417129517,0.5785242915153503,80.87158203125,-51.57470703125,0.91552734375
4.4237940311431885,-148306542,1,-1.760954737663269,1.1877914667129517,0.7347742915153503,97.5341796875,-105.1025390625,77.5146484375
4.43929386138916,-148306533,0,0.41584670543670654,-0.3672356903553009,1.7701208591461182,-36.31591796875,-4.7607421875,-301.94091796875
4.453550100326538,-148306523,1,-1.762663722038269,1.0767074823379517,0.49966686964035034,63.1103515625,-120.91064453125,118.83544921875
4.471994876861572,-148306514,0,0.36970412731170654,-0.3259759247303009,1.7078649997711182,-20.01953125,23.5595703125,-342.529296875
4.472004175186157,-148306495,0,0.5261982679367065,-0.2795892059803009,1.5044958591461182,-39.61181640625,57.373046875,-361.38916015625
4.483587026596069,-148306504,1,-1.151091456413269,0.7671371698379517,0.11929577589035034,26.42822265625,-110.77880859375,93.26171875
4.48370885848999,-148306485,1,-1.095427393913269,0.5410629510879517,0.20376843214035034,41.56494140625,-38.330078125,70.61767578125
4.498749017715454,-148306476,0,0.6126240491867065,-0.2676263153553009,1.3836462497711182,-97.59521484375,67.87109375,-396.05712890625
4.519145965576172,-148306466,1,-1.071745753288269,0.5098129510879517,0.30777233839035034,132.4462890625,33.69140625,114.8681640625
4.528848886489868,-148306457,0,1.0115498304367065,-0.6020989418029785,1.6614782810211182,-69.3359375,60.302734375,-433.04443359375
4.528971910476685,-148306438,0,1.2410420179367065,-0.6040520668029785,1.7366735935211182,-8.9111328125,94.8486328125,-429.01611328125
4.543742895126343,-148306447,1,-0.9609059691429138,0.8176742792129517,0.07583874464035034,135.7421875,63.5986328125,110.90087890625
4.543829917907715,-148306428,1,-0.6398610472679138,0.2722640931606293,0.23404186964035034,65.7958984375,87.890625,82.58056640625
4.568453073501587,-148306419,0,0.9615010023117065,-0.6877923011779785,1.9373571872711182,31.8603515625,130.9814453125,-403.13720703125
4.576337814331055,-148306409,1,-0.9523610472679138,1.1462875604629517,-0.03426867723464966,55.48095703125,112.85400390625,160.33935546875
4.588873863220215,-148306400,0,0.8323506116867065,-1.0681633949279785,1.7320349216461182,58.65478515625,123.046875,-337.2802734375
4.5889599323272705,-148306381,0,0.7957295179367065,-1.0256829261779785,1.5538122653961182,57.06787109375,121.76513671875,-247.9248046875
4.60362696647644,-148306390,1,-1.064177393913269,0.13237151503562927,0.37832897901535034,-21.6064453125,82.03125,158.935546875
4.603644847869873,-148306371,1,-0.7348317503929138,0.10893402248620987,0.6205164790153503,28.62548828125,58.837890625,113.76953125
4.623151063919067,-148306362,0,0.8028095960617065,-1.3013176918029785,1.8597204685211182,59.5703125,140.869140625,-159.3017578125
4.62316107749939,-148306343,0,1.1385029554367065,-1.1968255043029785,1.7962439060211182,128.23486328125,184.9365234375,-62.80517578125
4.6334919929504395,-148306352,1,-0.7995290160179138,0.3452621400356293,0.6112391352653503,124.69482421875,101.5625,138.85498046875
4.633620977401733,-148306333,1,-0.9147633910179138,0.7483383417129517,0.35293835401535034,95.458984375,134.1552734375,172.9736328125
4.648592948913574,-148306324,0,1.5196064710617065,-1.1108880043029785,1.6670935153961182,187.92724609375,217.529296875,11.962890625
4.677436828613281,-148306305,0,1.8108662366867065,-1.0808587074279785,1.5992224216461182,232.91015625,260.68115234375,70.61767578125
4.693717002868652,-148306297,1,-1.133025050163269,0.2732406556606293,0.18081921339035034,-16.2353515625,131.04248046875,197.998046875
4.693835973739624,-148306278,1,-1.008025050163269,0.2978988587856293,0.13736218214035034,-13.73291015625,91.85791015625,189.0869140625
4.720834970474243,-148306269,0,2.404128074645996,-0.9829583168029785,0.6673377156257629,373.71826171875,408.3251953125,166.32080078125
4.725275993347168,-148306259,1,-0.9884938597679138,0.4126449525356293,0.10098522901535034,-19.6533203125,81.298828125,194.3359375
4.738857984542847,-148306250,0,2.461501121520996,-1.2336907386779785,-0.29359978437423706,473.5107421875,460.38818359375,175.35400390625
4.7389490604400635,-148306231,0,2.363356590270996,-1.3982415199279785,-1.0313928127288818,572.32666015625,460.63232421875,193.17626953125
4.755652189254761,-148306240,1,-0.9313649535179138,0.4509750306606293,0.07852429151535034,-39.794921875,79.16259765625,211.669921875
4.767359972000122,-148306221,1,-0.8200368285179138,0.4285140931606293,0.04898327589035034,-52.79541015625,87.646484375,196.83837890625
4.772636890411377,-148306212,0,2.422438621520996,-1.5520501136779785,-1.5992639064788818,606.01806640625,407.28759765625,224.853515625
4.77264404296875,-148306193,0,2.505446434020996,-1.8977532386779785,-2.207906484603882,628.5400390625,362.97607421875,222.71728515625
4.783626079559326,-148306202,1,-0.8112477660179138,0.5483871698379517,0.07632702589035034,-75.25634765625,99.609375,173.583984375
4.783715009689331,-148306183,1,-0.7084645628929138,0.6213852167129517,0.11001843214035034,-119.5068359375,86.48681640625,149.4140625
4.798821926116943,-148306174,0,2.150465965270996,-2.0144524574279785,-2.980855703353882,713.68408203125,329.89501953125,178.52783203125
4.820107936859131,-148306164,1,-0.6308278441429138,0.6709457635879517,0.12149304151535034,-162.04833984375,75.13427734375,135.31494140625
4.832666873931885,-148306155,0,1.3565205335617065,-1.5005364418029785,-3.093892812728882,763.12255859375,166.748046875,148.92578125
4.832677841186523,-148306136,0,0.7202900648117065,-1.0498528480529785,-2.526754140853882,715.2099609375,-29.47998046875,72.32666015625
4.843822002410889,-148306145,1,-0.44772234559059143,0.7288070917129517,0.17422741651535034,-202.880859375,67.32177734375,130.0048828125
4.843901872634888,-148306126,1,-0.41866961121559143,0.7959457635879517,0.24380749464035034,-235.4736328125,79.77294921875,130.06591796875
4.86978006362915,-148306117,0,0.49934279918670654,-1.0098137855529785,-1.9095666408538818,636.29150390625,-131.04248046875,25.2685546875
4.874911069869995,-148306107,1,-0.33151140809059143,0.6929184198379517,0.28067272901535034,-268.12744140625,87.34130859375,125.732421875
4.888972043991089,-148306098,0,0.5137470960617065,-1.1555657386779785,-1.3143517971038818,551.6357421875,-149.169921875,-6.8359375
4.889127969741821,-148306079,0,0.6739033460617065,-1.2405266761779785,-1.0313928127288818,476.62353515625,-65.0634765625,8.30078125
4.920165777206421,-148306088,1,-0.23385515809059143,0.5996567010879517,0.39834851026535034,-281.494140625,104.6142578125,122.61962890625
4.920175790786743,-148306069,1,-0.32784929871559143,0.5378891229629517,0.5707117915153503,-269.04296875,132.9345703125,140.93017578125
4.92874002456665,-148306060,0,0.8177021741867065,-1.2803215980529785,-1.0826623439788818,404.78515625,49.13330078125,25.390625
4.933815002441406,-148306033,1,-0.32003679871559143,0.6052719354629517,0.8514735102653503,-221.6796875,143.06640625,195.49560546875
4.948863983154297,-148306041,0,0.6360615491867065,-1.1143059730529785,-1.2535607814788818,355.46875,77.1484375,-2.3193359375
4.974053859710693,-148306014,1,-0.39303484559059143,0.5478988885879517,0.9332606196403503,-198.91357421875,151.85546875,227.783203125
4.980947971343994,-148306005,0,0.35676467418670654,-1.6140618324279785,-0.7406212687492371,341.61376953125,-21.17919921875,-107.97119140625
4.981698989868164,-148305986,0,0.7783955335617065,-1.3452630043029785,-0.35683220624923706,399.0478515625,-36.07177734375,-208.43505859375
4.993741989135742,-148305995,1,-0.24825945496559143,0.6946274042129517,0.8468348383903503,-186.46240234375,168.212890625,236.38916015625
4.993840932846069,-148305976,1,-0.29000750184059143,0.8249984979629517,0.39737194776535034,-234.7412109375,193.90869140625,222.412109375
5.021871089935303,-148305967,0,1.2544697523117065,-1.2661614418029785,-0.27504509687423706,324.27978515625,41.93115234375,-283.50830078125
5.025763034820557,-148305957,1,-0.6034840941429138,0.24345549941062927,0.30874890089035034,-320.80078125,219.29931640625,221.25244140625
5.038917064666748,-148305948,0,1.3245381116867065,-1.4336419105529785,-0.39760369062423706,218.26171875,121.09375,-315.24658203125
5.038980007171631,-148305929,0,1.2979267835617065,-1.6997551918029785,-0.5919396281242371,142.2119140625,145.93505859375,-369.93408203125
5.0538330078125,-148305938,1,-0.6879567503929138,-0.17744293808937073,0.8175379633903503,-260.19287109375,234.55810546875,251.3427734375
5.055552959442139,-148305919,1,-0.6838063597679138,-0.08173980563879013,1.1087977886199951,-138.12255859375,262.451171875,282.5927734375
5.070878982543945,-148305910,0,1.2100361585617065,-2.0229973793029785,-0.7310997843742371,97.47314453125,138.427734375,-371.03271484375
5.083542108535767,-148305900,1,-0.7216481566429138,0.11869964748620987,1.1510341167449951,-82.09228515625,267.63916015625,291.015625
5.083688974380493,-148305881,1,-0.6772145628929138,0.3723617494106293,1.0643641948699951,-89.29443359375,279.9072265625,278.25927734375
5.098772048950195,-148305891,0,1.1675556898117065,-1.9800286293029785,-0.8446251749992371,101.01318359375,96.74072265625,-354.30908203125
5.098875999450684,-148305872,0,1.0901631116867065,-1.5986809730529785,-0.9647423624992371,87.2802734375,72.6318359375,-341.00341796875
5.120254993438721,-148305862,1,-0.7941579222679138,0.24076995253562927,1.3461024761199951,-118.10302734375,304.62646484375,286.62109375
5.131889820098877,-148305853,0,1.3113545179367065,-1.0532708168029785,-1.0887658596038818,29.1748046875,73.486328125,-377.25830078125
5.131899833679199,-148305834,0,1.2766865491867065,-1.0581536293029785,-1.2015588283538818,-50.96435546875,111.51123046875,-436.34033203125
5.143671035766602,-148305843,1,-0.5693044066429138,0.3330551087856293,1.2074306011199951,-63.8427734375,318.78662109375,281.31103515625
5.1437828540802,-148305824,1,-0.5514821410179138,0.4114242494106293,1.0199306011199951,-64.88037109375,320.61767578125,280.09033203125
5.167521953582764,-148305815,0,1.1138447523117065,-1.3135247230529785,-1.1368615627288818,-91.796875,132.9345703125,-455.078125
5.175558805465698,-148305805,1,-0.6012868285179138,0.4207015931606293,0.8680750727653503,-82.03125,333.19091796875,269.59228515625
5.188805103302002,-148305796,0,0.9732197523117065,-1.2744622230529785,-1.0497033596038818,-64.697265625,126.953125,-444.580078125
5.1889190673828125,-148305777,0,1.0144795179367065,-0.8442864418029785,-0.9644982218742371,-24.23095703125,113.4033203125,-437.92724609375
5.203319072723389,-148305769,1,-0.8476247191429138,0.3560043275356293,1.0865809917449951,-57.67822265625,230.28564453125,187.5
5.224424839019775,-148305741,0,0.9756611585617065,-0.1619134098291397,-1.0880334377288818,-48.52294921875,149.658203125,-491.51611328125
5.233526945114136,-148305750,1,-0.8149098753929138,0.12040863186120987,0.8802821040153503,-51.7578125,155.517578125,180.5419921875
5.233651876449585,-148305731,1,-0.5807790160179138,-0.12031402438879013,0.9816004633903503,42.8466796875,98.388671875,154.296875
5.248782157897949,-148305722,0,0.6431416273117065,-0.2910638153553009,-1.1703088283538818,-132.99560546875,134.765625,-443.4814453125
5.273285865783691,-148305712,1,-0.49142351746559143,0.06865081936120987,0.7557703852653503,91.6748046875,71.1669921875,126.89208984375
5.278707027435303,-148305703,0,0.27546584606170654,-0.5046868324279785,-1.0621545314788818,-176.7578125,77.880859375,-361.63330078125
5.2788238525390625,-148305684,0,0.15852250158786774,-0.4727044403553009,-0.7452599406242371,-177.55126953125,23.62060546875,-322.08251953125
5.295145034790039,-148305693,1,-0.46139422059059143,0.05326995998620987,0.5704676508903503,80.2001953125,35.2783203125,59.5703125
5.295253038406372,-148305674,1,-0.46896257996559143,0.07280120998620987,0.43203991651535034,65.61279296875,11.71875,-10.80322265625
5.319019079208374,-148305665,0,0.19074906408786774,-0.4119134247303009,-0.40004509687423706,-156.18896484375,-20.81298828125,-296.08154296875
5.324898958206177,-148305655,1,-0.6608571410179138,0.10795745998620987,0.30996960401535034,63.232421875,-2.74658203125,-58.837890625
5.339631795883179,-148305646,0,0.22810257971286774,-0.3528313934803009,-0.17470329999923706,-173.40087890625,-4.21142578125,-246.03271484375
5.339652061462402,-148305627,0,0.19270218908786774,-0.4014153778553009,-0.00795525312423706,-223.32763671875,21.1181640625,-181.70166015625
5.366330146789551,-148305636,1,-0.7153005003929138,0.12187347561120987,0.24917858839035034,67.87109375,-14.404296875,-68.54248046875
5.366338014602661,-148305617,1,-0.7848805785179138,0.16313323378562927,0.18301647901535034,68.84765625,-17.08984375,-70.49560546875
5.370999097824097,-148305608,0,0.08894242346286774,-0.5122551918029785,0.12388068437576294,-257.75146484375,29.6630859375,-137.63427734375
5.3850109577178955,-148305598,1,-0.7839040160179138,0.07402191311120987,0.14517468214035034,75.50048828125,-15.7470703125,-98.7548828125
5.400186777114868,-148305589,0,-0.02165328338742256,-0.6467766761779785,0.28379279375076294,-267.7001953125,3.47900390625,-97.0458984375
5.400315999984741,-148305570,0,-0.09611617028713226,-0.7187981605529785,0.40268927812576294,-241.0888671875,-71.47216796875,-54.74853515625
5.419962167739868,-148305579,1,-0.7682790160179138,0.00956878811120987,0.22769421339035034,72.57080078125,6.28662109375,-151.0009765625
5.419969081878662,-148305560,1,-1.053679347038269,-0.08637847751379013,0.34097546339035034,68.4814453125,23.01025390625,-213.68408203125
5.428673028945923,-148305551,0,-0.03874312713742256,-0.7178215980529785,0.46299201250076294,-209.16748046875,-152.9541015625,-18.12744140625
5.4287989139556885,-148305532,0,0.10871781408786774,-0.7776360511779785,0.49839240312576294,-152.16064453125,-264.58740234375,32.3486328125
5.44360089302063,-148305541,1,-1.271696925163269,-0.01020660251379013,0.32242077589035034,58.2275390625,-1.0986328125,-256.77490234375
5.469272136688232,-148305513,0,0.31648147106170654,-0.7649407386779785,0.45127326250076294,-80.87158203125,-374.45068359375,90.27099609375
5.473691940307617,-148305505,1,-0.8354176878929138,0.3367172181606293,0.12051647901535034,-33.5693359375,27.83203125,-200.50048828125
5.488965034484863,-148305477,0,0.8064717054367065,-0.6409173011779785,0.07114630937576294,46.44775390625,-557.31201171875,196.044921875
5.503642797470093,-148305486,1,-0.8403005003929138,-0.05341949313879013,0.26675671339035034,-61.34033203125,120.4833984375,-162.2314453125
5.5037760734558105,-148305467,1,-1.017790675163269,-0.14497223496437073,0.49112194776535034,-15.31982421875,201.72119140625,-139.6484375
5.524214029312134,-148305458,0,1.3196552991867065,-0.7444329261779785,-0.07948845624923706,135.19287109375,-642.63916015625,220.3369140625
5.533638000488281,-148305448,1,-1.279997706413269,0.13017424941062927,0.6439539790153503,3.173828125,231.87255859375,-134.1552734375
5.548776865005493,-148305439,0,1.8147724866867065,-0.7156243324279785,-0.12172478437423706,239.2578125,-652.28271484375,252.01416015625
5.548797845840454,-148305420,0,2.208815574645996,-0.3496575653553009,-0.05995720624923706,359.130859375,-528.99169921875,295.7763671875
5.571781873703003,-148305429,1,-1.447966456413269,0.2759262025356293,0.8172938227653503,-35.46142578125,201.0498046875,-133.1787109375
5.571851015090942,-148305410,1,-1.494597315788269,0.20536956191062927,1.0035731792449951,-90.63720703125,150.5126953125,-131.591796875
5.5787739753723145,-148305401,0,2.280104637145996,-0.08183528482913971,-0.23061150312423706,390.869140625,-317.68798828125,335.8154296875
5.578866004943848,-148305382,0,2.252028465270996,-0.014940757304430008,-0.13393181562423706,301.45263671875,-66.5283203125,372.98583984375
5.593728065490723,-148305391,1,-1.680632472038269,0.11869964748620987,1.1393153667449951,-92.041015625,141.29638671875,-132.75146484375
5.593815088272095,-148305372,1,-1.790739893913269,0.3799301087856293,1.3021571636199951,-57.861328125,125.42724609375,-119.140625
5.62376594543457,-148305363,0,2.204665184020996,0.12324284017086029,-0.12221306562423706,213.80615234375,120.361328125,361.572265625
5.630721092224121,-148305353,1,-1.800017237663269,0.5500961542129517,1.3365809917449951,-37.04833984375,94.8486328125,-96.00830078125
5.638993978500366,-148305344,0,2.174880027770996,0.2436041682958603,-0.38246697187423706,102.47802734375,301.6357421875,292.78564453125
5.639133930206299,-148305325,0,1.9168232679367065,0.09956119954586029,-0.7469689249992371,18.1884765625,385.1318359375,216.6748046875
5.657185077667236,-148305334,1,-1.684782862663269,0.7834945917129517,1.2054774761199951,-11.5966796875,39.85595703125,-71.47216796875
5.657196044921875,-148305315,1,-1.539030909538269,1.2537094354629517,1.0314052104949951,-2.50244140625,-10.7421875,-34.11865234375
5.677402973175049,-148305306,0,1.6453388929367065,0.03242252394556999,-0.9915978312492371,39.48974609375,323.42529296875,126.52587890625
5.683866024017334,-148305296,1,-1.387663722038269,1.6638656854629517,0.8441492915153503,-9.58251953125,-36.4990234375,13.48876953125
5.700346946716309,-148305287,0,1.6333760023117065,0.1554694026708603,-0.8658654093742371,56.640625,232.11669921875,35.0341796875
5.700358867645264,-148305268,0,1.7051533460617065,0.1376471370458603,-0.5426232218742371,34.97314453125,183.41064453125,-52.978515625
5.720990896224976,-148305277,1,-1.304167628288269,2.061814785003662,0.7816492915153503,-18.73779296875,-35.15625,67.44384765625
5.728592157363892,-148305249,0,1.8357685804367065,0.1520514339208603,-0.25087517499923706,1.0986328125,200.98876953125,-100.28076171875
5.743774890899658,-148305241,1,-1.096159815788269,2.266404628753662,0.8685633540153503,-50.29296875,8.85009765625,195.556640625
5.743856906890869,-148305222,1,-0.8691090941429138,2.322801113128662,0.8944422602653503,-56.7626953125,21.728515625,254.39453125
5.7697529792785645,-148305213,0,1.6497334241867065,0.2626471221446991,0.03501349687576294,-62.8662109375,295.654296875,-138.3056640625
5.788294792175293,-148305194,0,1.4868916273117065,0.1962408870458603,-0.08876579999923706,-70.068359375,280.70068359375,-135.8642578125
5.789854049682617,-148305175,0,1.1428974866867065,0.2506842315196991,0.00034552812576293945,-41.93115234375,204.89501953125,-140.93017578125
5.81493616104126,-148305203,1,-0.6088551878929138,2.029099941253662,1.0472743511199951,-73.2421875,41.9921875,292.54150390625
5.814943075180054,-148305184,1,-0.29586687684059143,1.6226059198379517,1.2316005229949951,-99.42626953125,82.763671875,312.31689453125
5.814948081970215,-148305165,1,-0.37985125184059143,0.9707504510879517,1.2992274761199951,-144.59228515625,150.2685546875,295.2880859375
5.8201048374176025,-148305156,0,1.1548603773117065,0.10957096517086029,-0.14467400312423706,-43.15185546875,117.73681640625,-73.66943359375
5.835207939147949,-148305146,1,-0.5756520628929138,0.6921859979629517,1.6983973979949951,-163.39111328125,223.44970703125,314.75830078125
5.8501739501953125,-148305137,0,1.5069111585617065,0.3903326690196991,0.32773810625076294,31.25,102.294921875,-165.6494140625
5.850301027297974,-148305118,0,1.3743427991867065,0.3834967315196991,0.16025763750076294,7.9345703125,136.5966796875,-161.43798828125
5.873168230056763,-148305127,1,-1.275603175163269,-0.3334487974643707,2.236483335494995,-85.0830078125,289.12353515625,329.58984375
5.873176097869873,-148305108,1,-1.373991847038269,-0.5263198614120483,2.135409116744995,55.17578125,219.7265625,354.91943359375
5.8790998458862305,-148305099,0,0.9707783460617065,0.1483893245458603,-0.08852165937423706,-23.4375,124.93896484375,-124.08447265625
5.894942998886108,-148305089,1,-1.910124659538269,-0.8627456426620483,1.4325282573699951,98.32763671875,223.5107421875,385.25390625
5.921372890472412,-148305080,0,0.7200459241867065,-0.03618099167943001,-0.11415642499923706,4.2724609375,2.74658203125,-88.5009765625
5.921380043029785,-148305061,0,0.9802998304367065,0.2262701839208603,0.08725959062576294,62.07275390625,-96.37451171875,-132.2021484375
5.927504777908325,-148305070,1,-1.858122706413269,-0.8314956426620483,1.4698817729949951,255.06591796875,219.23828125,428.7109375
5.927512168884277,-148305051,1,-1.655241847038269,-0.16987457871437073,0.6683680415153503,415.71044921875,283.75244140625,443.7255859375
5.940428018569946,-148305042,0,1.0237568616867065,0.11958073079586029,0.16172248125076294,75.98876953125,-134.46044921875,-138.85498046875
5.940531969070435,-148305023,0,0.8904560804367065,0.024365883320569992,0.29722052812576294,101.6845703125,-136.41357421875,-122.55859375
5.958133935928345,-148305032,1,-2.0639333724975586,0.10258636623620987,0.9625574946403503,395.81298828125,283.38623046875,379.150390625
5.958146095275879,-148305013,1,-2.3820486068725586,0.21464690566062927,0.9986903071403503,326.47705078125,158.69140625,288.14697265625
5.976654052734375,-148305004,0,0.6905049085617065,0.09956119954586029,0.23642951250076294,120.42236328125,-163.2080078125,-127.13623046875
6.0021281242370605,-148304985,0,0.8872822523117065,0.4943365752696991,-0.08510369062423706,72.32666015625,-168.701171875,-142.08984375
6.020006895065308,-148304977,1,-2.5114431381225586,-0.09687652438879013,0.6058680415153503,235.16845703125,-134.70458984375,279.6630859375
6.0200159549713135,-148304958,1,-2.4921560287475586,-0.06269683688879013,0.30215710401535034,219.90966796875,-165.46630859375,310.9130859375
6.030254125595093,-148304949,0,1.0779560804367065,0.3693365752696991,0.36631232500076294,79.9560546875,-99.609375,-180.7861328125
6.045169830322266,-148304939,1,-2.5192556381225586,-0.4071792662143707,0.11612194776535034,177.67333984375,-210.75439453125,328.06396484375
6.069104909896851,-148304930,0,1.2478779554367065,0.7184576988220215,0.18931037187576294,125.48828125,-50.29296875,-228.45458984375
6.06911301612854,-148304911,0,1.2957295179367065,0.9665045738220215,-0.13417595624923706,92.95654296875,-26.611328125,-300.84228515625
6.073754787445068,-148304920,1,-2.3266286849975586,-0.6588882207870483,-0.47323352098464966,102.5390625,-268.24951171875,307.0068359375
6.07383918762207,-148304901,1,-2.3283376693725586,-1.4926284551620483,-0.29964953660964966,138.00048828125,-307.7392578125,318.42041015625
6.0903401374816895,-148304892,0,1.1724385023117065,1.0116705894470215,-0.5995079874992371,-19.22607421875,-17.9443359375,-343.56689453125
6.0904340744018555,-148304873,0,0.9387959241867065,0.7914557456970215,-0.9679161906242371,-157.71484375,-35.15625,-315.185546875
6.117818117141724,-148304882,1,-2.1322927474975586,-1.6037124395370483,-0.41927844285964966,212.70751953125,-314.453125,302.18505859375
6.117825031280518,-148304863,1,-2.1393728256225586,-1.5976089239120483,-0.6270421147346497,280.517578125,-305.96923828125,258.1787109375
6.122458219528198,-148304854,0,0.8489521741867065,0.4523443877696991,-0.8512169718742371,-242.24853515625,-67.0166015625,-239.92919921875
6.135200023651123,-148304844,1,-1.959929347038269,-1.5263198614120483,-0.7886632084846497,305.48095703125,-318.29833984375,218.56689453125
6.150270938873291,-148304835,0,0.7508076429367065,0.3605475127696991,-0.7679650187492371,-186.46240234375,-13.7939453125,-194.9462890625
6.150353908538818,-148304816,0,0.6919697523117065,0.5795416831970215,-0.8463341593742371,-162.59765625,-31.005859375,-200.13427734375
6.172374963760376,-148304825,1,-1.780730128288269,-1.9918960332870483,-0.7212803959846497,326.904296875,-266.2353515625,237.79296875
6.17238712310791,-148304806,1,-1.769011378288269,-2.395216464996338,-0.7959874272346497,361.02294921875,-225.7080078125,279.47998046875
6.179684162139893,-148304797,0,0.7259052991867065,0.6444830894470215,-0.9410607218742371,-212.46337890625,-61.4013671875,-214.111328125
6.1951658725738525,-148304787,1,-1.650603175163269,-2.484816074371338,-0.9087803959846497,413.51318359375,-208.0078125,286.92626953125
6.220980882644653,-148304778,0,0.8123310804367065,0.4735846221446991,-0.9168907999992371,-310.11962890625,-87.7685546875,-175.23193359375
6.220989942550659,-148304759,0,0.7940205335617065,0.2941412627696991,-0.8468224406242371,-407.71484375,-106.26220703125,-113.6474609375
6.228154182434082,-148304768,1,-1.670866847038269,-2.390821933746338,-0.9331944584846497,436.70654296875,-216.36962890625,266.9677734375
6.22885799407959,-148304749,1,-1.358855128288269,-2.304396152496338,-0.8582432866096497,429.19921875,-214.78271484375,242.3095703125
6.240379810333252,-148304740,0,0.6868427991867065,-0.08427669107913971,-0.6773888468742371,-465.02685546875,-158.935546875,-94.78759765625
6.27106785774231,-148304713,1,-1.098601222038269,-2.308302402496338,-0.6482823491096497,413.51318359375,-175.84228515625,166.93115234375
6.277807950973511,-148304721,0,0.6631611585617065,-0.4163079559803009,-0.46962517499923706,-455.4443359375,-242.7978515625,-100.4638671875
6.283449172973633,-148304694,1,-1.236784815788269,-2.147657871246338,-0.7517979741096497,437.8662109375,-104.67529296875,175.4150390625
6.30068302154541,-148304685,0,0.7752217054367065,-0.7097649574279785,0.21836310625076294,-273.01025390625,-401.18408203125,-109.7412109375
6.3006908893585205,-148304666,0,1.0235127210617065,-0.4541497528553009,0.5330603718757629,-207.03125,-371.52099609375,-79.4677734375
6.3226401805877686,-148304675,1,-1.487028956413269,-2.006544589996338,-0.6775792241096497,423.7060546875,-64.63623046875,216.064453125
6.322648048400879,-148304656,1,-1.859831690788269,-1.6840347051620483,-0.47982531785964966,379.150390625,-18.37158203125,291.93115234375
6.330132961273193,-148304647,0,1.1792744398117065,-0.08891536295413971,0.6971228718757629,-253.96728515625,-270.56884765625,-28.9306640625
6.346265077590942,-148304637,1,-1.904021143913269,-2.376905918121338,-0.28255969285964966,305.7861328125,22.76611328125,341.73583984375
6.3694939613342285,-148304628,0,1.2954853773117065,-0.008348960429430008,0.6939490437507629,-341.61376953125,-193.78662109375,-14.70947265625
6.369501829147339,-148304609,0,1.3076924085617065,-0.06376887857913971,0.8226111531257629,-385.7421875,-170.59326171875,-22.39990234375
6.375221014022827,-148304618,1,-1.772429347038269,-1.7814468145370483,-0.028653442859649658,277.099609375,-20.1416015625,493.10302734375
6.375356912612915,-148304599,1,-1.898650050163269,-1.8168472051620483,-0.32919055223464966,171.93603515625,-35.82763671875,564.39208984375
6.390797138214111,-148304590,0,1.2256611585617065,-0.1999993473291397,0.9600623250007629,-368.22509765625,-170.71533203125,-72.32666015625
6.419363021850586,-148304580,1,-1.680632472038269,-2.117872714996338,-0.7403233647346497,32.71484375,-60.36376953125,549.072265625
6.419370889663696,-148304561,1,1.371613621711731,-3.402540683746338,-3.351407289505005,-208.0078125,52.06298828125,304.443359375
6.425124168395996,-148304571,0,1.1326435804367065,-0.2710442841053009,0.9727576375007629,-310.60791015625,-177.1240234375,-135.986328125
6.42513108253479,-148304552,0,1.4148701429367065,-0.4829583466053009,0.8484900593757629,-272.0947265625,-182.2509765625,-185.546875
6.4356420040130615,-148304542,1,-2.1586599349975586,-2.406202793121338,0.12491101026535034,242.00439453125,410.46142578125,181.45751953125
6.451096057891846,-148304533,0,1.4925068616867065,-0.5945305824279785,1.4175817966461182,-242.431640625,-207.763671875,-175.048828125
6.451154947280884,-148304514,0,0.9778584241867065,-0.03129817917943001,0.7354529500007629,-197.20458984375,-64.5751953125,-196.6552734375
6.472453832626343,-148304523,1,-2.4360036849975586,-0.3581070005893707,-0.20199328660964966,281.06689453125,278.9306640625,276.79443359375
6.47248101234436,-148304504,1,-1.536345362663269,-0.3332046568393707,-1.2361729145050049,-210.205078125,-32.5927734375,216.97998046875
6.480441093444824,-148304495,0,0.8220967054367065,-0.03447200730443001,0.7513220906257629,-224.54833984375,-105.65185546875,-189.0869140625
6.495171070098877,-148304485,1,-0.8185719847679138,-1.0155776739120483,-1.2991611957550049,-174.13330078125,74.15771484375,328.9794921875
6.519183158874512,-148304476,0,1.0169209241867065,-0.1621575504541397,0.9668982625007629,-206.4208984375,-149.96337890625,-210.87646484375
6.519190073013306,-148304457,0,1.0659931898117065,-0.2944817841053009,1.4314978122711182,-151.9775390625,-140.44189453125,-238.037109375
6.52496600151062,-148304449,1,-0.7204274535179138,-0.5375503301620483,-1.0591709613800049,-111.63330078125,284.48486328125,188.3544921875
6.539888858795166,-148304421,0,1.0816181898117065,0.3488287627696991,0.7120154500007629,-85.14404296875,-32.3486328125,-244.32373046875
6.568084001541138,-148304430,1,-1.076140284538269,-0.18525543808937073,-0.9829991459846497,-112.48779296875,353.3935546875,184.50927734375
6.568090915679932,-148304411,1,-1.099577784538269,-0.10908355563879013,-0.8963292241096497,-147.03369140625,347.7783203125,181.15234375
6.574315071105957,-148304402,0,0.44782912731170654,-0.3137688934803009,1.6482946872711182,-12.87841796875,-76.66015625,-185.791015625
6.584144830703735,-148304392,1,-0.9220876097679138,-0.11201324313879013,-0.9102452397346497,-196.10595703125,334.3505859375,185.302734375
6.6037750244140625,-148304383,0,0.7832783460617065,-0.1423821598291397,1.6180212497711182,76.0498046875,-65.673828125,-175.048828125
6.603785991668701,-148304364,0,0.7361592054367065,0.013379555195569992,1.5247595310211182,106.38427734375,-36.68212890625,-158.0810546875
6.62123703956604,-148304373,1,-0.7936696410179138,-0.14546051621437073,-0.9319737553596497,-242.67578125,333.31298828125,188.1103515625
6.62124490737915,-148304354,1,-0.5859059691429138,-0.23603668808937073,-0.7491124272346497,-296.875,310.302734375,160.0341796875
6.630117177963257,-148304345,0,0.6170185804367065,0.04755924269556999,1.3448278903961182,122.61962890625,0.1220703125,-139.7705078125
6.646329164505005,-148304335,1,-0.41573992371559143,-0.2816909849643707,-0.6360753178596497,-323.54736328125,309.75341796875,150.20751953125
6.66908597946167,-148304326,0,0.5203388929367065,0.08979557454586029,1.1858923435211182,134.1552734375,13.671875,-124.20654296875
6.669092178344727,-148304307,0,0.45442092418670654,0.1322760432958603,1.1038610935211182,162.04833984375,33.99658203125,-103.94287109375
6.675130128860474,-148304316,1,-0.42282000184059143,-0.3346695005893707,-0.42416125535964966,-332.51953125,325.68359375,143.61572265625
6.67522406578064,-148304297,1,-0.40084734559059143,-0.4103530943393707,-0.20101672410964966,-340.39306640625,335.38818359375,112.79296875
6.689509153366089,-148304288,0,0.43611037731170654,0.1508307307958603,0.9935095906257629,179.8095703125,41.8701171875,-83.80126953125
6.7167580127716064,-148304278,1,-0.33956804871559143,-0.4154800474643707,-0.03646594285964966,-324.462890625,353.02734375,90.8203125
6.721584796905518,-148304269,0,0.37678420543670654,0.2499518245458603,0.8287146687507629,189.39208984375,66.34521484375,-58.837890625
6.721606969833374,-148304250,0,0.33039748668670654,0.2880377471446991,0.6812537312507629,178.28369140625,79.345703125,-34.3017578125
6.7353479862213135,-148304259,1,-0.43844500184059143,-0.3520034849643707,0.08291882276535034,-309.26513671875,383.97216796875,87.7685546875
6.735466957092285,-148304240,1,-0.6454762816429138,-0.4601577818393707,0.22036999464035034,-277.34375,401.3671875,81.60400390625
6.750057935714722,-148304231,0,0.32429397106170654,0.2980475127696991,0.5760291218757629,160.5224609375,90.39306640625,-18.06640625
6.750136137008667,-148304212,0,0.30598342418670654,0.3222174346446991,0.5237830281257629,145.751953125,101.13525390625,-7.568359375
6.770854949951172,-148304221,1,-0.7287282347679138,-0.4689468443393707,0.36685436964035034,-225.40283203125,387.02392578125,57.0068359375
6.7802159786224365,-148304193,0,0.33454787731170654,0.3278326690196991,0.46616584062576294,122.13134765625,117.67578125,8.48388671875
6.7935779094696045,-148304185,1,-0.5700368285179138,-0.4916519224643707,0.49844616651535034,-95.03173828125,345.52001953125,-43.0908203125
6.8191139698028564,-148304157,0,0.41999709606170654,0.2162604182958603,0.35849982500076294,84.3505859375,157.89794921875,60.546875
6.825147867202759,-148304166,1,-0.6115407347679138,-0.4237808287143707,0.5067469477653503,-28.13720703125,310.9130859375,-110.41259765625
6.825212001800537,-148304147,1,-0.5636891722679138,-0.3446792662143707,0.5260340571403503,9.21630859375,257.62939453125,-182.06787109375
6.840162038803101,-148304138,0,0.5769795179367065,0.2189459651708603,0.26084357500076294,71.83837890625,185.302734375,100.830078125
6.8711769580841064,-148304128,1,-0.6122731566429138,-0.3148941099643707,0.5394617915153503,18.06640625,222.0458984375,-231.38427734375
6.87813401222229,-148304119,0,0.7156513929367065,0.3058600127696991,0.13633185625076294,59.50927734375,194.091796875,133.72802734375
6.8781418800354,-148304100,0,0.9004658460617065,0.4889654815196991,0.05259162187576294,24.0478515625,194.091796875,168.39599609375
6.885239124298096,-148304109,1,-0.7685231566429138,-0.3476089537143707,0.6234461665153503,16.2353515625,166.07666015625,-291.80908203125
6.885310888290405,-148304090,1,-0.9694508910179138,-0.4547866880893707,0.7511317133903503,13.61083984375,96.98486328125,-367.3095703125
6.899328947067261,-148304081,0,1.0437763929367065,0.6706061363220215,0.01035529375076294,-31.79931640625,179.443359375,188.78173828125
6.899415016174316,-148304062,0,1.0806416273117065,0.8161139488220215,0.0076697468757629395,-96.3134765625,186.46240234375,213.5009765625
6.928887128829956,-148304071,1,-1.195280909538269,-0.5221694707870483,0.8507410883903503,41.259765625,28.01513671875,-453.2470703125
6.928895950317383,-148304052,1,-1.608610987663269,-0.4738296568393707,0.8673426508903503,86.5478515625,-16.9677734375,-505.4931640625
6.933166980743408,-148304043,0,1.1182392835617065,0.8852057456970215,0.06675177812576294,-130.7373046875,191.7724609375,204.04052734375
6.945468902587891,-148304033,1,-2.2543630599975586,-0.2938980162143707,0.8292567133903503,148.74267578125,-73.91357421875,-526.91650390625
6.971886157989502,-148304024,0,1.1018818616867065,0.9044928550720215,0.09629279375076294,-143.5546875,158.69140625,152.34375
6.971894025802612,-148304005,0,1.1665791273117065,0.9623541831970215,0.18931037187576294,-116.51611328125,106.3232421875,113.09814453125
6.9763147830963135,-148304014,1,-2.7233572006225586,-0.09419097751379013,0.7579676508903503,202.69775390625,-137.14599609375,-509.09423828125
6.976324081420898,-148303995,1,-2.8688650131225586,0.06010589748620987,0.6669031977653503,267.51708984375,-177.001953125,-469.6044921875
6.993348121643066,-148303986,0,1.3362568616867065,1.2077155113220215,0.30820685625076294,-87.34130859375,46.44775390625,73.3642578125
7.016545057296753,-148303976,1,-2.8888845443725586,0.17534026503562927,0.6366297602653503,312.98828125,-184.75341796875,-419.921875
7.0206379890441895,-148303967,0,1.3516377210617065,1.5458502769470215,0.40146857500076294,-89.35546875,6.04248046875,29.35791015625
7.0206451416015625,-148303948,0,1.2813252210617065,1.6396002769470215,0.44565802812576294,-122.314453125,-27.7099609375,-17.333984375
7.036694049835205,-148303957,1,-2.7670583724975586,0.3352523744106293,0.5760828852653503,336.85302734375,-193.115234375,-344.54345703125
7.050710916519165,-148303929,0,1.0257099866867065,1.5885748863220215,0.48765021562576294,-156.79931640625,-56.640625,-67.19970703125
7.073076963424683,-148303921,1,-2.9933767318725586,0.8459945917129517,0.024569213390350342,291.015625,-318.05419921875,-155.70068359375
7.073084831237793,-148303902,1,-3.0907888412475586,1.2073227167129517,-0.5413487553596497,200.01220703125,-389.16015625,-28.25927734375
7.083203077316284,-148303893,0,0.5952900648117065,1.4794440269470215,0.7107947468757629,-182.92236328125,-152.2216796875,-136.04736328125
7.095158100128174,-148303883,1,-2.6728200912475586,1.3992172479629517,-0.8404210209846497,50.537109375,-419.12841796875,56.396484375
7.11846399307251,-148303874,0,0.46760451793670654,1.3449225425720215,0.8870642781257629,-206.298828125,-226.86767578125,-163.4521484375
7.118470907211304,-148303855,0,0.5540302991867065,1.0390143394470215,1.1846716403961182,-238.76953125,-292.29736328125,-186.5234375
7.125650882720947,-148303864,1,-2.2870779037475586,1.1279770135879517,-0.9068272709846497,-40.6494140625,-366.943359375,93.75
7.125658988952637,-148303845,1,-1.918913722038269,0.7773910760879517,-0.7173741459846497,-49.49951171875,-233.7646484375,109.2529296875
7.140243053436279,-148303836,0,0.6240986585617065,0.4477057158946991,1.7244665622711182,-284.1796875,-289.1845703125,-206.48193359375
7.167483806610107,-148303826,1,-1.787810206413269,0.9219223260879517,-0.6233800053596497,9.21630859375,-110.107421875,135.3759765625
7.173794984817505,-148303817,0,0.8284443616867065,-0.07695247232913971,2.354837656021118,-249.3896484375,-202.81982421875,-260.07080078125
7.173801898956299,-148303798,0,0.7840107679367065,-0.4663567841053009,2.442484140396118,-170.83740234375,-141.11328125,-322.20458984375
7.184478044509888,-148303807,1,-1.880583643913269,0.6086899042129517,-0.5140050053596497,28.4423828125,-40.1611328125,150.57373046875
7.1845619678497314,-148303788,1,-1.709441065788269,0.6565414667129517,-0.6468175053596497,37.17041015625,-35.09521484375,144.59228515625
7.1992151737213135,-148303779,0,0.7854756116867065,-0.8154778480529785,2.028177499771118,-89.111328125,-89.78271484375,-363.6474609375
7.223066806793213,-148303769,1,-1.255583643913269,0.6450668573379517,-0.6570714116096497,49.1943359375,18.4326171875,130.67626953125
7.230268955230713,-148303760,0,0.7998799085617065,-0.5903801918029785,1.6519567966461182,-82.8857421875,-63.17138671875,-382.75146484375
7.230386972427368,-148303741,0,1.2949970960617065,-0.5815911293029785,1.7164099216461182,-142.63916015625,15.869140625,-392.76123046875
7.245085000991821,-148303750,1,-0.9613942503929138,0.4431625306606293,-0.40072375535964966,56.5185546875,114.74609375,108.88671875
7.245161056518555,-148303731,1,-1.094939112663269,0.6899887323379517,0.11294811964035034,96.25244140625,175.29296875,154.47998046875
7.26940393447876,-148303722,0,1.4038838148117065,-0.6428704261779785,1.8126013278961182,-149.35302734375,104.91943359375,-398.74267578125
7.269412040710449,-148303703,0,1.4400166273117065,-0.6323723793029785,1.4810583591461182,-124.0234375,169.61669921875,-384.765625
7.275183200836182,-148303712,1,-1.059782862663269,0.7026840448379517,0.26602429151535034,49.31640625,160.400390625,145.08056640625
7.275294065475464,-148303693,1,-0.8295583128929138,0.5132309198379517,0.33658093214035034,-1.5869140625,145.99609375,153.1982421875
7.289917945861816,-148303684,0,1.2132099866867065,-0.9170403480529785,1.9480993747711182,36.0107421875,137.8173828125,-345.3369140625
7.322136163711548,-148303665,0,1.2713154554367065,-0.2844720184803009,1.5279333591461182,125.18310546875,136.41357421875,-289.97802734375
7.338998079299927,-148303657,1,-0.31857195496559143,0.2576156556606293,0.37393444776535034,60.24169921875,213.56201171875,109.130859375
7.339008092880249,-148303638,1,-0.7919606566429138,0.5207992792129517,0.24380749464035034,-35.64453125,233.09326171875,144.8974609375
7.350603103637695,-148303629,0,1.0244892835617065,-0.6399407386779785,1.5076696872711182,99.18212890625,179.443359375,-167.1142578125
7.3725879192352295,-148303619,1,-0.9069508910179138,0.11967620998620987,0.6566492915153503,-82.03125,152.03857421875,139.892578125
7.384634971618652,-148303610,0,1.1065205335617065,-0.6526360511779785,1.1971228122711182,183.77685546875,218.017578125,-116.3330078125
7.384645938873291,-148303591,0,1.0745381116867065,-0.6353020668029785,0.9654334187507629,264.46533203125,230.40771484375,-70.86181640625
7.3953940868377686,-148303600,1,-0.8298024535179138,0.2588363587856293,0.8663660883903503,-17.15087890625,97.900390625,142.76123046875
7.395487070083618,-148303581,1,-0.9081715941429138,0.7056137323379517,0.8002039790153503,35.0341796875,80.2001953125,185.9130859375
7.420342922210693,-148303572,0,1.2058857679367065,-0.6006340980529785,0.6048377156257629,298.828125,271.91162109375,-37.17041015625
7.420351028442383,-148303553,0,1.4168232679367065,-0.6509270668029785,0.02939826250076294,294.5556640625,310.302734375,-13.12255859375
7.425271034240723,-148303562,1,-1.033171534538269,0.8726059198379517,0.30923718214035034,-23.74267578125,48.52294921875,227.23388671875
7.43004298210144,-148303543,1,-0.7284840941429138,0.6135727167129517,-0.08480578660964966,-121.7041015625,26.55029296875,199.52392578125
7.440223932266235,-148303534,0,1.3482197523117065,-0.9080071449279785,-0.21449822187423706,311.21826171875,318.359375,13.85498046875
7.467854022979736,-148303524,1,-0.5517262816429138,0.3713851869106293,-0.27010852098464966,-157.958984375,67.56591796875,138.0615234375
7.473820924758911,-148303515,0,1.3181904554367065,-1.2590813636779785,-0.34193962812423706,389.404296875,339.84375,49.49951171875
7.473829030990601,-148303496,0,1.2561787366867065,-1.5808587074279785,-0.7757775187492371,475.76904296875,375.06103515625,83.251953125
7.4852070808410645,-148303505,1,-0.5473317503929138,0.3450179994106293,-0.23104602098464966,-149.35302734375,113.70849609375,109.619140625
7.485352039337158,-148303486,1,-0.6816090941429138,0.4731918275356293,-0.17562609910964966,-120.7275390625,148.13232421875,118.1640625
7.5004050731658936,-148303477,0,1.1619404554367065,-1.6916985511779785,-1.1822717189788818,527.89306640625,364.56298828125,123.22998046875
7.52774715423584,-148303467,1,-0.7270192503929138,0.5620590448379517,-0.22591906785964966,-131.2255859375,145.32470703125,123.35205078125
7.531033992767334,-148303458,0,1.0904072523117065,-1.6777825355529785,-1.5064904689788818,574.27978515625,323.54736328125,157.53173828125
7.531042098999023,-148303439,0,1.0232685804367065,-1.6892571449279785,-1.7782189846038818,611.26708984375,273.8037109375,163.6962890625
7.545336008071899,-148303448,1,-0.6879567503929138,0.6230942010879517,-0.25668078660964966,-178.8330078125,132.2021484375,130.859375
7.54541015625,-148303429,1,-0.6816090941429138,0.6309067010879517,-0.21395617723464966,-218.1396484375,119.93408203125,138.12255859375
7.574934959411621,-148303420,0,0.9749287366867065,-1.6599602699279785,-1.8421838283538818,638.18359375,213.9892578125,155.517578125
7.574944019317627,-148303401,0,0.9746845960617065,-1.5696282386779785,-1.8265588283538818,635.92529296875,165.22216796875,145.1416015625
7.5795488357543945,-148303393,1,-0.6562184691429138,0.5710922479629517,-0.08724719285964966,-292.724609375,107.5439453125,111.6943359375
7.603092908859253,-148303374,1,-0.6469411253929138,0.5332504510879517,-0.005704224109649658,-312.07275390625,130.92041015625,103.271484375
7.624022006988525,-148303365,0,1.3423603773117065,-1.2925286293029785,-2.095601797103882,547.91259765625,94.90966796875,126.77001953125
7.624036073684692,-148303346,0,1.5518330335617065,-0.6187005043029785,-2.177633047103882,470.5810546875,74.0966796875,89.78271484375
7.635141849517822,-148303355,1,-0.6764821410179138,0.4617172181606293,0.15445202589035034,-316.58935546875,175.72021484375,103.02734375
7.635267019271851,-148303336,1,-0.8009938597679138,0.4050765931606293,0.36685436964035034,-308.53271484375,225.03662109375,113.037109375
7.650455951690674,-148303327,0,1.4636982679367065,-0.1362786442041397,-1.9398400783538818,345.27587890625,94.970703125,-15.13671875
7.6735968589782715,-148303317,1,-0.9079274535179138,0.3970199525356293,0.5765711665153503,-292.29736328125,251.8310546875,127.0751953125
7.680251836776733,-148303308,0,1.2222431898117065,-0.5894036293029785,-1.9544885158538818,205.4443359375,125.8544921875,-107.7880859375
7.6803929805755615,-148303289,0,0.8433369398117065,-1.1121087074279785,-1.8407189846038818,163.330078125,91.064453125,-125.06103515625
7.6957948207855225,-148303298,1,-0.9147633910179138,0.4119125306606293,0.8028895258903503,-253.35693359375,266.78466796875,148.86474609375
7.695876121520996,-148303279,1,-0.8849782347679138,0.4307113587856293,0.8724696040153503,-228.759765625,278.50341796875,165.34423828125
7.720181941986084,-148303270,0,0.9851826429367065,-0.9380364418029785,-1.3087365627288818,185.1806640625,75.25634765625,-149.10888671875
7.720191955566406,-148303251,0,1.2945088148117065,-0.6714348793029785,-1.1329553127288818,136.1083984375,154.1748046875,-201.5380859375
7.7287750244140625,-148303260,1,-0.8859547972679138,0.3997054994106293,0.8373133540153503,-240.90576171875,274.4140625,157.2265625
7.728784799575806,-148303241,1,-0.8947438597679138,0.3603988587856293,0.7928797602653503,-274.2919921875,269.53125,141.05224609375
7.740327835083008,-148303232,0,1.0506123304367065,-1.1079583168029785,-1.3700158596038818,27.2216796875,265.31982421875,-198.54736328125
7.766757011413574,-148303222,1,-0.9860524535179138,0.24272307753562927,0.7960535883903503,-313.8427734375,273.13232421875,125.18310546875
7.77220606803894,-148303213,0,0.9988545179367065,-1.1423821449279785,-1.6112267971038818,39.00146484375,272.5830078125,-220.0927734375
7.772720813751221,-148303194,0,1.2302998304367065,-0.2935052216053009,-2.469869375228882,121.826171875,81.6650390625,-299.31640625
7.785445213317871,-148303203,1,-0.6596364378929138,-0.9062026739120483,1.3854091167449951,-321.2890625,293.212890625,105.04150390625
7.785512924194336,-148303184,1,-1.180876612663269,-0.4035171568393707,1.0072352886199951,-333.740234375,115.29541015625,76.2939453125
7.800088167190552,-148303175,0,1.4893330335617065,-1.2900872230529785,-1.5492150783538818,13.97705078125,35.5224609375,-328.7353515625
7.82263708114624,-148303165,1,-0.8017262816429138,-0.06196441501379013,1.0758388042449951,-218.994140625,190.97900390625,182.80029296875
7.830320835113525,-148303156,0,1.2664326429367065,-0.8379387855529785,-1.6991174221038818,61.82861328125,75.8056640625,-327.5146484375
7.830431938171387,-148303137,0,1.4348896741867065,-0.4558587372303009,-1.7503869533538818,-6.77490234375,113.46435546875,-309.38720703125
7.844913959503174,-148303129,1,-1.363249659538269,0.4048324525356293,1.4313075542449951,-29.296875,189.14794921875,243.65234375
7.870800971984863,-148303101,0,1.0930927991867065,-0.5945305824279785,-1.5804650783538818,-15.80810546875,41.19873046875,-316.2841796875
7.875069856643677,-148303110,1,-1.470427393913269,0.3828597962856293,1.1940028667449951,-142.39501953125,82.70263671875,226.01318359375
7.875180959701538,-148303091,1,-1.025359034538269,0.21415862441062927,0.8321864008903503,-219.7265625,46.38671875,211.0595703125
7.89002799987793,-148303082,0,0.9956806898117065,-0.5493645668029785,-1.2572228908538818,-2.99072265625,-27.03857421875,-330.322265625
7.920130968093872,-148303072,1,-0.8864430785179138,-0.22993317246437073,0.7782313227653503,-215.087890625,65.85693359375,187.43896484375
7.924839973449707,-148303063,0,0.9312275648117065,-0.5576653480529785,-0.8785607218742371,24.84130859375,-58.16650390625,-341.12548828125
7.924848794937134,-148303044,0,0.8889912366867065,-0.2781243622303009,-0.8893029093742371,25.390625,-64.0869140625,-380.43212890625
7.935050010681152,-148303053,1,-1.235319972038269,0.04570160061120987,1.1590907573699951,-96.3134765625,75.439453125,235.29052734375
7.935142993927002,-148303034,1,-1.087126612663269,0.19511565566062927,0.9388758540153503,-57.67822265625,44.12841796875,279.296875
7.949679851531982,-148303025,0,0.7144306898117065,-0.3467278778553009,-0.8888146281242371,-9.3994140625,-64.02587890625,-351.1962890625
7.971772909164429,-148303015,1,-0.7287282347679138,-0.04902496188879013,1.1691005229949951,45.654296875,17.63916015625,250.8544921875
7.980107069015503,-148303006,0,0.45442092418670654,-0.2861810028553009,-0.8480431437492371,-69.39697265625,-64.0869140625,-286.31591796875
7.980226993560791,-148302987,0,0.26252639293670654,-0.3159661591053009,-0.6729943156242371,-73.8525390625,-67.93212890625,-276.30615234375
7.995330095291138,-148302996,1,-0.6088551878929138,0.07939300686120987,0.9322840571403503,41.9921875,-14.34326171875,195.80078125
7.995445013046265,-148302977,1,-0.41720476746559143,0.12236175686120987,0.9234949946403503,62.07275390625,-30.45654296875,157.470703125
8.018074035644531,-148302968,0,0.12946976721286774,-0.4775872528553009,-0.45131462812423706,-41.80908203125,-65.73486328125,-273.25439453125
8.02341604232788,-148302958,1,-0.37887468934059143,0.2947250306606293,0.7943446040153503,79.89501953125,-27.7099609375,150.32958984375
8.040257930755615,-148302949,0,0.004713904112577438,-0.5830559730529785,-0.33534783124923706,-2.86865234375,-72.3876953125,-232.11669921875
8.040312051773071,-148302930,0,-0.10392867028713226,-0.4460931122303009,-0.27846306562423706,0.54931640625,-46.32568359375,-192.68798828125
8.066936016082764,-148302939,1,-0.27145281434059143,0.3093734681606293,0.7440516352653503,97.7783203125,-11.53564453125,140.0146484375
8.066943883895874,-148302920,1,-0.19161882996559143,0.3174301087856293,0.7711512446403503,132.38525390625,11.29150390625,119.32373046875
8.072553873062134,-148302911,0,-0.23234663903713226,-0.3208489716053009,-0.26894158124923706,-19.775390625,-66.2841796875,-152.587890625
8.072561979293823,-148302892,0,-0.16325484216213226,-0.1982903629541397,-0.28969353437423706,-28.4423828125,-70.9228515625,-136.23046875
8.085050821304321,-148302901,1,-0.23873797059059143,0.3667465150356293,0.7762781977653503,172.4853515625,-6.28662109375,112.85400390625
8.100040912628174,-148302873,0,-0.16301070153713226,-0.10331965982913971,-0.26015251874923706,-57.12890625,-110.90087890625,-148.62060546875
8.121248006820679,-148302865,1,0.09304913133382797,0.14262542128562927,0.47842663526535034,245.7275390625,-67.7490234375,39.306640625
8.129974126815796,-148302837,0,-0.27873337268829346,-0.07499934732913971,-0.38564079999923706,-80.810546875,-154.1748046875,-153.38134765625
8.144970893859863,-148302846,1,0.13626202940940857,0.16288909316062927,0.27286022901535034,251.46484375,-63.29345703125,-5.859375
8.145055055618286,-148302827,1,0.15945538878440857,0.2803207337856293,0.09512585401535034,228.1494140625,-50.23193359375,-78.55224609375
8.169953107833862,-148302818,0,-0.32609665393829346,-0.07231380045413971,-0.37465447187423706,-95.15380859375,-168.51806640625,-111.02294921875
8.175271987915039,-148302808,1,-0.027068056166172028,0.3835922181606293,0.09610241651535034,153.564453125,-51.26953125,-140.13671875
8.190156936645508,-148302799,0,-0.32878220081329346,-0.07036067545413971,-0.30458611249923706,-102.9052734375,-174.62158203125,-82.51953125
8.190228939056396,-148302780,0,-0.29777634143829346,-0.05790950730443001,-0.23988884687423706,-97.96142578125,-175.59814453125,-65.12451171875
8.215189933776855,-148302789,1,-0.19381609559059143,0.5342270135879517,-0.004483520984649658,51.08642578125,-87.40234375,-170.34912109375
8.215195894241333,-148302770,1,-0.16378679871559143,0.4297347962856293,-0.05379992723464966,-30.70068359375,-112.79296875,-180.17578125
8.220101833343506,-148302761,0,-0.20134077966213226,-0.009813804179430008,-0.20497673749923706,-100.03662109375,-176.57470703125,-55.35888671875
8.220163106918335,-148302742,0,-0.17472945153713226,-0.07280208170413971,-0.15126579999923706,-122.55859375,-170.59326171875,-39.48974609375
8.235109806060791,-148302751,1,-0.23190203309059143,0.3271957337856293,-0.05599719285964966,-101.50146484375,-99.7314453125,-190.49072265625
8.235182046890259,-148302732,1,-0.40914812684059143,0.2537094056606293,-0.012051880359649658,-142.7001953125,-60.05859375,-174.560546875
8.25029993057251,-148302723,0,-0.21696577966213226,-0.1465325504541397,-0.11366814374923706,-149.169921875,-174.4384765625,-8.4228515625
8.267307996749878,-148302713,1,-0.8405446410179138,0.18242034316062927,0.19424694776535034,-182.18994140625,-14.09912109375,-185.48583984375
8.280110120773315,-148302704,0,-0.25602829456329346,-0.1714348942041397,-0.02528923749923706,-187.3779296875,-182.6171875,47.05810546875
8.280245065689087,-148302685,0,-0.15275679528713226,-0.3647942841053009,0.09482795000076294,-245.9716796875,-204.2236328125,113.09814453125
8.29506778717041,-148302694,1,-1.233855128288269,0.23173674941062927,0.5096766352653503,-203.43017578125,32.470703125,-188.90380859375
8.295162916183472,-148302675,1,-1.429655909538269,0.2886215150356293,0.8060633540153503,-184.326171875,65.3076171875,-154.47998046875
8.317080974578857,-148302666,0,0.07063187658786774,-0.5752434730529785,0.40122443437576294,-291.6259765625,-247.61962890625,174.01123046875
8.32429313659668,-148302656,1,-1.609831690788269,0.4429183900356293,1.0592372417449951,-145.1416015625,93.07861328125,-96.435546875
8.3386549949646,-148302647,0,0.5640400648117065,-0.7310051918029785,0.6719763875007629,-290.1611328125,-265.869140625,208.3740234375
8.338788032531738,-148302628,0,0.9187763929367065,-0.7144036293029785,1.1187536716461182,-214.41650390625,-265.13671875,254.638671875
8.367995977401733,-148302637,1,-1.652312159538269,0.5952621698379517,1.1529872417449951,-127.44140625,95.76416015625,-32.77587890625
8.373533010482788,-148302609,0,0.9751728773117065,-0.4712395966053009,1.6602575778961182,-76.7822265625,-265.44189453125,289.0625
8.385401010513306,-148302601,1,-1.451628565788269,0.5942856073379517,1.3954188823699951,-143.798828125,47.42431640625,52.91748046875
8.38553500175476,-148302582,1,-1.270964503288269,0.7629867792129517,1.5282313823699951,-139.70947265625,50.47607421875,100.341796875
8.400209903717041,-148302573,0,1.6909931898117065,-0.008837241679430008,2.060892343521118,64.5751953125,-55.23681640625,301.20849609375
8.42573595046997,-148302563,1,-1.160857081413269,0.6418930292129517,1.6629970073699951,-132.99560546875,63.4765625,146.17919921875
8.431855201721191,-148302554,0,1.9973896741867065,0.07368229329586029,1.8997595310211182,140.9912109375,28.564453125,335.0830078125
8.431864976882935,-148302535,0,2.489089012145996,0.1571783870458603,1.7505896091461182,200.5615234375,78.7353515625,351.5625
8.445430040359497,-148302544,1,-1.006804347038269,0.4136215150356293,1.8773524761199951,-109.19189453125,54.931640625,150.69580078125
8.445580959320068,-148302525,1,-0.7004079222679138,0.4177719056606293,1.9791591167449951,-59.38720703125,36.56005859375,156.31103515625
8.4738187789917,-148302516,0,3.062819480895996,0.6166510581970215,1.6644079685211182,259.33837890625,179.62646484375,336.9140625
8.480787992477417,-148302506,1,-0.41354265809059143,0.3804183900356293,1.8661220073699951,-0.79345703125,41.32080078125,171.56982421875
8.490203857421875,-148302497,0,3.511794090270996,0.8942389488220215,1.4703161716461182,290.6494140625,287.78076171875,289.12353515625
8.490313053131104,-148302478,0,4.190260887145996,1.7887701988220215,1.0691931247711182,311.4013671875,407.3486328125,197.93701171875
8.521794080734253,-148302487,1,-0.15328875184059143,0.3091293275356293,1.7919032573699951,36.92626953125,60.6689453125,168.3349609375
8.521805047988892,-148302468,1,-0.029997743666172028,0.2734847962856293,1.7496669292449951,68.66455078125,65.5517578125,139.0380859375
8.528912782669067,-148302459,0,4.397292137145996,2.7843756675720215,0.8397009968757629,264.09912109375,486.6943359375,120.91064453125
8.533562898635864,-148302449,1,0.10208233445882797,0.15385589003562927,1.5423915386199951,92.529296875,45.654296875,106.14013671875
8.55314302444458,-148302440,0,3.948073387145996,2.5265631675720215,0.6148474812507629,170.83740234375,562.5,86.24267578125
8.553153991699219,-148302421,0,3.776198387145996,2.4547858238220215,0.7601111531257629,131.65283203125,603.69873046875,26.18408203125
8.571838855743408,-148302430,1,0.39602765440940857,-0.02070464938879013,1.2377040386199951,143.73779296875,42.17529296875,54.8095703125
8.572623014450073,-148302411,1,0.40042218565940857,0.19291839003562927,0.9674403071403503,174.37744140625,57.18994140625,34.36279296875
8.580193996429443,-148302402,0,3.665358543395996,2.1491217613220215,0.6189978718757629,90.4541015625,655.1513671875,-53.28369140625
8.580307006835938,-148302383,0,3.666090965270996,1.6388678550720215,0.33945685625076294,65.7958984375,683.16650390625,-122.61962890625
8.596529960632324,-148302392,1,0.35574445128440857,0.2651840150356293,0.6898524165153503,155.70068359375,49.072265625,15.0146484375
8.596539974212646,-148302373,1,0.32669171690940857,0.14116057753562927,0.47256726026535034,143.06640625,43.9453125,-28.3203125
8.620419025421143,-148302364,0,3.738356590270996,1.6696295738220215,0.10776740312576294,118.59130859375,685.11962890625,-138.24462890625
8.640554904937744,-148302345,0,3.441237449645996,1.6156744956970215,-0.08534783124923706,145.08056640625,656.1279296875,-138.61083984375
8.65374207496643,-148302337,1,0.25320538878440857,0.3887191712856293,-0.39632922410964966,155.94482421875,82.51953125,-77.20947265625
8.655475854873657,-148302318,1,0.17776593565940857,0.4036117494106293,-0.8750889897346497,93.994140625,140.31982421875,-93.1396484375
8.670760869979858,-148302309,0,2.732741355895996,1.2111334800720215,-0.13295525312423706,71.2890625,558.10546875,-187.31689453125
8.68354606628418,-148302299,1,0.26150617003440857,0.7644516229629517,-1.1680576801300049,35.64453125,198.91357421875,-94.42138671875
8.698653936386108,-148302290,0,2.347731590270996,0.8322272300720215,0.02060920000076294,39.1845703125,518.6767578125,-179.19921875
8.698743104934692,-148302271,0,2.005446434020996,0.6349616050720215,0.17930060625076294,23.74267578125,489.501953125,-144.287109375
8.720767974853516,-148302280,1,-0.5219411253929138,0.8130356073379517,-1.2261631488800049,-58.41064453125,309.2041015625,-26.4892578125
8.720775842666626,-148302261,1,-0.9350270628929138,0.8176742792129517,-1.0909092426300049,-92.10205078125,382.62939453125,-9.46044921875
8.729075908660889,-148302252,0,1.6055439710617065,0.3026861846446991,0.29844123125076294,40.58837890625,474.853515625,-103.57666015625
8.729084968566895,-148302233,0,1.3489521741867065,0.08808659017086029,0.25522834062576294,62.56103515625,452.57568359375,-45.34912109375
8.743697881698608,-148302242,1,-1.395232081413269,1.2273422479629517,-1.0447666645050049,-50.9033203125,418.0908203125,64.453125
8.743780136108398,-148302223,1,-1.744109034538269,1.4431625604629517,-0.7044346928596497,-61.8896484375,383.544921875,85.87646484375
8.769866943359375,-148302214,0,1.0625752210617065,-0.026659507304430008,0.29599982500076294,87.890625,416.68701171875,7.2021484375
8.776520013809204,-148302204,1,-1.737517237663269,1.4673324823379517,-0.29745227098464966,-79.2236328125,320.80078125,115.966796875
8.788879156112671,-148302195,0,0.7683857679367065,-0.09794856607913971,0.33042365312576294,122.1923828125,387.5732421875,56.7626953125
8.788954019546509,-148302176,0,0.49372756481170654,-0.12236262857913971,0.35972052812576294,138.00048828125,345.458984375,44.49462890625
8.803585052490234,-148302185,1,-1.336882472038269,1.4541488885879517,-0.27059680223464966,-74.64599609375,293.88427734375,135.07080078125
8.803675889968872,-148302166,1,-1.140593409538269,1.3772445917129517,-0.26156359910964966,-97.412109375,313.29345703125,166.8701171875
8.829125881195068,-148302157,0,0.34382522106170654,-0.07182551920413971,0.30576545000076294,119.873046875,310.1806640625,49.74365234375
8.833614110946655,-148302147,1,-1.025603175163269,0.9956527948379517,-0.15414172410964966,-98.7548828125,342.8955078125,205.078125
8.848652124404907,-148302138,0,0.31574904918670654,-0.11528255045413971,0.21372443437576294,85.99853515625,288.02490234375,76.72119140625
8.848720073699951,-148302119,0,0.04109085723757744,0.023877602070569992,0.05625373125076294,17.88330078125,290.8935546875,138.3056640625
8.873814105987549,-148302128,1,-0.9330739378929138,0.7732406854629517,-0.10018664598464966,-84.716796875,373.96240234375,212.40234375
8.873821020126343,-148302109,1,-0.8759450316429138,0.5203109979629517,-0.014981567859649658,-48.2177734375,405.45654296875,219.1162109375
8.878766059875488,-148302100,0,-0.24260054528713226,-0.020555991679430008,0.07627326250076294,-15.80810546875,291.1376953125,126.0986328125
8.878838062286377,-148302081,0,-0.20793257653713226,-0.12431575357913971,0.06235724687576294,-12.6953125,270.1416015625,113.525390625
8.893821954727173,-148302073,1,-0.6567067503929138,0.4336410462856293,-0.016690552234649658,-20.44677734375,438.4765625,188.720703125
8.922806978225708,-148302054,1,-0.6613454222679138,0.3345199525356293,0.022616088390350342,-43.5791015625,434.99755859375,159.60693359375
8.938934087753296,-148302045,0,-0.10539351403713226,-0.09746028482913971,0.03086310625076294,49.86572265625,210.205078125,123.1689453125
8.938942909240723,-148302026,0,-0.03679000213742256,0.028760414570569992,-0.18080681562423706,42.90771484375,173.27880859375,135.31494140625
8.953594207763672,-148302035,1,-0.5507497191429138,0.22783049941062927,0.08096569776535034,-61.21826171875,414.306640625,134.94873046875
8.953706979751587,-148302016,1,-0.39987078309059143,0.17704924941062927,0.10928601026535034,-61.4013671875,412.109375,124.57275390625
8.972054958343506,-148302007,0,0.22102250158786774,0.08881901204586029,-0.20546501874923706,10.07080078125,157.28759765625,151.123046875
8.98362112045288,-148301997,1,-0.43087664246559143,0.24467620253562927,0.11221569776535034,-67.93212890625,403.01513671875,109.0087890625
