sync_time,timestamp_ms,device_id,ax,ay,az,gx,gy,gz
0.0031969547271728516,-1269959724,0,0.6859508752822876,-0.2666996419429779,0.7930184602737427,32.28759765625,-32.71484375,7.8125
0.02666187286376953,-1269959724,1,0.29432573914527893,-0.3581639528274536,0.9714324474334717,36.07177734375,-28.6865234375,24.658203125
0.026672840118408203,-1269959705,1,0.30848589539527893,-0.3293553590774536,0.9572722911834717,43.39599609375,-30.2734375,30.57861328125
0.03212094306945801,-1269959705,0,0.6910778284072876,-0.2457035481929779,0.7727547883987427,43.45703125,-38.02490234375,12.02392578125
0.03220200538635254,-1269959686,0,0.7445446252822876,-0.2203129231929779,0.7358895540237427,47.9736328125,-46.56982421875,18.24951171875
0.04726099967956543,-1269959686,1,0.35169878602027893,-0.3024998903274536,0.9377410411834717,48.4619140625,-36.80419921875,41.32080078125
0.062187910079956055,-1269959650,0,0.7513805627822876,-0.2759769856929779,0.6755868196487427,58.04443359375,-52.490234375,33.8134765625
0.08025503158569336,-1269959667,1,0.39662066102027893,-0.2841893434524536,0.9416472911834717,51.513671875,-44.49462890625,55.908203125
0.08027291297912598,-1269959648,1,0.40956011414527893,-0.2822362184524536,0.9248015880584717,51.57470703125,-47.607421875,61.82861328125
0.09383082389831543,-1269959631,0,0.7211071252822876,-0.2786625325679779,0.7004891633987427,55.96923828125,-52.8564453125,34.7900390625
0.10867595672607422,-1269959629,1,0.40394487977027893,-0.2619725465774536,0.9133269786834717,49.31640625,-46.20361328125,55.84716796875
0.10877490043640137,-1269959610,1,0.40809527039527893,-0.2048436552286148,0.8789031505584717,48.88916015625,-44.49462890625,44.43359375
0.13005280494689941,-1269959612,0,0.7201305627822876,-0.2315433919429779,0.6462899446487427,53.5888671875,-53.77197265625,29.6630859375
0.13010096549987793,-1269959593,0,0.7071911096572876,-0.1854008138179779,0.5918465852737427,49.13330078125,-53.955078125,19.04296875
0.15162086486816406,-1269959574,0,0.7281872034072876,-0.1712406575679779,0.5908700227737427,49.74365234375,-48.40087890625,8.72802734375
0.1774609088897705,-1269959574,1,0.44544878602027893,-0.1281834989786148,0.8535125255584717,52.06298828125,-30.8837890625,25.390625
0.17746782302856445,-1269959555,1,0.48426714539527893,-0.12134756147861481,0.8928191661834717,50.048828125,-28.076171875,10.009765625
0.18361186981201172,-1269959555,0,0.7909313440322876,-0.2034672200679779,0.5957528352737427,42.48046875,-47.9736328125,-1.5869140625
0.18369579315185547,-1269959536,0,0.8451305627822876,-0.2024906575679779,0.6101571321487427,36.865234375,-49.31640625,-11.962890625
0.19852375984191895,-1269959536,1,0.5011128187179565,-0.1569920927286148,0.9309051036834717,52.06298828125,-35.09521484375,-5.4931640625
0.21402287483215332,-1269959517,0,0.8802868127822876,-0.2496097981929779,0.6421395540237427,27.28271484375,-59.4482421875,-26.2451171875
0.22983193397521973,-1269959517,1,0.5125874280929565,-0.1604100614786148,0.9196746349334717,52.3681640625,-42.96875,-19.83642578125
0.22983980178833008,-1269959498,1,0.5597065687179565,-0.1540624052286148,0.8813445568084717,52.001953125,-52.30712890625,-36.56005859375
0.24363279342651367,-1269959498,0,0.8671032190322876,-0.2493656575679779,0.5859872102737427,19.4091796875,-72.93701171875,-39.24560546875
0.243757963180542,-1269959479,0,0.8946911096572876,-0.2232426106929779,0.5403329133987427,11.5966796875,-74.70703125,-48.03466796875
0.25785088539123535,-1269959479,1,0.6119526624679565,-0.1301366239786148,0.8747527599334717,50.84228515625,-55.17578125,-48.095703125
0.2578589916229248,-1269959460,1,0.6334370374679565,-0.1699315458536148,0.8825652599334717,50.96435546875,-51.7578125,-62.5
0.2787809371948242,-1269959460,0,0.9178844690322876,-0.2710941731929779,0.5229989290237427,6.9580078125,-76.5380859375,-57.18994140625
0.2794218063354492,-1269959441,0,0.9010387659072876,-0.3184574544429779,0.5386239290237427,-2.8076171875,-74.64599609375,-76.23291015625
0.2871880531311035,-1269959441,1,0.6441792249679565,-0.1967870146036148,0.8806121349334717,51.8798828125,-48.76708984375,-78.55224609375
0.30385398864746094,-1269959422,0,0.8622204065322876,-0.3179691731929779,0.5200692415237427,-8.11767578125,-74.27978515625,-95.8251953125
0.3260688781738281,-1269959422,1,0.6363667249679565,-0.1811620146036148,0.8540008068084717,47.79052734375,-40.8935546875,-94.970703125
0.3267991542816162,-1269959403,1,0.6729878187179565,-0.1486913114786148,0.8361785411834717,47.18017578125,-34.423828125,-110.7177734375
0.3323080539703369,-1269959386,0,0.9618297815322876,-0.2896488606929779,0.4285164773464203,-18.310546875,-67.32177734375,-118.34716796875
0.34722900390625,-1269959384,1,0.7269428968429565,-0.1445409208536148,0.7910125255584717,52.3681640625,-36.2548828125,-121.2158203125
0.36246800422668457,-1269959367,0,0.9696422815322876,-0.3260258138179779,0.3877449929714203,-24.5361328125,-75.25634765625,-129.0283203125
0.38059496879577637,-1269959365,1,0.7762593030929565,-0.11695303022861481,0.7499969005584717,45.41015625,-37.109375,-130.126953125
0.3806028366088867,-1269959346,1,0.8299702405929565,-0.05909169837832451,0.6906707286834717,28.25927734375,-33.50830078125,-139.5263671875
0.40624403953552246,-1269959310,1,0.9481343030929565,-0.02393544837832451,0.6000945568084717,-10.31494140625,-8.97216796875,-135.3759765625
0.4266848564147949,-1269959348,0,0.9835582971572876,-0.2937992513179779,0.3096199929714203,-36.7431640625,-73.91357421875,-131.40869140625
0.427746057510376,-1269959329,0,0.9745250940322876,-0.2742680013179779,0.2136727273464203,-54.6875,-62.31689453125,-127.0751953125
0.42775487899780273,-1269959310,0,0.9523082971572876,-0.2120121419429779,0.057178594172000885,-72.44873046875,-28.38134765625,-116.88232421875
0.4277617931365967,-1269959291,0,0.9095836877822876,-0.2999027669429779,0.001758672297000885,-74.462890625,14.892578125,-126.3427734375
0.4369199275970459,-1269959291,1,0.6742085218429565,-0.1901952177286148,1.1083953380584717,-4.57763671875,36.68212890625,-145.8740234375
0.45220303535461426,-1269959272,0,0.8324352502822876,0.025780826807022095,0.5210458040237427,-45.10498046875,53.03955078125,-175.048828125
0.4771599769592285,-1269959272,1,0.5941303968429565,-0.01734365150332451,1.1225554943084717,37.4755859375,80.810546875,-172.7294921875
0.47716784477233887,-1269959253,1,0.9139546155929565,1.0886133909225464,1.4045379161834717,58.53271484375,63.29345703125,-165.4052734375
0.4827439785003662,-1269959253,0,1.1185680627822876,0.4334956705570221,0.3647957742214203,-21.484375,12.63427734375,-194.4580078125
0.48274993896484375,-1269959234,0,0.9872204065322876,0.1866694986820221,0.4351082742214203,-74.40185546875,17.76123046875,-122.314453125
0.4969778060913086,-1269959234,1,0.5301655530929565,-0.1252538114786148,1.0556609630584717,45.59326171875,80.2001953125,-189.63623046875
0.5121338367462158,-1269959215,0,1.0318981409072876,0.3343745768070221,0.3667488992214203,-57.67822265625,74.5849609375,-138.916015625
0.5316421985626221,-1269959215,1,0.051405806094408035,0.5056055784225464,0.5900847911834717,6.04248046875,99.67041015625,-123.10791015625
0.5316500663757324,-1269959196,1,0.5020893812179565,0.5034083127975464,1.0639617443084717,-26.42822265625,89.7216796875,-106.4453125
0.5421090126037598,-1269959196,0,1.0028454065322876,0.5755854845046997,0.6980477571487427,-33.99658203125,61.279296875,-123.9013671875
0.5422019958496094,-1269959177,0,1.1041637659072876,0.1085444986820221,0.7122079133987427,-52.67333984375,78.43017578125,-92.041015625
0.5569090843200684,-1269959177,1,0.5330952405929565,0.1430567353963852,1.1528289318084717,-69.7021484375,83.8623046875,-88.80615234375
0.5790431499481201,-1269959158,0,1.0006481409072876,0.0897456705570221,0.7664071321487427,-81.72607421875,67.626953125,-56.70166015625
0.5872068405151367,-1269959158,1,0.43983355164527893,0.2900294065475464,1.1098601818084717,-97.900390625,66.162109375,-85.3271484375
0.5873439311981201,-1269959139,1,0.30140581727027893,0.2377832978963852,1.0891082286834717,-131.77490234375,47.18017578125,-98.08349609375
0.602266788482666,-1269959122,0,0.9603649377822876,0.4361812174320221,0.6477547883987427,-101.07421875,45.59326171875,10.6201171875
0.6268951892852783,-1269959120,1,0.42201128602027893,0.2597559690475464,1.0947234630584717,-105.8349609375,47.05810546875,-77.2705078125
0.6269040107727051,-1269959101,1,0.30653277039527893,0.01732431724667549,1.1503875255584717,-54.38232421875,21.1181640625,-67.87109375
0.6321690082550049,-1269959103,0,0.6940075159072876,-0.1121586263179779,0.2375985085964203,-108.21533203125,117.0654296875,8.544921875
0.632256031036377,-1269959084,0,0.6036754846572876,-0.1468265950679779,0.10844812542200089,-130.0048828125,226.318359375,-94.29931640625
0.6485869884490967,-1269959082,1,0.6898335218429565,-0.008798729628324509,0.8803679943084717,-28.6865234375,-36.4990234375,-80.4443359375
0.6623480319976807,-1269959065,0,0.1634899377822876,0.4300777018070221,1.4878426790237427,-185.6689453125,162.841796875,-105.712890625
0.6809699535369873,-1269959046,1,-0.20543013513088226,-0.1442967802286148,0.32787778973579407,-61.5234375,86.48681640625,-105.65185546875
0.6922228336334229,-1269959046,0,0.6903454065322876,0.024804264307022095,0.7600594758987427,-160.70556640625,64.02587890625,-6.2255859375
0.6923298835754395,-1269959027,0,1.3070446252822876,0.3653804361820221,1.0149422883987427,-106.201171875,-120.361328125,97.2900390625
0.7072598934173584,-1269959027,1,-0.29600629210472107,0.08006845414638519,0.45824888348579407,-50.59814453125,136.41357421875,-142.51708984375
0.728564977645874,-1269959008,0,0.8983532190322876,-0.051611751317977905,0.4973641335964203,56.57958984375,21.17919921875,48.40087890625
0.7291960716247559,-1269958989,0,0.3863903284072876,0.1805659830570221,0.9377938508987427,77.57568359375,-62.31689453125,30.94482421875
0.7373497486114502,-1269959008,1,-0.29112347960472107,-0.07422842085361481,0.7961394786834717,-39.00146484375,174.86572265625,-177.91748046875
0.7374598979949951,-1269958989,1,-0.30259808897972107,0.3244532346725464,0.8825652599334717,-59.50927734375,147.52197265625,-147.52197265625
0.7522659301757812,-1269958970,0,0.5568004846572876,-0.032324641942977905,0.7913094758987427,98.57177734375,-91.24755859375,26.123046875
0.7783699035644531,-1269958970,1,-0.25254926085472107,0.4081934690475464,0.9123504161834717,-68.78662109375,126.89208984375,-88.5009765625
0.778378963470459,-1269958951,1,-0.29258832335472107,0.2873438596725464,0.9311492443084717,-54.443359375,77.880859375,8.97216796875
0.7841091156005859,-1269958951,0,0.9086071252822876,0.2884761393070221,0.7300301790237427,82.1533203125,-59.5703125,14.5263671875
0.7841169834136963,-1269958932,0,0.9613415002822876,0.3587886393070221,0.2761727273464203,6.40869140625,17.39501953125,-7.01904296875
0.7985799312591553,-1269958932,1,-0.47032269835472107,0.3898829221725464,1.1350066661834717,-41.68701171875,58.4716796875,39.1845703125
0.8137111663818359,-1269958913,0,0.8749157190322876,0.3668452799320221,0.1394539773464203,-48.76708984375,54.19921875,-41.259765625
0.8330061435699463,-1269958913,1,-0.38194379210472107,0.4477442502975464,1.2985808849334717,-27.03857421875,29.4189453125,62.80517578125
0.8330130577087402,-1269958894,1,-0.29747113585472107,0.3203028440475464,1.3703582286834717,-24.0478515625,-21.8505859375,116.63818359375
0.8437860012054443,-1269958894,0,0.8758922815322876,0.2318355143070221,0.10454187542200089,-87.5244140625,43.76220703125,-85.14404296875
0.856935977935791,-1269958875,1,-0.26011762022972107,0.2416895478963852,1.2487761974334717,-55.35888671875,-96.00830078125,192.44384765625
0.8797929286956787,-1269958858,0,0.8229137659072876,0.1727534830570221,0.2935067117214203,-195.9228515625,50.6591796875,-162.04833984375
0.8798019886016846,-1269958839,0,0.7931286096572876,0.0641109049320221,0.3501473367214203,-219.54345703125,44.0673828125,-155.76171875
0.8871350288391113,-1269958856,1,-0.19835005700588226,0.1310938447713852,0.9055144786834717,-95.76416015625,-130.0048828125,240.90576171875
0.8872549533843994,-1269958837,1,0.043593306094408035,0.02904306724667549,0.7941863536834717,-157.53173828125,-118.46923828125,207.58056640625
0.9023160934448242,-1269958820,0,0.8038707971572876,0.057274967432022095,0.4568367898464203,-215.75927734375,53.955078125,-141.17431640625
0.9317259788513184,-1269958801,0,0.7858043909072876,0.1353999674320221,0.5879403352737427,-181.82373046875,63.78173828125,-97.47314453125
0.9322848320007324,-1269958782,0,0.8031383752822876,0.058007389307022095,0.6968270540237427,-135.07080078125,73.2421875,-62.744140625
0.9499399662017822,-1269958818,1,-0.007187943905591965,-0.03614247962832451,0.8945281505584717,-167.724609375,-85.51025390625,154.9072265625
0.9499530792236328,-1269958782,1,-0.11265669763088226,-0.3398534059524536,0.9811980724334717,-82.45849609375,-52.8564453125,77.69775390625
0.962338924407959,-1269958763,0,0.6349254846572876,0.010155826807022095,0.8772469758987427,-93.32275390625,70.49560546875,-68.17626953125
0.9812519550323486,-1269958763,1,-0.09727583825588226,-0.6694432497024536,0.9323699474334717,-18.4326171875,-89.29443359375,93.81103515625
0.9812600612640381,-1269958744,1,0.13050736486911774,-0.5761815309524536,0.8930633068084717,54.8095703125,-139.70947265625,148.193359375
0.9937210083007812,-1269958744,0,0.5394665002822876,-0.0730961263179779,0.9348641633987427,-44.37255859375,35.0341796875,-92.6513671875
0.9938919544219971,-1269958725,0,0.5692516565322876,-0.1014164388179779,0.8169442415237427,28.99169921875,-14.09912109375,-79.89501953125
1.0088157653808594,-1269958725,1,0.43519487977027893,-0.2338963896036148,0.8989226818084717,95.947265625,-141.78466796875,148.681640625
1.029973030090332,-1269958706,0,0.5809704065322876,-0.014990657567977905,0.7571297883987427,80.26123046875,-40.83251953125,-58.28857421875
1.0370500087738037,-1269958706,1,0.44764605164527893,-0.2509862184524536,0.7929656505584717,132.080078125,-119.140625,104.3701171875
1.0372788906097412,-1269958687,1,0.5003803968429565,-0.2187596708536148,0.7382781505584717,141.54052734375,-89.17236328125,76.2939453125
1.052262783050537,-1269958687,0,0.5152965784072876,0.2342769205570221,0.8452645540237427,84.41162109375,-48.828125,-52.67333984375
1.0523960590362549,-1269958668,0,0.5668102502822876,0.2784663736820221,0.8447762727737427,41.56494140625,-44.5556640625,-54.8095703125
1.0782430171966553,-1269958668,1,0.5470112562179565,-0.2246190458536148,0.6945769786834717,141.2353515625,-43.701171875,40.1611328125
1.0842809677124023,-1269958649,0,0.5160290002822876,0.1571284830570221,0.8054696321487427,18.61572265625,-29.84619140625,-32.77587890625
1.0842878818511963,-1269958630,0,0.3890758752822876,0.057274967432022095,0.7244149446487427,27.28271484375,-27.40478515625,-10.55908203125
1.0971708297729492,-1269958649,1,0.6439350843429565,-0.3220311403274536,0.6982390880584717,127.99072265625,20.20263671875,12.63427734375
1.097233772277832,-1269958630,1,0.8326557874679565,-0.2541600465774536,0.7663543224334717,89.17236328125,34.0576171875,46.81396484375
1.1334600448608398,-1269958611,1,0.7342671155929565,-0.08057607710361481,0.7856414318084717,69.51904296875,21.97265625,33.8134765625
1.1345851421356201,-1269958592,1,0.6634663343429565,0.0034083016216754913,0.7810027599334717,69.39697265625,21.3623046875,3.2958984375
1.143747091293335,-1269958594,0,0.5047985315322876,0.2665034830570221,0.6929208040237427,35.400390625,-43.88427734375,-42.1142578125
1.1438069343566895,-1269958575,0,0.4662243127822876,0.2579585611820221,0.8003426790237427,14.2822265625,-33.69140625,-68.29833984375
1.1584670543670654,-1269958573,1,0.6156147718429565,0.01805673912167549,0.7485320568084717,82.8857421875,11.23046875,22.3388671875
1.1798348426818848,-1269958556,0,0.4256969690322876,0.1246577799320221,0.8384286165237427,9.70458984375,-26.18408203125,-67.0166015625
1.1872940063476562,-1269958554,1,0.5999897718429565,-0.03809560462832451,0.6884734630584717,89.41650390625,8.30078125,47.30224609375
1.2036449909210205,-1269958537,0,0.4371715784072876,0.1510249674320221,0.8271981477737427,22.76611328125,-31.31103515625,-46.56982421875
1.2037580013275146,-1269958518,0,0.5294567346572876,0.2923823893070221,0.7834969758987427,23.193359375,-43.212890625,-32.16552734375
1.2296078205108643,-1269958518,1,0.5484760999679565,0.05418955162167549,0.7477996349334717,31.55517578125,60.1806640625,-0.3662109375
1.2337079048156738,-1269958499,0,0.6276012659072876,0.4347163736820221,0.8093758821487427,-7.50732421875,-47.91259765625,-46.81396484375
1.2337968349456787,-1269958480,0,0.5878063440322876,0.2894527018070221,0.8511239290237427,-41.259765625,-45.8984375,-60.36376953125
1.2517528533935547,-1269958499,1,0.5284565687179565,0.2121485322713852,0.8706023693084717,14.70947265625,68.29833984375,12.51220703125
1.2517619132995605,-1269958480,1,0.5062397718429565,0.2216700166463852,0.9558074474334717,-12.75634765625,59.63134765625,51.33056640625
1.2639479637145996,-1269958461,0,0.5692516565322876,0.2105952799320221,0.9072762727737427,-42.1142578125,-47.18017578125,-51.94091796875
1.2807848453521729,-1269958461,1,0.5191792249679565,0.05638681724667549,0.9689910411834717,-26.67236328125,30.6396484375,59.50927734375
1.2807948589324951,-1269958442,1,0.5409077405929565,0.07420907914638519,0.9018523693084717,-30.2734375,4.8828125,39.306640625
1.295680046081543,-1269958442,0,0.6722790002822876,0.2479487955570221,0.8726083040237427,-28.74755859375,-57.31201171875,-28.3203125
1.2956888675689697,-1269958423,0,0.8148571252822876,0.3956538736820221,0.8237801790237427,-25.7568359375,-67.0166015625,-14.404296875
1.3080098628997803,-1269958423,1,0.49525347352027893,0.1442774385213852,0.8503386974334717,-37.4755859375,-9.33837890625,15.44189453125
1.3297860622406006,-1269958404,0,0.8412243127822876,0.3983394205570221,0.8020516633987427,-56.7626953125,-44.3115234375,-25.45166015625
1.3389999866485596,-1269958404,1,0.46058550477027893,0.2292383760213852,0.8962371349334717,-45.7763671875,-12.6953125,-3.47900390625
1.3390109539031982,-1269958385,1,0.45936480164527893,0.3076075315475464,0.9438445568084717,-57.80029296875,-10.6201171875,-4.57763671875
1.3537468910217285,-1269958385,0,0.8475719690322876,0.2765132486820221,0.8567391633987427,-69.76318359375,-53.64990234375,-29.72412109375
1.3538320064544678,-1269958366,0,0.8712536096572876,0.1898433268070221,0.7815438508987427,-62.92724609375,-53.3447265625,-20.44677734375
1.3779280185699463,-1269958366,1,0.5435932874679565,0.1962793916463852,0.8986785411834717,-62.92724609375,-16.29638671875,5.43212890625
1.3846421241760254,-1269958330,0,0.8505016565322876,0.2901851236820221,0.6890145540237427,-16.845703125,-104.248046875,-2.197265625
1.3971519470214844,-1269958347,1,0.5457905530929565,0.08910165727138519,0.7951629161834717,-55.84716796875,-17.9443359375,10.8642578125
1.3973379135131836,-1269958328,1,0.6424702405929565,-0.01758779212832451,0.7180144786834717,-46.0205078125,-5.9814453125,11.1083984375
1.4122250080108643,-1269958311,0,0.8788219690322876,0.3297359049320221,0.6040536165237427,-12.939453125,-95.03173828125,-5.79833984375
1.4337868690490723,-1269958309,1,0.5711811780929565,-0.02637685462832451,0.6887176036834717,-61.03515625,-10.55908203125,-39.00146484375
1.456043004989624,-1269958290,1,0.5311421155929565,0.03685556724667549,0.7360808849334717,-80.01708984375,-20.01953125,-69.7021484375
1.4789049625396729,-1269958292,0,0.8981090784072876,0.3250972330570221,0.5432626008987427,-18.5546875,-75.01220703125,0.67138671875
1.4789130687713623,-1269958273,0,0.8924938440322876,0.2333003580570221,0.5835458040237427,-26.85546875,-68.9697265625,10.07080078125
1.4789178371429443,-1269958254,0,0.8795543909072876,0.2162105143070221,0.5103036165237427,-10.7421875,-82.3974609375,25.45166015625
1.4871978759765625,-1269958254,1,0.5536030530929565,0.11034189164638519,0.7653777599334717,-82.3974609375,-4.150390625,-84.16748046875
1.4873299598693848,-1269958235,1,0.5133198499679565,0.03001962974667549,0.7932097911834717,-75.50048828125,15.869140625,-94.42138671875
1.502871036529541,-1269958235,0,0.7743297815322876,0.2511226236820221,0.5542489290237427,-1.220703125,-88.37890625,10.19287109375
1.5029759407043457,-1269958216,0,0.7816540002822876,0.2938472330570221,0.5610848665237427,-10.009765625,-107.11669921875,-17.08984375
1.528540849685669,-1269958216,1,0.45692339539527893,-0.04590810462832451,0.8085906505584717,-69.9462890625,6.103515625,-110.107421875
1.5337679386138916,-1269958197,0,0.8509899377822876,0.2687007486820221,0.5308114290237427,-20.3857421875,-125.79345703125,-39.4287109375
1.5485870838165283,-1269958197,1,0.44325152039527893,-0.07422842085361481,0.9077117443084717,-62.744140625,-19.287109375,-130.37109375
1.5486860275268555,-1269958178,1,0.40858355164527893,0.03880869224667549,1.0087859630584717,-59.6923828125,-20.99609375,-149.84130859375
1.5620968341827393,-1269958178,0,0.8321911096572876,0.2491694986820221,0.5608407258987427,-40.0390625,-139.46533203125,-47.91259765625
1.5621399879455566,-1269958159,0,0.8380504846572876,0.2130366861820221,0.5920907258987427,-59.75341796875,-153.99169921875,-46.142578125
1.580057144165039,-1269958159,1,0.42835894227027893,0.06273446977138519,1.1098601818084717,-42.17529296875,-17.08984375,-143.24951171875
1.5800659656524658,-1269958140,1,0.38587847352027893,0.12425790727138519,1.1779754161834717,-26.91650390625,-30.94482421875,-121.03271484375
1.5922460556030273,-1269958140,0,0.7963024377822876,0.2005855143070221,0.6729012727737427,-66.22314453125,-169.0673828125,-38.6962890625
1.5923240184783936,-1269958121,0,0.8802868127822876,0.2340327799320221,0.7183114290237427,-58.7158203125,-188.8427734375,-35.64453125
1.6072089672088623,-1269958121,1,0.45155230164527893,0.04808603599667549,1.1586883068084717,-28.6865234375,-69.51904296875,-78.2470703125
1.6285839080810547,-1269958102,0,1.0060192346572876,0.3255855143070221,0.7224618196487427,-54.443359375,-184.08203125,-38.14697265625
1.6379268169403076,-1269958102,1,0.47718706727027893,-0.11646474897861481,1.2343719005584717,-44.86083984375,-62.92724609375,-94.78759765625
1.6380469799041748,-1269958083,1,0.36463823914527893,-0.09839834272861481,1.3237273693084717,-50.59814453125,-57.373046875,-138.48876953125
1.6539080142974854,-1269958066,0,1.0187145471572876,0.3546382486820221,0.7927743196487427,-78.7353515625,-132.8125,-38.02490234375
1.6790120601654053,-1269958064,1,0.28919878602027893,-0.015390526503324509,1.3723113536834717,-46.81396484375,-60.72998046875,-142.08984375
1.6854698657989502,-1269958047,0,0.9911266565322876,0.3414546549320221,0.8320809602737427,-83.06884765625,-118.59130859375,-35.82763671875
1.6987998485565186,-1269958045,1,0.25355425477027893,0.02342783287167549,1.3815886974334717,-28.076171875,-75.68359375,-112.36572265625
1.6988611221313477,-1269958026,1,0.26917925477027893,-0.07569326460361481,1.2690398693084717,-13.427734375,-87.58544921875,-88.07373046875
1.713620901107788,-1269958028,0,0.9479137659072876,0.2943355143070221,0.8608895540237427,-68.9697265625,-119.7509765625,-37.90283203125
1.7137019634246826,-1269958009,0,0.9059215784072876,0.2911616861820221,0.8813973665237427,-41.93115234375,-127.5634765625,-48.76708984375
1.7323341369628906,-1269957990,1,0.17201127111911774,-0.1264745146036148,1.2111785411834717,-16.7236328125,-95.15380859375,-107.97119140625
1.7437670230865479,-1269957990,0,0.8827282190322876,0.2809077799320221,0.8311043977737427,-26.2451171875,-123.10791015625,-58.2275390625
1.7438700199127197,-1269957971,0,0.8158336877822876,0.2918941080570221,0.7834969758987427,-13.85498046875,-116.3330078125,-58.10546875
1.758465051651001,-1269957971,1,0.09632767736911774,-0.07056631147861481,1.1662566661834717,-17.27294921875,-103.6376953125,-117.24853515625
1.7821199893951416,-1269957952,0,0.7692028284072876,0.2926265299320221,0.7244149446487427,-4.638671875,-112.79296875,-50.23193359375
1.788667917251587,-1269957952,1,0.08998002111911774,0.014394629746675491,1.1064422130584717,-11.71875,-116.02783203125,-109.06982421875
1.788780927658081,-1269957933,1,0.13392533361911774,0.02269541099667549,0.9897429943084717,-10.498046875,-121.7041015625,-89.4775390625
1.8040189743041992,-1269957933,0,0.6805797815322876,0.2105952799320221,0.6738778352737427,3.7841796875,-98.2666015625,-41.259765625
1.8040838241577148,-1269957914,0,0.5721813440322876,0.1749507486820221,0.5898934602737427,19.71435546875,-76.96533203125,-34.423828125
1.8279030323028564,-1269957914,1,0.16322220861911774,0.014150489121675491,0.9352996349334717,-11.474609375,-105.28564453125,-79.2236328125
1.8338079452514648,-1269957895,0,0.4950329065322876,0.1717769205570221,0.5425301790237427,32.5927734375,-66.22314453125,-21.05712890625
1.8486018180847168,-1269957895,1,0.13001908361911774,0.03954111412167549,0.8998992443084717,-12.0849609375,-84.47265625,-75.25634765625
1.8486180305480957,-1269957876,1,0.11976517736911774,0.05516611412167549,0.8532683849334717,-13.61083984375,-71.8994140625,-71.044921875
1.8636181354522705,-1269957876,0,0.4452282190322876,0.1624995768070221,0.4597664773464203,29.84619140625,-53.8330078125,-1.8310546875
1.8637597560882568,-1269957857,0,0.3824840784072876,0.1002437174320221,0.4548836648464203,30.029296875,-47.42431640625,13.5498046875
1.8816759586334229,-1269957857,1,0.10462845861911774,0.10008798539638519,0.7951629161834717,-17.27294921875,-64.8193359375,-57.861328125
1.8940019607543945,-1269957838,0,0.3780895471572876,0.0978023111820221,0.4167977273464203,52.55126953125,-48.03466796875,33.5693359375
1.9071669578552246,-1269957838,1,0.13050736486911774,0.1503809541463852,0.7460906505584717,-27.52685546875,-65.673828125,-39.00146484375
1.9072797298431396,-1269957819,1,0.19251908361911774,0.1457422822713852,0.6308562755584717,-28.80859375,-69.7021484375,-5.67626953125
1.929887056350708,-1269957802,0,0.3915172815322876,0.1065913736820221,0.1360360085964203,116.0888671875,-39.4287109375,80.74951171875
1.9386889934539795,-1269957800,1,0.27088823914527893,0.1721094697713852,0.5551726818084717,-36.80419921875,-68.05419921875,17.2119140625
1.9388148784637451,-1269957781,1,0.34876909852027893,0.12230478227138519,0.5266082286834717,-41.68701171875,-63.3544921875,37.53662109375
1.9814839363098145,-1269957783,0,0.4742809534072876,0.2379390299320221,0.025196172297000885,132.2021484375,-33.935546875,95.458984375
1.982388973236084,-1269957764,0,0.4811168909072876,0.2113277018070221,-0.06879796832799911,111.26708984375,-7.87353515625,86.3037109375
1.9973618984222412,-1269957762,1,0.36927691102027893,0.08739267289638519,0.48656919598579407,-37.7197265625,-54.3212890625,51.81884765625
1.9974629878997803,-1269957726,1,0.41419878602027893,0.11937509477138519,0.43993833661079407,-27.2216796875,-35.64453125,92.83447265625
2.012415885925293,-1269957745,0,0.3422008752822876,0.1805659830570221,-0.039501093327999115,88.80615234375,8.544921875,79.65087890625
2.012439012527466,-1269957726,0,0.2923961877822876,0.014550358057022095,0.019092656672000885,77.63671875,-3.84521484375,71.044921875
2.0136399269104004,-1269957707,0,0.3160778284072876,-0.0740726888179779,0.012745000422000885,95.64208984375,-23.3154296875,79.77294921875
2.0311219692230225,-1269957707,1,0.47889605164527893,0.11766611039638519,0.45873716473579407,-30.76171875,-29.72412109375,129.2724609375
2.0438578128814697,-1269957688,0,0.4735485315322876,-0.0716312825679779,0.034229375422000885,121.39892578125,-24.658203125,94.78759765625
2.0439789295196533,-1269957669,0,0.5629040002822876,-0.030127376317977905,-0.009227655827999115,121.58203125,14.892578125,110.90087890625
2.058642864227295,-1269957688,1,0.6043843030929565,-0.02247060462832451,0.49584653973579407,-38.63525390625,-24.7802734375,159.7900390625
2.058759927749634,-1269957669,1,0.6436909437179565,-0.1565038114786148,0.47582700848579407,-37.9638671875,-12.20703125,163.26904296875
2.082202911376953,-1269957650,0,0.5362926721572876,-0.0872562825679779,0.032276250422000885,91.796875,58.10546875,118.83544921875
2.087258815765381,-1269957650,1,0.6307514905929565,-0.2004491239786148,0.5336883068084717,-30.70068359375,6.04248046875,145.69091796875
2.087345838546753,-1269957631,1,0.6095112562179565,-0.1269627958536148,0.6249969005584717,-25.69580078125,23.92578125,152.34375
2.1022369861602783,-1269957631,0,0.4867321252822876,-0.2430180013179779,0.06450281292200089,72.75390625,74.0966796875,123.291015625
2.1023480892181396,-1269957612,0,0.4801403284072876,-0.3802250325679779,0.11870203167200089,79.16259765625,52.30712890625,132.38525390625
2.1178829669952393,-1269957612,1,0.6541889905929565,-0.1723729521036148,0.7138640880584717,-21.05712890625,35.888671875,183.9599609375
2.1338460445404053,-1269957593,0,0.6739879846572876,-0.2649906575679779,0.07744226604700089,127.01416015625,5.18798828125,151.85546875
2.147135019302368,-1269957593,1,0.6786030530929565,-0.3505955934524536,0.7436492443084717,-9.33837890625,50.35400390625,189.0869140625
2.1472208499908447,-1269957574,1,0.5721577405929565,-0.4409276247024536,0.6833465099334717,12.63427734375,65.97900390625,119.9951171875
2.163794994354248,-1269957574,0,0.9222790002822876,-0.0694340169429779,0.024219609797000885,149.23095703125,-11.65771484375,147.94921875
2.1828229427337646,-1269957555,1,0.31825152039527893,-0.2009374052286148,0.8203094005584717,26.06201171875,67.68798828125,74.951171875
2.193718910217285,-1269957538,0,0.9398571252822876,-0.1038578450679779,0.10722742229700089,62.98828125,64.02587890625,69.9462890625
2.1938178539276123,-1269957519,0,0.8392711877822876,-0.4285648763179779,0.2056160867214203,54.01611328125,60.546875,50.35400390625
2.20704984664917,-1269957536,1,0.42152300477027893,0.07030282914638519,0.9689910411834717,23.86474609375,71.4111328125,151.0009765625
2.2071139812469482,-1269957517,1,0.41688433289527893,-0.1533299833536148,1.0175750255584717,31.6162109375,91.064453125,245.60546875
2.229227066040039,-1269957500,0,0.9584118127822876,-0.5735844373703003,0.3027840554714203,109.375,6.7138671875,69.3359375
2.2390127182006836,-1269957498,1,0.5426167249679565,-0.5564061403274536,1.1245086193084717,29.72412109375,96.0693359375,284.0576171875
2.2537028789520264,-1269957481,0,1.5087047815322876,-0.3729008138179779,0.3074227273464203,155.45654296875,-55.60302734375,91.552734375
2.2538089752197266,-1269957462,0,1.8658825159072876,-0.1919926106929779,0.2615242898464203,143.4326171875,-48.828125,69.64111328125
2.2776927947998047,-1269957462,1,0.6746968030929565,-0.4621678590774536,1.2746551036834717,23.0712890625,76.7822265625,200.8056640625
2.283769130706787,-1269957443,0,1.9557262659072876,-0.3016117513179779,0.3018074929714203,109.7412109375,2.38037109375,13.916015625
2.2987070083618164,-1269957443,1,0.5907124280929565,-0.3303319215774536,1.3620574474334717,8.7890625,63.04931640625,223.9990234375
2.298797130584717,-1269957424,1,0.6392964124679565,-0.5302830934524536,1.3749969005584717,14.2822265625,81.84814453125,282.53173828125
2.313715934753418,-1269957424,0,1.8854137659072876,-0.4310062825679779,0.2573738992214203,122.49755859375,45.59326171875,-15.380859375
2.3137757778167725,-1269957405,0,1.9349743127822876,-0.5147465467453003,0.10112390667200089,154.35791015625,65.36865234375,-18.4326171875
2.3299241065979004,-1269957405,1,0.7906635999679565,-0.7370702028274536,1.4519011974334717,29.96826171875,123.22998046875,297.18017578125
2.343876838684082,-1269957386,0,2.159583806991577,-0.5523442029953003,-0.017772577702999115,164.36767578125,50.35400390625,-19.71435546875
2.358590841293335,-1269957386,1,0.7970112562179565,-0.8188573122024536,1.6376922130584717,53.52783203125,180.17578125,246.88720703125
2.3587088584899902,-1269957367,1,0.6571186780929565,-0.7207127809524536,1.8449676036834717,56.82373046875,181.70166015625,194.51904296875
2.379617929458618,-1269957367,0,2.439857244491577,-0.5674809217453003,-0.020946405827999115,138.5498046875,-4.69970703125,-46.630859375
2.3796260356903076,-1269957348,0,2.666419744491577,-0.6810063123703003,-0.09662999957799911,136.29150390625,-12.63427734375,-75.0732421875
2.3888418674468994,-1269957348,1,0.44422808289527893,-0.7995702028274536,2.0705535411834717,59.63134765625,148.681640625,207.275390625
2.4020190238952637,-1269957329,0,2.709388494491577,-0.5984867811203003,-0.2558096945285797,173.583984375,46.875,-104.55322265625
2.4021339416503906,-1269957310,0,2.698646306991577,-0.4632328450679779,-0.3998526632785797,179.13818359375,100.64697265625,-130.859375
2.4297919273376465,-1269957329,1,0.42884722352027893,-1.0866795778274536,2.1865203380584717,85.14404296875,133.056640625,227.294921875
2.429799795150757,-1269957310,1,0.5055073499679565,-1.3447362184524536,2.2861297130584717,140.5029296875,119.93408203125,190.00244140625
2.446913957595825,-1269957291,1,0.46156206727027893,-1.3623143434524536,2.3386199474334717,197.3876953125,88.07373046875,119.07958984375
2.4485108852386475,-1269957272,1,0.33265581727027893,-1.3991795778274536,2.2924773693084717,231.62841796875,45.0439453125,80.99365234375
2.4636759757995605,-1269957274,0,2.521644353866577,-0.5772465467453003,-0.5360831022262573,104.43115234375,121.09375,-183.53271484375
2.4637959003448486,-1269957255,0,2.285560369491577,-0.6482914686203003,-0.5021475553512573,95.64208984375,120.54443359375,-192.68798828125
2.5075809955596924,-1269957253,1,0.17225541174411774,-1.4350682497024536,2.2370574474334717,264.83154296875,14.46533203125,70.98388671875
2.5075907707214355,-1269957234,1,0.06336869299411774,-1.4123631715774536,2.1921355724334717,283.75244140625,-6.77490234375,61.03515625
2.5266051292419434,-1269957236,0,2.041419744491577,-0.6551274061203003,-0.4557608664035797,101.01318359375,134.94873046875,-199.76806640625
2.5266129970550537,-1269957217,0,1.9371715784072876,-0.6238774061203003,-0.4997061789035797,97.10693359375,144.53125,-207.51953125
2.5275888442993164,-1269957198,0,1.7779918909072876,-0.6646488904953003,-0.5133780241012573,77.1484375,141.66259765625,-216.796875
2.537240982055664,-1269957198,1,-0.015000443905591965,-1.5007420778274536,2.0466277599334717,314.63623046875,-75.68359375,51.025390625
2.553982973098755,-1269957179,0,1.6317516565322876,-0.7632817029953003,-0.4628409445285797,59.50927734375,122.86376953125,-217.28515625
2.5540599822998047,-1269957160,0,1.4449840784072876,-0.7618168592453003,-0.3668936789035797,59.14306640625,115.3564453125,-206.4208984375
2.5772900581359863,-1269957179,1,-0.042832475155591965,-1.5595799684524536,1.8493621349334717,354.06494140625,-85.0830078125,24.96337890625
2.5772979259490967,-1269957160,1,-0.19029341638088226,-1.4599705934524536,1.6630828380584717,394.83642578125,-87.2802734375,-1.0986328125
2.5837249755859375,-1269957141,0,1.2506481409072876,-0.7032231092453003,-0.3410147726535797,60.11962890625,118.896484375,-198.8525390625
2.5986568927764893,-1269957141,1,-0.30845746397972107,-1.3029881715774536,1.4218719005584717,403.62548828125,-110.04638671875,-2.74658203125
2.598756790161133,-1269957122,1,-0.29942426085472107,-1.2380467653274536,1.1579558849334717,392.15087890625,-128.84521484375,-6.04248046875
2.6120948791503906,-1269957122,0,1.0118786096572876,-0.6731938123703003,-0.3424796164035797,50.84228515625,122.55859375,-199.21875
2.6121819019317627,-1269957103,0,0.7711559534072876,-0.6692875623703003,-0.2526358664035797,38.330078125,116.0888671875,-197.509765625
2.630660057067871,-1269957103,1,-0.31456097960472107,-1.1543065309524536,0.8579070568084717,372.98583984375,-131.04248046875,-20.32470703125
2.64225697517395,-1269957084,0,0.5323864221572876,-0.6150883436203003,-0.1518057882785797,39.306640625,106.14013671875,-193.9697265625
2.6571240425109863,-1269957084,1,-0.25743207335472107,-1.0503026247024536,0.6340301036834717,339.7216796875,-137.5732421875,-40.95458984375
2.657322883605957,-1269957065,1,-0.21934615075588226,-0.9067479372024536,0.35790708661079407,311.03515625,-156.31103515625,-64.63623046875
2.6796929836273193,-1269957065,0,0.3392711877822876,-0.5411137342453003,-0.09370031207799911,53.52783203125,92.10205078125,-190.00244140625
2.6796998977661133,-1269957046,0,0.1551891565322876,-0.3936527669429779,-0.07343664020299911,74.52392578125,60.302734375,-184.814453125
2.688920021057129,-1269957046,1,-0.19615279138088226,-0.8325291872024536,0.13110043108463287,293.701171875,-164.24560546875,-82.33642578125
2.7038321495056152,-1269957010,0,-0.045982711017131805,-0.1675785481929779,-0.1657218039035797,90.39306640625,-11.04736328125,-179.50439453125
2.7281301021575928,-1269957027,1,-0.19688521325588226,-0.6877537965774536,-0.14526675641536713,289.36767578125,-142.2119140625,-98.57177734375
2.728137969970703,-1269957008,1,-0.28428754210472107,-0.5317479372024536,-0.26391908526420593,279.60205078125,-111.02294921875,-102.72216796875
2.73404598236084,-1269956991,0,0.047279007732868195,-0.1744144856929779,0.1289559304714203,93.017578125,-50.6591796875,-156.3720703125
2.7488560676574707,-1269956989,1,-0.27671918272972107,-0.3974705934524536,-0.6616241931915283,291.32080078125,-42.1142578125,-96.13037109375
2.7489421367645264,-1269956970,1,-0.22789107263088226,-0.3056737184524536,-0.7666046619415283,281.982421875,22.15576171875,-125.9765625
2.7648167610168457,-1269956972,0,-0.1758655309677124,0.0003902018070220947,0.11430750042200089,108.154296875,-58.7158203125,-127.3193359375
2.7648298740386963,-1269956953,0,-0.4029163122177124,0.1725093424320221,-0.06562414020299911,94.23828125,-73.42529296875,-108.09326171875
2.7915420532226562,-1269956934,0,-0.4505237340927124,0.4503413736820221,0.005420781672000885,66.95556640625,-147.4609375,-83.8623046875
2.809717893600464,-1269956934,1,-0.42955121397972107,0.1996973603963852,-0.5539581775665283,190.185546875,-72.44873046875,-10.6201171875
2.8097259998321533,-1269956915,1,-0.35777387022972107,0.1874903291463852,-0.6330597400665283,154.9072265625,-94.970703125,-1.3427734375
2.8302109241485596,-1269956915,0,-0.3313831090927124,0.4627925455570221,0.057178594172000885,36.9873046875,-191.83349609375,-89.17236328125
2.8307788372039795,-1269956896,0,-0.2412952184677124,0.4571773111820221,0.10234460979700089,21.91162109375,-210.205078125,-81.298828125
2.8385109901428223,-1269956896,1,-0.21251021325588226,0.2255762666463852,-0.6481964588165283,173.64501953125,-74.21875,-5.9814453125
2.853731155395508,-1269956877,0,-0.1719592809677124,0.5519038438796997,0.12212000042200089,23.0712890625,-228.515625,-69.4580078125
2.877255916595459,-1269956877,1,-0.09117232263088226,0.2219141572713852,-0.6562530994415283,194.76318359375,-27.77099609375,-33.5693359375
2.8772637844085693,-1269956858,1,-0.09654341638088226,0.2524317502975464,-0.6347687244415283,206.23779296875,1.03759765625,-60.60791015625
2.8828468322753906,-1269956858,0,-0.0628284141421318,0.6361323595046997,0.09575281292200089,33.3251953125,-256.8359375,-81.4208984375
2.8829429149627686,-1269956839,0,0.058509476482868195,0.7264643907546997,0.029590703547000885,19.34814453125,-298.03466796875,-115.53955078125
2.8985960483551025,-1269956839,1,-0.09654341638088226,0.3171290159225464,-0.6210968494415283,190.91796875,8.9111328125,-89.78271484375
2.8986849784851074,-1269956820,1,-0.10313521325588226,0.3815821409225464,-0.6452667713165283,142.02880859375,-22.64404296875,-104.79736328125
2.9137887954711914,-1269956820,0,0.1661754846572876,0.7367182970046997,0.044239141047000885,-4.57763671875,-313.720703125,-134.3994140625
2.913895845413208,-1269956801,0,0.2015758752822876,0.7477046251296997,0.06303796917200089,-19.775390625,-304.01611328125,-122.25341796875
2.9314608573913574,-1269956801,1,-0.13511763513088226,0.4660547971725464,-0.6289093494415283,49.072265625,-81.11572265625,-105.77392578125
2.94390606880188,-1269956782,0,0.2174450159072876,0.8341304063796997,-0.040965937077999115,-31.494140625,-290.6494140625,-106.14013671875
2.9586260318756104,-1269956782,1,-0.19249068200588226,0.4841212034225464,-0.5813019275665283,-35.7666015625,-138.73291015625,-94.6044921875
2.958743095397949,-1269956763,1,-0.29234418272972107,0.5151270627975464,-0.5310089588165283,-75.439453125,-163.0859375,-83.1298828125
2.978984832763672,-1269956746,0,0.2228161096572876,0.7462397813796997,-0.043407343327999115,-90.88134765625,-294.12841796875,-96.923828125
2.988866090774536,-1269956744,1,-0.38853558897972107,0.5256251096725464,-0.5063507556915283,-90.14892578125,-159.7900390625,-77.5146484375
3.0179169178009033,-1269956725,1,-0.48252972960472107,0.4853419065475464,-0.5056183338165283,-86.0595703125,-132.38525390625,-82.45849609375
3.027523994445801,-1269956706,1,-0.5540629625320435,0.4843653440475464,-0.46118471026420593,-87.09716796875,-120.849609375,-95.76416015625
3.0333750247955322,-1269956727,0,0.2081676721572876,0.6180659532546997,0.010059453547000885,-103.759765625,-292.3583984375,-74.15771484375
3.033381938934326,-1269956708,0,0.2115856409072876,0.6075679063796997,0.08134851604700089,-117.3095703125,-274.84130859375,-40.283203125
3.033493995666504,-1269956689,0,0.2252575159072876,0.6031733751296997,0.1851082742214203,-166.259765625,-228.45458984375,17.39501953125
3.0471229553222656,-1269956670,1,-0.6734477281570435,0.6411036252975464,-0.34814760088920593,-68.9697265625,-91.36962890625,-91.00341796875
3.062152862548828,-1269956670,0,0.2286754846572876,0.5013667345046997,0.2756844460964203,-227.72216796875,-183.4716796875,66.0400390625
3.062234878540039,-1269956651,0,0.2255016565322876,0.3473140299320221,0.3706551492214203,-240.966796875,-196.35009765625,76.2939453125
3.08215594291687,-1269956651,1,-0.7681742906570435,0.6227930784225464,-0.25268861651420593,-97.83935546875,-99.365234375,-70.25146484375
3.0938098430633545,-1269956632,0,0.2457653284072876,0.2098628580570221,0.4138680398464203,-216.1865234375,-244.81201171875,73.54736328125
3.108726978302002,-1269956632,1,-0.7940531969070435,0.5432032346725464,-0.22363589704036713,-130.67626953125,-127.50244140625,-64.14794921875
3.1089189052581787,-1269956613,1,-0.8353129625320435,0.5278223752975464,-0.14233706891536713,-163.87939453125,-140.2587890625,-69.88525390625
3.129694938659668,-1269956613,0,0.3368297815322876,0.060692936182022095,0.4939461648464203,-185.36376953125,-331.298828125,90.63720703125
3.129701852798462,-1269956594,0,0.5809704065322876,-0.1441410481929779,0.5911141633987427,-179.13818359375,-404.96826171875,139.2822265625
3.1369967460632324,-1269956594,1,-0.9686137437820435,0.5483301877975464,-0.000247221440076828,-200.62255859375,-174.4384765625,-75.98876953125
3.152228832244873,-1269956575,0,0.8458629846572876,-0.2666996419429779,0.8169442415237427,-173.828125,-423.828125,187.92724609375
3.177395820617676,-1269956575,1,-1.1087504625320435,0.5707911252975464,-0.04126284644007683,-235.2294921875,-217.71240234375,-70.6787109375
3.1774039268493652,-1269956556,1,-1.0230571031570435,0.7062891721725464,-0.06347964704036713,-287.353515625,-254.2724609375,-40.83251953125
3.1821250915527344,-1269956556,0,1.1949840784072876,-0.3355472981929779,1.3523446321487427,-138.36669921875,-377.86865234375,249.93896484375
3.182241916656494,-1269956537,0,1.2811657190322876,-0.5105961561203003,1.7651864290237427,-56.09130859375,-234.68017578125,279.35791015625
3.1978118419647217,-1269956537,1,-1.0938578844070435,0.7209376096725464,-0.16308902204036713,-331.9091796875,-261.3525390625,25.69580078125
3.2137839794158936,-1269956518,0,1.0729137659072876,-0.7178715467453003,1.4729501008987427,82.58056640625,-133.97216796875,323.91357421875
3.23122501373291,-1269956518,1,-0.9586039781570435,0.4472559690475464,0.03295590355992317,-368.0419921875,-225.89111328125,59.87548828125
3.231238842010498,-1269956499,1,-1.0582133531570435,0.5068262815475464,0.19482113420963287,-381.8359375,-170.10498046875,77.57568359375
3.2430338859558105,-1269956482,0,1.7609020471572876,-0.5579594373703003,0.7268563508987427,264.892578125,-75.68359375,539.4287109375
3.2585949897766113,-1269956480,1,-1.1136332750320435,0.6103419065475464,0.46459653973579407,-410.64453125,-147.0947265625,108.642578125
3.258678913116455,-1269956461,1,-0.9310160875320435,0.4050196409225464,0.8825652599334717,-437.01171875,-117.919921875,147.64404296875
3.2792718410491943,-1269956463,0,2.329017400741577,-0.5755375623703003,0.5200692415237427,272.94921875,-4.82177734375,673.88916015625
3.279844045639038,-1269956444,0,3.280921697616577,-0.7425297498703003,0.1692391335964203,287.353515625,108.7646484375,795.41015625
3.2888689041137695,-1269956442,1,-0.9317485094070435,0.4001368284225464,1.5361297130584717,-405.6396484375,-59.14306640625,206.9091796875
3.303946018218994,-1269956425,0,3.922034978866577,-0.6185063123703003,0.030323125422000885,335.87646484375,197.69287109375,792.96875
3.327204942703247,-1269956406,1,-0.49376019835472107,0.1725977510213852,2.5139129161834717,-371.9482421875,-65.12451171875,291.44287109375
3.33412504196167,-1269956406,0,3.899574041366577,-0.3782719075679779,-0.12055578082799911,370.1171875,171.93603515625,626.52587890625
3.334131956100464,-1269956387,0,3.725257635116577,-0.0950687825679779,-0.3034171164035797,351.74560546875,110.41259765625,394.8974609375
3.346928834915161,-1269956387,1,-0.09507857263088226,-0.1733495146036148,2.5324676036834717,-378.7841796875,-100.5859375,329.9560546875
3.36193585395813,-1269956368,0,3.229163885116577,-0.1749027669429779,-0.06635656207799911,296.81396484375,36.62109375,135.25390625
3.3619561195373535,-1269956349,0,2.808753728866577,-0.5486820936203003,0.3254891335964203,323.3642578125,27.7099609375,2.9296875
3.383212089538574,-1269956368,1,0.5997456312179565,-0.6018162965774536,2.6274383068084717,-253.11279296875,-1.77001953125,309.814453125
3.3832199573516846,-1269956349,1,0.7721089124679565,-0.7065526247024536,2.6162078380584717,-15.380859375,193.84765625,210.3271484375
3.393923044204712,-1269956330,0,2.619056463241577,-0.5318363904953003,0.042041875422000885,370.05615234375,80.078125,-27.83203125
3.4085750579833984,-1269956330,1,0.36292925477027893,-0.2697850465774536,2.5866668224334717,106.75048828125,180.96923828125,170.41015625
3.4086620807647705,-1269956311,1,0.057753462344408035,-0.4279881715774536,2.3601043224334717,108.7646484375,92.1630859375,195.98388671875
3.4297258853912354,-1269956311,0,2.422767400741577,-0.1961430013179779,-0.1749991476535797,313.1103515625,150.69580078125,-93.1396484375
3.4297337532043457,-1269956292,0,1.7474743127822876,-0.3863285481929779,-0.032665155827999115,188.720703125,168.02978515625,-197.1435546875
3.438883066177368,-1269956292,1,0.061903852969408035,-0.2849217653274536,2.0715301036834717,153.62548828125,38.9404296875,177.1240234375
3.4520907402038574,-1269956273,0,1.1349254846572876,-0.7449711561203003,0.043262578547000885,160.46142578125,115.478515625,-220.458984375
3.478861093521118,-1269956273,1,-0.21226607263088226,-0.1713963896036148,1.8312957286834717,265.93017578125,80.01708984375,186.21826171875
3.4788689613342285,-1269956254,1,-0.43638715147972107,-0.3652440309524536,1.6635711193084717,358.94775390625,77.2705078125,194.82421875
3.483823776245117,-1269956254,0,0.8473278284072876,-0.6929692029953003,0.1584969460964203,177.978515625,87.158203125,-186.279296875
3.5015528202056885,-1269956235,1,-0.45079144835472107,-0.10230459272861481,1.4006316661834717,416.259765625,14.46533203125,186.34033203125
3.513792037963867,-1269956218,0,0.5333629846572876,-0.5293949842453003,0.2070809304714203,229.6142578125,-22.3388671875,-266.845703125
3.5138187408447266,-1269956199,0,0.4303356409072876,-0.3221195638179779,0.2217293679714203,214.599609375,-96.74072265625,-330.6884765625
3.5411887168884277,-1269956180,0,0.054847367107868195,-0.4666508138179779,0.2151375710964203,180.23681640625,-159.3017578125,-288.330078125
3.557407855987549,-1269956216,1,-0.5167094469070435,-0.013681542128324509,1.0380828380584717,408.69140625,-40.95458984375,192.87109375
3.5575599670410156,-1269956197,1,-0.12071333825588226,-0.1745702177286148,0.9858367443084717,405.57861328125,-76.5380859375,152.9541015625
3.5575759410858154,-1269956178,1,-0.29527387022972107,-0.2497655302286148,0.40746763348579407,370.7275390625,-71.59423828125,98.57177734375
3.5787980556488037,-1269956161,0,-0.0035022422671318054,-0.2464359700679779,0.1909676492214203,179.38232421875,-177.490234375,-230.89599609375
3.5788049697875977,-1269956142,0,0.045814163982868195,0.1261226236820221,0.1377449929714203,158.3251953125,-183.04443359375,-232.23876953125
3.588815927505493,-1269956142,1,-0.47154340147972107,0.2304590791463852,-0.13745425641536713,273.5595703125,-137.6953125,101.98974609375
3.6039648056030273,-1269956123,0,0.036292679607868195,0.1893550455570221,0.3428231179714203,145.8740234375,-197.44873046875,-260.25390625
3.6283419132232666,-1269956123,1,-0.22715865075588226,0.2116602510213852,-0.05957339331507683,266.41845703125,-146.42333984375,99.2431640625
3.628351926803589,-1269956104,1,-0.25718793272972107,0.3183497190475464,-0.19873355329036713,278.50341796875,-127.99072265625,88.31787109375
3.6351139545440674,-1269956104,0,0.032142288982868195,0.1014644205570221,0.4019051492214203,172.7294921875,-231.93359375,-300.35400390625
3.6351258754730225,-1269956085,0,0.029212601482868195,0.1820308268070221,0.3757821023464203,192.68798828125,-308.65478515625,-331.11572265625
3.6488938331604004,-1269956085,1,-0.16905318200588226,0.3469141721725464,-0.22265933454036713,278.564453125,-123.779296875,71.96044921875
3.662116050720215,-1269956066,0,0.0638805702328682,0.2972652018070221,0.1650887429714203,183.59375,-374.45068359375,-333.92333984375
3.6841259002685547,-1269956066,1,0.011855024844408035,0.2260645478963852,-0.11548160016536713,285.400390625,-122.98583984375,10.68115234375
3.6841349601745605,-1269956047,1,-0.007187943905591965,0.2016504853963852,-0.08056949079036713,285.46142578125,-128.41796875,-41.07666015625
3.691999912261963,-1269956047,0,0.1036754921078682,0.4649898111820221,-0.055370233952999115,133.23974609375,-420.59326171875,-307.31201171875
3.6921210289001465,-1269956028,0,0.1107555702328682,0.5833979845046997,-0.11005773395299911,77.20947265625,-437.3779296875,-253.0517578125
3.7072041034698486,-1269956028,1,-0.08067427575588226,0.2004297822713852,-0.09595035016536713,269.4091796875,-141.29638671875,-59.87548828125
3.7313270568847656,-1269956009,0,0.0719372108578682,0.6222163438796997,-0.033641718327999115,24.4140625,-416.32080078125,-205.4443359375
3.731334924697876,-1269955990,0,0.0658336952328682,0.6385737657546997,0.040577031672000885,-16.11328125,-367.919921875,-167.05322265625
3.7371280193328857,-1269956009,1,-0.10752974450588226,0.1769922822713852,-0.12646792829036713,234.55810546875,-164.55078125,-63.1103515625
3.73720383644104,-1269955990,1,-0.08702193200588226,0.10082040727138519,-0.21338199079036713,190.36865234375,-174.8046875,-78.55224609375
3.7784199714660645,-1269955971,1,-0.08531294763088226,0.08128915727138519,-0.26611635088920593,140.869140625,-168.0908203125,-117.67578125
3.7792158126831055,-1269955952,1,-0.17076216638088226,0.10887704789638519,-0.26440736651420593,105.8349609375,-169.86083984375,-141.7236328125
3.7838330268859863,-1269955954,0,-0.0706409141421318,0.6249018907546997,0.10356531292200089,-163.51318359375,-194.88525390625,-59.63134765625
3.7839770317077637,-1269955935,0,-0.2054065465927124,0.4771968424320221,0.1599617898464203,-273.5595703125,-113.22021484375,8.9111328125
3.798596143722534,-1269955933,1,-0.34239301085472107,0.11864267289638519,-0.32617494463920593,68.29833984375,-178.16162109375,-150.93994140625
3.813840866088867,-1269955916,0,-0.3150256872177124,0.3131343424320221,0.2468758523464203,-375.8544921875,-84.716796875,59.50927734375
3.830836057662964,-1269955914,1,-0.39244183897972107,0.1393946260213852,-0.39306947588920593,28.80859375,-170.7763671875,-141.05224609375
3.8421339988708496,-1269955897,0,-0.3384631872177124,-0.009375423192977905,0.4131356179714203,-435.05859375,-146.05712890625,64.3310546875
3.8422389030456543,-1269955878,0,-0.2249377965927124,-0.3060062825679779,0.5962411165237427,-429.87060546875,-250.732421875,51.20849609375
3.857822895050049,-1269955878,1,-0.45811566710472107,-0.06299795210361481,-0.46094056963920593,-7.2021484375,-119.07958984375,-128.662109375
3.879387855529785,-1269955859,0,-0.014000289142131805,-0.6160649061203003,1.0093270540237427,-370.42236328125,-386.71875,36.68212890625
3.8793959617614746,-1269955840,0,0.2689586877822876,-0.6021488904953003,1.3660165071487427,-261.23046875,-474.42626953125,53.03955078125
3.890889883041382,-1269955859,1,-0.44883832335472107,-0.1276952177286148,-0.44702455401420593,-6.89697265625,-76.35498046875,-169.189453125
3.8908979892730713,-1269955840,1,-0.5521098375320435,-0.09498037397861481,-0.35547181963920593,-1.89208984375,-56.640625,-206.1767578125
3.9025228023529053,-1269955821,0,0.6366344690322876,-0.6316899061203003,1.5994149446487427,-187.1337890625,-450.5615234375,103.8818359375
3.9281349182128906,-1269955821,1,-0.8594828844070435,-0.06934560835361481,-0.40625306963920593,-10.68115234375,-56.09130859375,-233.58154296875
3.9281420707702637,-1269955802,1,-1.2288676500320435,0.03709970787167549,-0.5861847400665283,-37.59765625,-40.71044921875,-223.5107421875
3.933817148208618,-1269955802,0,0.9320446252822876,-0.7518070936203003,2.106250762939453,-136.04736328125,-286.68212890625,205.50537109375
3.9338250160217285,-1269955783,0,1.0262829065322876,-1.0508793592453003,2.021289825439453,-99.91455078125,-96.3134765625,328.0029296875
3.94808292388916,-1269955783,1,-1.3133403062820435,-0.1254979521036148,-0.5522491931915283,-82.70263671875,-14.0380859375,-199.27978515625
3.963789939880371,-1269955764,0,1.2438122034072876,-1.4083012342453003,1.6123543977737427,-62.5,-16.17431640625,448.91357421875
3.9825599193573,-1269955764,1,-1.3079692125320435,-0.3781834840774536,-0.48193666338920593,-112.60986328125,-3.0517578125,-253.2958984375
3.9825668334960938,-1269955745,1,-1.6292582750320435,-0.09961904585361481,-0.6450226306915283,-142.39501953125,4.2724609375,-310.791015625
3.993772029876709,-1269955745,0,1.4618297815322876,-1.7154301404953003,1.5195809602737427,-12.3291015625,-31.1279296875,511.29150390625
3.9938690662384033,-1269955726,0,2.081458806991577,-1.9837406873703003,1.5530282258987427,81.787109375,-54.38232421875,579.04052734375
4.008872985839844,-1269955726,1,-2.114853858947754,0.10277353227138519,-0.6218292713165283,-223.6328125,2.50244140625,-290.95458984375
4.032317876815796,-1269955690,0,3.385413885116577,-2.2974612712860107,1.2937508821487427,215.576171875,88.134765625,712.646484375
4.038780927658081,-1269955707,1,-2.246201515197754,0.04491220787167549,-0.47876283526420593,-299.37744140625,15.44189453125,-230.5908203125
4.038870096206665,-1269955688,1,-2.180771827697754,0.04466806724667549,-0.18652652204036713,-298.27880859375,69.39697265625,-229.67529296875
4.068102836608887,-1269955669,1,-2.179306983947754,0.1760157197713852,0.11303402483463287,-265.80810546875,98.876953125,-267.822265625
4.077391147613525,-1269955650,1,-2.432969093322754,0.5778712034225464,0.40429380536079407,-261.16943359375,60.11962890625,-267.2119140625
4.082283973693848,-1269955671,0,4.082435131072998,-2.4239261150360107,0.9968758821487427,250.6103515625,130.06591796875,705.9326171875
4.0824010372161865,-1269955652,0,4.184974193572998,-2.4458987712860107,0.7056161165237427,319.39697265625,157.28759765625,606.26220703125
4.08356785774231,-1269955633,0,4.253577709197998,-2.2933108806610107,0.4106942117214203,400.0244140625,185.6689453125,506.77490234375
4.112379789352417,-1269955614,0,4.124671459197998,-1.9019535779953003,0.1711922585964203,438.17138671875,237.85400390625,407.77587890625
4.130664825439453,-1269955614,1,-2.891221046447754,0.2272852510213852,-0.26733705401420593,-270.3857421875,74.64599609375,-108.2763671875
4.130672931671143,-1269955595,1,-2.032334327697754,0.09422861039638519,0.07885433733463287,-229.43115234375,214.35546875,-102.1728515625
4.143918037414551,-1269955595,0,3.562904119491577,-1.5350102186203003,0.019580937922000885,441.162109375,289.4287109375,320.49560546875
4.144000053405762,-1269955576,0,2.989661931991577,-1.2767094373703003,-0.1984366476535797,458.31298828125,328.0029296875,259.33837890625
4.158766031265259,-1269955576,1,-1.9293071031570435,0.2238672822713852,0.08178402483463287,-257.26318359375,181.0302734375,-137.3291015625
4.1804609298706055,-1269955557,0,2.597572088241577,-1.0044926404953003,-0.2843741476535797,494.32373046875,333.251953125,208.0078125
4.187038898468018,-1269955557,1,-1.8799906969070435,0.2482813447713852,0.09887386858463287,-318.78662109375,117.98095703125,-67.7490234375
4.1871559619903564,-1269955538,1,-1.8275004625320435,0.2206934541463852,0.05517270043492317,-352.4169921875,119.56787109375,42.6025390625
4.20217490196228,-1269955538,0,2.059486150741577,-0.7361820936203003,-0.3869132101535797,514.6484375,327.20947265625,142.4560546875
4.202287912368774,-1269955519,0,1.6925426721572876,-0.6165531873703003,-0.3527335226535797,525.20751953125,286.7431640625,104.3701171875
4.228618860244751,-1269955519,1,-1.4664164781570435,-0.2282811552286148,0.38207700848579407,-363.1591796875,149.0478515625,77.63671875
4.22862696647644,-1269955500,1,-1.2671977281570435,0.1894434541463852,0.5815398693084717,-279.541015625,149.658203125,101.6845703125
4.2327799797058105,-1269955500,0,1.3580700159072876,-0.3943851888179779,-0.3427237570285797,528.74755859375,240.05126953125,62.31689453125
4.2327868938446045,-1269955481,0,1.0548473596572876,-0.2217777669429779,-0.3944815695285797,477.35595703125,191.650390625,29.296875
4.248842000961304,-1269955481,1,-1.1907817125320435,0.4223536252975464,0.5820281505584717,-297.4853515625,137.87841796875,144.6533203125
4.262979030609131,-1269955462,0,0.7567516565322876,-0.1138676106929779,-0.3112296164035797,429.62646484375,213.8671875,29.84619140625
4.281186103820801,-1269955462,1,-1.1038676500320435,0.2797755002975464,0.35253599286079407,-304.931640625,134.82666015625,187.6220703125
4.281193017959595,-1269955443,1,-1.1768656969070435,0.2553614377975464,0.20800472795963287,-265.80810546875,145.6298828125,261.53564453125
4.293853998184204,-1269955426,0,0.4764782190322876,0.1092769205570221,-0.2457999289035797,309.14306640625,231.50634765625,84.5947265625
4.308743953704834,-1269955424,1,-0.8858500719070435,0.06908212602138519,0.08324886858463287,-237.48779296875,160.09521484375,305.17578125
4.331869840621948,-1269955407,0,0.4386364221572876,0.1561519205570221,-0.1874503195285797,276.4892578125,183.53271484375,95.947265625
4.3385329246521,-1269955405,1,-0.6775981187820435,-0.03223622962832451,-0.014407377690076828,-205.078125,176.025390625,286.376953125
4.338547945022583,-1269955386,1,-0.5794535875320435,0.02293955162167549,-0.07031558454036713,-176.20849609375,238.46435546875,263.97705078125
4.352996110916138,-1269955388,0,0.4291149377822876,0.1925288736820221,-0.1571768820285797,267.02880859375,148.01025390625,82.8857421875
4.353052854537964,-1269955369,0,0.4281383752822876,0.2982417643070221,-0.1557120382785797,242.67578125,142.76123046875,74.5849609375
4.368624925613403,-1269955350,1,-0.5079203844070435,0.10228525102138519,0.14941097795963287,-187.01171875,272.5830078125,266.17431640625
4.383623838424683,-1269955350,0,0.3702770471572876,0.3299800455570221,-0.1398428976535797,199.27978515625,188.8427734375,92.529296875
4.38375186920166,-1269955331,0,0.2342907190322876,0.3175288736820221,-0.10322179645299911,151.123046875,227.47802734375,123.779296875
4.398411989212036,-1269955331,1,-0.48668012022972107,0.08983407914638519,0.29247739911079407,-208.8623046875,222.5341796875,306.94580078125
4.413412809371948,-1269955312,0,0.1422497034072876,0.2918941080570221,-0.09345617145299911,129.08935546875,226.6845703125,137.26806640625
4.431311130523682,-1269955312,1,-0.30992230772972107,-0.1608983427286148,0.32299497723579407,-274.71923828125,142.88330078125,317.93212890625
4.431318998336792,-1269955293,1,-0.08335982263088226,-0.2348729521036148,0.9763152599334717,-310.97412109375,78.06396484375,291.3818359375
4.443690061569214,-1269955293,0,-0.1455920934677124,0.3189937174320221,-0.1334952414035797,112.3046875,205.01708984375,149.0478515625
4.443804979324341,-1269955274,0,0.1085583046078682,0.1148921549320221,-0.4557608664035797,46.81396484375,199.8291015625,212.58544921875
4.456977844238281,-1269955274,1,0.21620072424411774,-0.2353612333536148,0.9838836193084717,-198.8525390625,112.060546875,223.2666015625
4.479008913040161,-1269955255,0,0.4879528284072876,0.1332027018070221,0.024952031672000885,63.720703125,168.51806640625,213.134765625
4.4886908531188965,-1269955255,1,0.22425736486911774,-0.04566396400332451,0.41161802411079407,-65.673828125,183.59375,148.5595703125
4.488822937011719,-1269955236,1,-0.06700240075588226,0.1620997041463852,0.35546568036079407,-13.18359375,217.7734375,127.13623046875
4.503766059875488,-1269955236,0,0.4242321252822876,0.1727534830570221,0.09526453167200089,123.046875,113.83056640625,163.26904296875
4.503873109817505,-1269955217,0,0.4838024377822876,0.2357417643070221,-0.051952265202999115,141.845703125,89.2333984375,183.53271484375
4.5274128913879395,-1269955217,1,-0.055771928280591965,0.2270411103963852,0.17992855608463287,-58.53271484375,180.11474609375,161.7431640625
4.533705949783325,-1269955198,0,0.7284313440322876,0.2662593424320221,-0.11494054645299911,84.8388671875,146.54541015625,269.47021484375
4.548719167709351,-1269955198,1,0.14710892736911774,0.1586817353963852,0.11986996233463287,-107.666015625,139.95361328125,146.728515625
4.548800945281982,-1269955179,1,0.23695267736911774,0.2724512815475464,0.16454769670963287,-127.74658203125,151.30615234375,99.2431640625
4.563898801803589,-1269955162,0,0.7762829065322876,0.1859370768070221,-0.1867178976535797,-25.87890625,218.93310546875,306.396484375
4.591674089431763,-1269955143,0,0.6969372034072876,0.1971675455570221,-0.2040518820285797,-66.7724609375,226.5625,318.603515625
4.592435836791992,-1269955124,0,0.7069469690322876,0.2232905924320221,-0.2311514914035797,-139.09912109375,212.70751953125,342.83447265625
4.607244968414307,-1269955160,1,0.13783158361911774,0.4333399534225464,0.17431332170963287,-155.029296875,126.15966796875,46.630859375
4.607352018356323,-1269955141,1,0.08875931799411774,0.5737208127975464,0.23437191545963287,-202.0263671875,115.53955078125,15.2587890625
4.608201026916504,-1269955122,1,0.034071821719408035,0.6408594846725464,0.31762388348579407,-232.11669921875,111.63330078125,-6.8359375
4.630208969116211,-1269955105,0,0.8556286096572876,0.0833980143070221,-0.1486319601535797,-209.65576171875,186.46240234375,359.9853515625
4.636919975280762,-1269955086,1,0.22303666174411774,0.5900782346725464,0.5195281505584717,-301.1474609375,115.234375,-94.17724609375
4.653854846954346,-1269955086,0,1.4108043909072876,0.1227046549320221,-0.09565343707799911,-269.04296875,158.87451171875,370.54443359375
4.653944969177246,-1269955067,0,1.9205700159072876,0.3009273111820221,0.06425867229700089,-314.8193359375,201.84326171875,333.43505859375
4.681260108947754,-1269955067,1,0.14344681799411774,0.7116602659225464,0.7441375255584717,-325.68359375,111.4501953125,-171.08154296875
4.6848978996276855,-1269955048,0,1.7660290002822876,0.1371089518070221,0.3149910867214203,-384.09423828125,261.16943359375,286.68212890625
4.712559938430786,-1269955029,0,1.8085094690322876,0.0978023111820221,0.6938973665237427,-411.80419921875,218.07861328125,217.6513671875
4.712571859359741,-1269955010,0,2.021644353866577,-0.1084965169429779,1.0024911165237427,-413.818359375,161.376953125,121.2158203125
4.7325639724731445,-1269955048,1,0.10169877111911774,0.6254786252975464,0.9567840099334717,-440.85693359375,7.2021484375,-215.27099609375
4.732572793960571,-1269955029,1,-0.08018599450588226,0.4736231565475464,1.4030730724334717,-569.51904296875,-83.1298828125,-276.18408203125
4.7325780391693115,-1269955010,1,-0.30845746397972107,0.2619532346725464,2.0461394786834717,-657.77587890625,-181.5185546875,-296.5087890625
4.732581853866577,-1269954991,1,-0.5316020250320435,-0.1342870146036148,2.9296844005584717,-661.376953125,-269.8974609375,-302.67333984375
4.742319107055664,-1269954991,0,1.9249645471572876,-0.3934086263179779,1.4202157258987427,-439.208984375,188.29345703125,44.3115234375
4.742449998855591,-1269954972,0,1.6268688440322876,-0.7415531873703003,1.7456551790237427,-431.21337890625,169.49462890625,-51.3916015625
4.7572619915008545,-1269954972,1,-0.9368754625320435,-0.4626561403274536,3.4711883068084717,-391.845703125,-221.86279296875,-236.26708984375
4.779969930648804,-1269954953,0,1.5040661096572876,-1.4498051404953003,2.040088653564453,-410.5224609375,113.70849609375,-167.236328125
4.789012908935547,-1269954953,1,-0.7298442125320435,-0.6828709840774536,2.8444793224334717,35.7666015625,-59.14306640625,-102.96630859375
4.789129018783569,-1269954934,1,-0.6641703844070435,-0.3508397340774536,2.5378386974334717,196.35009765625,29.72412109375,-71.71630859375
4.803835868835449,-1269954934,0,1.5943981409072876,-1.8377445936203003,2.220508575439453,-310.85205078125,92.34619140625,-258.72802734375
4.829689979553223,-1269954915,1,-0.6160746812820435,0.02586923912167549,2.3601043224334717,210.14404296875,-71.71630859375,-118.7744140625
4.833733797073364,-1269954898,0,1.5167614221572876,-1.6082524061203003,1.7832528352737427,-171.142578125,230.712890625,-334.9609375
4.849103927612305,-1269954896,1,-0.8392192125320435,-0.02613271400332451,2.0632293224334717,67.44384765625,-225.40283203125,-75.25634765625
4.8492138385772705,-1269954877,1,-0.15171919763088226,-0.2456151396036148,1.5668914318084717,95.458984375,-249.81689453125,-3.5400390625
4.863695859909058,-1269954879,0,1.0760875940322876,-1.5672367811203003,1.4983407258987427,-58.10546875,184.14306640625,-378.41796875
4.863720893859863,-1269954860,0,0.8888317346572876,-1.5032719373703003,1.2378426790237427,91.6748046875,102.294921875,-434.08203125
4.881443977355957,-1269954858,1,-0.07432661950588226,-0.8474217653274536,1.5183074474334717,198.18115234375,-118.2861328125,5.06591796875
4.8938329219818115,-1269954841,0,1.0033336877822876,-1.1763676404953003,1.1306649446487427,231.50634765625,105.77392578125,-442.0166015625
4.893932104110718,-1269954822,0,0.9015270471572876,-0.9627445936203003,0.9119149446487427,350.7080078125,175.72021484375,-423.03466796875
4.908723831176758,-1269954822,1,0.26014605164527893,0.1657618135213852,1.4169890880584717,380.4931640625,-4.0283203125,-36.9873046875
4.9299540519714355,-1269954803,0,0.5907360315322876,-0.7740238904953003,0.5725594758987427,426.513671875,208.8623046875,-366.88232421875
4.938677072525024,-1269954803,1,-0.07457076013088226,-0.1616307646036148,0.8630340099334717,380.2490234375,26.7333984375,24.4140625
4.938788175582886,-1269954784,1,0.005019087344408035,0.06932626664638519,0.38891294598579407,336.85302734375,50.23193359375,10.80322265625
4.953531980514526,-1269954784,0,0.3011852502822876,-0.5259770154953003,0.059620000422000885,438.96484375,220.52001953125,-296.93603515625
4.978415012359619,-1269954765,1,0.19154252111911774,0.1437891572713852,0.19579769670963287,286.19384765625,84.28955078125,33.14208984375
4.984349012374878,-1269954765,0,0.0963512733578682,-0.2454594075679779,-0.2233389914035797,394.59228515625,207.03125,-236.99951171875
4.984356164932251,-1269954746,0,0.0035778358578681946,-0.1277836263179779,-0.3307608664035797,343.994140625,188.96484375,-205.50537109375
4.99855375289917,-1269954746,1,0.43055620789527893,-0.007089745253324509,-0.05200503394007683,297.66845703125,195.98388671875,23.92578125
4.998663902282715,-1269954727,1,0.5333393812179565,0.1430567353963852,-0.14038394391536713,356.93359375,317.87109375,21.484375
5.015331029891968,-1269954727,0,-0.0921252891421318,-0.046973079442977905,-0.3905753195285797,303.52783203125,163.9404296875,-181.15234375
5.015338897705078,-1269954708,0,-0.2710803747177124,0.0648433268070221,-0.5058096647262573,285.0341796875,152.40478515625,-137.20703125
5.032081842422485,-1269954708,1,0.48670855164527893,0.05077158287167549,-0.14697574079036713,455.62744140625,470.76416015625,-9.94873046875
5.04381799697876,-1269954689,0,-0.4373401403427124,0.3473140299320221,-0.5702627897262573,244.9951171875,141.05224609375,-75.8056640625
5.0438971519470215,-1269954670,0,-0.2964709997177124,0.4317866861820221,-0.5167959928512573,197.265625,117.49267578125,-20.5078125
5.059428930282593,-1269954689,1,0.22279252111911774,0.3268946409225464,-0.29614564776420593,460.99853515625,523.86474609375,9.27734375
5.059437036514282,-1269954670,1,0.16078080236911774,0.2590235471725464,-0.32129213213920593,334.65576171875,497.61962890625,30.09033203125
5.086597919464111,-1269954651,1,0.13758744299411774,0.2141016572713852,-0.30176088213920593,252.38037109375,482.72705078125,55.96923828125
5.088347911834717,-1269954632,1,0.15882767736911774,0.2109278291463852,-0.29248353838920593,207.763671875,467.83447265625,76.59912109375
5.116013050079346,-1269954613,1,0.16468705236911774,0.1474512666463852,-0.33545228838920593,168.64013671875,450.98876953125,96.3134765625
5.146136999130249,-1269954594,1,0.14662064611911774,0.05321298912167549,-0.35010072588920593,104.91943359375,412.04833984375,122.61962890625
5.162491798400879,-1269954634,0,-0.0911487266421318,0.4776851236820221,-0.1769522726535797,168.0908203125,128.5400390625,45.95947265625
5.162687063217163,-1269954615,0,-0.052330367267131805,0.5582515001296997,-0.1879386007785797,157.40966796875,141.2353515625,77.69775390625
5.162714958190918,-1269954596,0,-0.1192248985171318,0.5765620470046997,-0.1535147726535797,127.44140625,130.4931640625,101.806640625
5.163400888442993,-1269954577,0,-0.1360706090927124,0.5826655626296997,-0.11298742145299911,113.1591796875,95.39794921875,115.90576171875
5.181305170059204,-1269954558,1,0.13539017736911774,-0.2509862184524536,-0.28540346026420593,-94.42138671875,302.6123046875,184.99755859375
5.193048000335693,-1269954558,0,-0.018150679767131805,0.5584956407546997,-0.07392492145299911,111.99951171875,60.72998046875,128.5400390625
5.19314980506897,-1269954539,0,0.1048961952328682,0.6009761095046997,-0.10639562457799911,118.65234375,31.1279296875,141.9677734375
5.193246841430664,-1269954520,0,0.2538219690322876,0.7176753282546997,-0.2282218039035797,115.3564453125,13.36669921875,140.9912109375
5.231075048446655,-1269954501,0,0.3158336877822876,0.7132807970046997,-0.2216300070285797,88.37890625,-10.55908203125,143.310546875
5.2515997886657715,-1269954482,0,0.4571911096572876,0.6588374376296997,-0.2282218039035797,80.2001953125,-42.724609375,154.96826171875
5.252341985702515,-1269954463,0,0.8207165002822876,0.6256343126296997,-0.2023428976535797,73.73046875,-67.626953125,173.15673828125
5.276301145553589,-1269954539,1,0.21302689611911774,-0.4936619997024536,-0.18677066266536713,-178.466796875,275.87890625,173.64501953125
5.276309013366699,-1269954520,1,0.18104447424411774,-0.6604100465774536,-0.014651518315076828,-232.36083984375,282.958984375,150.87890625
5.276313781738281,-1269954501,1,-0.041611772030591965,-0.8191014528274536,0.16796566545963287,-279.541015625,314.8193359375,124.93896484375
5.277097940444946,-1269954482,1,-0.40245160460472107,-1.1508885622024536,0.44653013348579407,-353.271484375,345.8251953125,130.92041015625
5.282141923904419,-1269954444,0,1.1197887659072876,0.6717768907546997,-0.2262686789035797,77.1484375,-56.33544921875,173.03466796875
5.2986979484558105,-1269954463,1,-0.8233500719070435,-1.6948338747024536,0.8779265880584717,-442.32177734375,383.60595703125,156.73828125
5.298819065093994,-1269954444,1,-1.1976176500320435,-2.867685556411743,1.6889617443084717,-601.9287109375,412.59765625,166.3818359375
5.298831939697266,-1269954425,1,-1.4722758531570435,-4.424570083618164,3.0410125255584717,-729.248046875,427.79541015625,139.892578125
5.312761068344116,-1269954425,0,1.2526012659072876,0.7396479845046997,-0.2462882101535797,55.96923828125,-45.83740234375,169.921875
5.3128368854522705,-1269954406,0,1.2665172815322876,0.6529780626296997,-0.2667960226535797,23.25439453125,-57.9833984375,171.81396484375
5.334414958953857,-1269954406,1,-1.2894145250320435,-5.543466567993164,4.643307685852051,-624.08447265625,431.5185546875,-53.3447265625
5.343976020812988,-1269954370,0,1.3988415002822876,0.4825679361820221,-0.3371085226535797,36.19384765625,-110.41259765625,172.42431640625
5.36209511756897,-1269954387,1,-1.7098246812820435,-4.952157974243164,4.987545967102051,-378.72314453125,333.6181640625,-318.84765625
5.36210298538208,-1269954368,1,-3.410752296447754,-3.553232431411743,4.046139717102051,-159.36279296875,151.7333984375,-566.162109375
5.380156993865967,-1269954351,0,1.3277965784072876,0.5453120470046997,-0.4345206320285797,18.5546875,-105.1025390625,171.20361328125
5.388676166534424,-1269954349,1,-4.650742530822754,-2.672861337661743,3.0595672130584717,-166.07666015625,110.77880859375,-652.40478515625
5.3888139724731445,-1269954330,1,-4.802597999572754,-2.450205087661743,2.9890105724334717,-278.9306640625,133.36181640625,-656.6162109375
5.405019760131836,-1269954332,0,1.2540661096572876,0.4166499674320221,-0.4657706320285797,2.8076171875,-131.2255859375,178.28369140625
5.405027151107788,-1269954313,0,1.4715954065322876,0.3612300455570221,-0.3913077414035797,0.79345703125,-169.3115234375,194.2138671875
5.431919097900391,-1269954294,0,1.7635875940322876,0.4124995768070221,-0.059764765202999115,18.85986328125,-202.69775390625,206.6650390625
5.448639869689941,-1269954294,1,-4.120713233947754,-2.846201181411743,3.6936004161834717,-135.3759765625,122.314453125,-743.408203125
5.44875693321228,-1269954275,1,-4.552597999572754,-2.887216806411743,3.8002898693084717,-24.4140625,26.67236328125,-873.96240234375
5.463742971420288,-1269954275,0,1.8646618127822876,0.5333491563796997,0.024219609797000885,41.56494140625,-218.3837890625,213.56201171875
5.463820934295654,-1269954256,0,1.8209606409072876,0.5357905626296997,0.06840906292200089,6.2255859375,-187.744140625,199.951171875
5.481139898300171,-1269954256,1,-4.840195655822754,-2.615976572036743,3.7070281505584717,-19.34814453125,-78.0029296875,-913.0859375
5.4930009841918945,-1269954237,0,1.4217907190322876,0.4400874674320221,-0.6059073209762573,-6.8359375,-168.02978515625,218.75
5.50882887840271,-1269954237,1,-4.590439796447754,-2.335947275161743,3.5598113536834717,-14.2822265625,-153.3203125,-920.71533203125
5.508970022201538,-1269954218,1,-4.298691749572754,-1.8520604372024536,3.1804168224334717,29.96826171875,-174.74365234375,-903.80859375
5.529748916625977,-1269954218,0,-0.9993518590927124,-0.7222660779953003,-0.5519522428512573,-52.18505859375,-317.5048828125,396.1181640625
5.5297558307647705,-1269954199,0,0.6466442346572876,-0.3775394856929779,-2.510204315185547,-119.5068359375,-598.44970703125,478.08837890625
5.538947105407715,-1269954199,1,-3.854844093322754,-1.5893651247024536,2.8005340099334717,103.08837890625,-196.77734375,-889.09912109375
5.538954019546509,-1269954180,1,-3.641953468322754,-1.4133397340774536,2.3911101818084717,169.25048828125,-210.205078125,-884.33837890625
5.5538177490234375,-1269954180,0,2.514808416366577,-0.3802250325679779,-1.2421377897262573,-303.89404296875,-375.3662109375,208.80126953125
5.553889036178589,-1269954161,0,0.9554821252822876,-0.3599613606929779,-1.3866690397262573,-298.095703125,-132.75146484375,322.998046875
5.5783727169036865,-1269954161,1,-3.620469093322754,-0.7658787965774536,1.7463347911834717,212.82958984375,-222.0458984375,-801.7578125
5.583678960800171,-1269954142,0,1.2670055627822876,0.014550358057022095,-1.0795401334762573,-315.4296875,-255.859375,284.912109375
5.596977949142456,-1269954142,1,-3.337021827697754,-0.10010732710361481,1.0209929943084717,176.26953125,-240.478515625,-653.38134765625
5.597069978713989,-1269954123,1,-2.628525733947754,0.1428125947713852,0.47533872723579407,133.60595703125,-239.501953125,-547.91259765625
5.6137049198150635,-1269954106,0,1.5152965784072876,0.5826655626296997,-0.7829092741012573,-335.99853515625,-407.65380859375,170.5322265625
5.64116096496582,-1269954087,0,1.3595348596572876,0.1432124674320221,-0.5326651334762573,-423.52294921875,-363.8916015625,127.3193359375
5.657366037368774,-1269954104,1,-2.162217140197754,0.3535059690475464,0.09887386858463287,130.18798828125,-202.0263671875,-494.32373046875
5.657527923583984,-1269954085,1,-1.7745219469070435,0.6450098752975464,-0.16675113141536713,157.77587890625,-122.98583984375,-400.69580078125
5.657567024230957,-1269954066,1,-1.3863383531570435,0.8215235471725464,-0.5690948963165283,142.4560546875,-48.64501953125,-313.3544921875
5.679949998855591,-1269954068,0,0.8080211877822876,0.004052311182022095,-0.10859289020299911,-415.771484375,-328.61328125,120.361328125
5.679959058761597,-1269954049,0,0.3990856409072876,0.1869136393070221,-0.3351553976535797,-333.3740234375,-336.97509765625,103.271484375
5.68809700012207,-1269954030,1,-0.7212992906570435,0.8298243284225464,0.11352230608463287,-11.962890625,-56.21337890625,-84.53369140625
5.703641891479492,-1269954030,0,0.2137829065322876,0.1573726236820221,-0.6388663053512573,-311.82861328125,-384.6435546875,73.6083984375
5.7036778926849365,-1269954011,0,0.2535778284072876,0.1090327799320221,-0.7548331022262573,-311.279296875,-433.837890625,40.71044921875
5.7271318435668945,-1269954011,1,0.17860306799411774,0.3779200315475464,0.5957000255584717,0.6103515625,-93.32275390625,-126.220703125
5.733897924423218,-1269953992,0,0.3641735315322876,-0.021826595067977905,-0.7062491178512573,-305.35888671875,-447.57080078125,24.71923828125
5.74722695350647,-1269953992,1,0.32069292664527893,0.2651270627975464,0.5617644786834717,36.2548828125,-52.55126953125,-209.41162109375
5.747319936752319,-1269953973,1,0.18446244299411774,0.5234278440475464,0.45849302411079407,41.015625,-9.8876953125,-199.27978515625
5.762095928192139,-1269953973,0,0.3741832971572876,-0.0962894856929779,-0.4889639914035797,-263.5498046875,-418.02978515625,50.048828125
5.762221097946167,-1269953954,0,0.2738415002822876,0.025536686182022095,-0.3747061789035797,-214.78271484375,-350.52490234375,91.552734375
5.781333923339844,-1269953954,1,0.38026323914527893,0.3049219846725464,0.46679380536079407,-27.4658203125,-37.9638671875,-125.42724609375
5.794376850128174,-1269953935,0,0.2618786096572876,0.0682612955570221,-0.4191397726535797,-212.890625,-296.630859375,133.7890625
5.807325839996338,-1269953935,1,0.5662983655929565,-0.10157217085361481,0.41820982098579407,-117.7978515625,-132.14111328125,-111.083984375
5.807421922683716,-1269953916,1,0.6600483655929565,-0.2412206083536148,0.32690122723579407,-170.7763671875,-176.81884765625,-166.32080078125
5.829903841018677,-1269953916,0,0.2870250940322876,0.0650874674320221,-0.3483389914035797,-240.478515625,-280.45654296875,140.13671875
5.830511093139648,-1269953897,0,0.3531872034072876,-0.040381282567977905,-0.1903800070285797,-276.06201171875,-287.90283203125,112.1826171875
5.838596820831299,-1269953897,1,0.23719681799411774,0.07420907914638519,0.32934263348579407,-198.1201171875,-181.7626953125,-227.47802734375
5.853882789611816,-1269953878,0,0.2721325159072876,-0.1795414388179779,0.046680547297000885,-244.5068359375,-286.62109375,108.3984375
5.878144025802612,-1269953878,1,-0.028916459530591965,0.2729395627975464,0.28246763348579407,-189.5751953125,-153.9306640625,-170.5322265625
5.878151893615723,-1269953859,1,-0.08604536950588226,0.12206064164638519,0.22143246233463287,-224.7314453125,-121.337890625,-95.8251953125
5.884414911270142,-1269953842,0,0.2926403284072876,0.042626529932022095,0.4817391335964203,-114.1357421875,-192.56591796875,270.69091796875
5.898662805557251,-1269953840,1,-0.12608443200588226,0.1398829072713852,0.18529964983463287,-254.0283203125,-114.31884765625,-85.63232421875
5.89876389503479,-1269953821,1,-0.32798871397972107,0.3857325315475464,0.23925472795963287,-287.29248046875,-100.7080078125,-97.71728515625
5.9136879444122314,-1269953823,0,0.3912731409072876,0.1161128580570221,0.4731942117214203,-122.55859375,-92.529296875,396.91162109375
5.9138360023498535,-1269953804,0,0.5392223596572876,0.0853511393070221,0.4841805398464203,-130.859375,-24.2919921875,488.8916015625
5.933214902877808,-1269953802,1,-0.40538129210472107,0.5776270627975464,0.44897153973579407,-323.8525390625,-99.2431640625,-34.0576171875
5.942164897918701,-1269953785,0,0.6466442346572876,-0.037939876317977905,0.6689950227737427,-111.63330078125,53.28369140625,596.37451171875
5.958427906036377,-1269953766,1,-0.5694438219070435,0.4560450315475464,1.2829558849334717,-328.06396484375,26.0009765625,114.6240234375
5.982103109359741,-1269953766,0,1.2135387659072876,-0.2420414388179779,0.8657723665237427,-46.38671875,106.87255859375,689.94140625
5.982110977172852,-1269953747,0,1.9405895471572876,-0.4961918294429779,0.8357430696487427,52.67333984375,127.62451171875,686.767578125
5.98881196975708,-1269953747,1,-0.5062114000320435,0.3200587034225464,1.7778289318084717,-301.57470703125,25.390625,181.5185546875
6.002919912338257,-1269953728,0,2.908363103866577,-0.7278813123703003,0.8325692415237427,143.6767578125,222.96142578125,696.83837890625
6.0029990673065186,-1269953709,0,3.399574041366577,-0.4720219075679779,0.7466317415237427,140.5029296875,325.37841796875,638.12255859375
6.028012990951538,-1269953728,1,-0.48277387022972107,0.1704004853963852,1.9826629161834717,-295.59326171875,-12.3291015625,269.83642578125
6.028022050857544,-1269953709,1,-0.27256879210472107,-0.1965428739786148,2.1816375255584717,-262.8173828125,-20.99609375,344.29931640625
6.033775091171265,-1269953690,0,2.715980291366577,-0.2303226888179779,0.6206551790237427,94.90966796875,327.45361328125,429.01611328125
6.048499822616577,-1269953690,1,-0.18589888513088226,-0.8396092653274536,2.3464324474334717,-152.34375,41.50390625,407.16552734375
6.048614978790283,-1269953671,1,0.12977494299411774,-1.1103612184524536,2.4653289318084717,3.72314453125,111.63330078125,391.9677734375
6.063655853271484,-1269953671,0,1.7845836877822876,-0.7601078748703003,0.3599129617214203,123.046875,166.68701171875,222.900390625
6.06373405456543,-1269953652,0,1.8959118127822876,-0.5633305311203003,0.7412606477737427,255.37109375,-18.12744140625,42.3583984375
6.081751108169556,-1269953652,1,0.026503462344408035,-0.9235936403274536,2.4045379161834717,124.69482421875,96.00830078125,326.0498046875
6.093023061752319,-1269953633,0,2.025306463241577,-0.1319340169429779,0.2854500710964203,309.4482421875,-70.6787109375,-51.20849609375
6.10713791847229,-1269953633,1,0.07044877111911774,-0.8908787965774536,2.3129851818084717,173.2177734375,30.76171875,278.076171875
6.107216835021973,-1269953614,1,-0.059922318905591965,-0.7129002809524536,2.0715301036834717,250.48828125,0.0,200.8056640625
6.129011869430542,-1269953614,0,1.5685192346572876,0.0895015299320221,0.1272469460964203,224.42626953125,-10.7421875,-93.017578125
6.140705108642578,-1269953595,1,-0.10460005700588226,-0.6474705934524536,2.0073211193084717,354.30908203125,-9.8876953125,171.7529296875
6.178426027297974,-1269953576,1,-0.11705122888088226,-0.6062108278274536,1.7575652599334717,452.5146484375,-23.0712890625,120.2392578125
6.178436040878296,-1269953557,1,-0.21031294763088226,-0.4238377809524536,1.4509246349334717,465.2099609375,-80.4443359375,64.75830078125
6.183153867721558,-1269953578,0,0.8920055627822876,-0.051611751317977905,0.1775399148464203,155.1513671875,58.59375,-100.89111328125
6.183160066604614,-1269953559,0,0.6229625940322876,0.0868159830570221,0.07182703167200089,170.71533203125,19.95849609375,-147.15576171875
6.1860949993133545,-1269953540,0,0.2953258752822876,0.0921870768070221,-0.017284296452999115,186.70654296875,-66.58935546875,-190.24658203125
6.196965932846069,-1269953538,1,-0.24376021325588226,-0.1452733427286148,1.1010711193084717,428.77197265625,-178.77197265625,-5.0048828125
6.2122087478637695,-1269953521,0,0.045814163982868195,0.1971675455570221,0.08745203167200089,189.39208984375,-155.8837890625,-215.33203125
6.212280035018921,-1269953502,0,0.055091507732868195,0.3155757486820221,0.11650476604700089,191.95556640625,-209.9609375,-236.2060546875
6.232762098312378,-1269953502,1,-0.16880904138088226,0.007070410996675491,0.39648130536079407,349.7314453125,-167.236328125,-53.52783203125
6.24376916885376,-1269953483,0,-0.040611617267131805,0.4513179361820221,0.1272469460964203,174.1943359375,-220.5810546875,-251.15966796875
6.258486986160278,-1269953483,1,-0.27232465147972107,-0.0017186515033245087,0.17528988420963287,378.35693359375,-152.34375,-86.181640625
6.2585649490356445,-1269953464,1,-0.19835005700588226,-0.03785146400332451,-0.13818667829036713,355.52978515625,-143.37158203125,-112.6708984375
6.281131029129028,-1269953464,0,-0.1795276403427124,0.4896480143070221,0.012012578547000885,114.3798828125,-237.60986328125,-248.9013671875
6.281760931015015,-1269953445,0,-0.1343616247177124,0.6075679063796997,0.014698125422000885,46.7529296875,-251.77001953125,-210.26611328125
6.2872068881988525,-1269953445,1,-0.10850630700588226,-0.04566396400332451,-0.30493471026420593,324.52392578125,-129.0283203125,-129.57763671875
6.302189111709595,-1269953426,0,-0.0952991172671318,0.7384272813796997,0.021534062922000885,-21.42333984375,-255.9814453125,-171.81396484375
6.327558994293213,-1269953426,1,-0.08653365075588226,-0.03467763587832451,-0.46313783526420593,274.96337890625,-111.26708984375,-147.27783203125
6.327570915222168,-1269953407,1,-0.050400834530591965,0.006337989121675491,-0.5305206775665283,214.7216796875,-85.0830078125,-167.05322265625
6.3320229053497314,-1269953407,0,-0.0789416953921318,0.7286616563796997,0.09038171917200089,-81.4208984375,-243.59130859375,-148.62060546875
6.332140922546387,-1269953388,0,0.018226273357868195,0.6966792345046997,0.1875496804714203,-132.38525390625,-219.66552734375,-150.93994140625
6.34870982170105,-1269953388,1,-0.11387740075588226,0.07005868852138519,-0.44531556963920593,164.24560546875,-80.078125,-197.75390625
6.363652944564819,-1269953369,0,-0.023521773517131805,0.5313960313796997,0.3044930398464203,-141.11328125,-235.53466796875,-170.59326171875
6.363736152648926,-1269953350,0,-0.023033492267131805,0.5001460313796997,0.3542977273464203,-110.4736328125,-259.3994140625,-173.7060546875
6.3806679248809814,-1269953369,1,-0.26793012022972107,0.1479395478963852,-0.42602846026420593,141.78466796875,-65.7958984375,-220.458984375
6.380676031112671,-1269953350,1,-0.42588910460472107,0.3220118284225464,-0.42090150713920593,136.3525390625,-44.49462890625,-212.890625
6.4068379402160645,-1269953331,1,-0.5411235094070435,0.4245508909225464,-0.42895814776420593,123.59619140625,-18.5546875,-183.4716796875
6.408695936203003,-1269953312,1,-0.43760785460472107,0.5234278440475464,-0.29004213213920593,92.59033203125,6.7138671875,-169.37255859375
6.427391052246094,-1269953314,0,0.029456742107868195,0.5584956407546997,0.4360848367214203,-135.07080078125,-288.57421875,-62.3779296875
6.427398920059204,-1269953295,0,0.1644665002822876,0.5282222032546997,0.5862313508987427,-189.453125,-301.7578125,24.90234375
6.438606023788452,-1269953293,1,-0.45250043272972107,0.4440821409225464,-0.28760072588920593,65.49072265625,2.9296875,-166.07666015625
6.4539079666137695,-1269953276,0,0.4733043909072876,0.4378902018070221,0.6731454133987427,-249.69482421875,-351.37939453125,59.08203125
6.478188991546631,-1269953274,1,-0.5355082750320435,0.4758204221725464,-0.28979799151420593,45.0439453125,0.91552734375,-173.7060546875
6.485946893692017,-1269953257,0,0.9396129846572876,0.1915523111820221,0.7783700227737427,-295.59326171875,-408.75244140625,82.82470703125
6.485956907272339,-1269953238,0,1.3287731409072876,-9.807944297790527e-05,1.0552254915237427,-310.9130859375,-428.77197265625,131.40869140625
6.498671054840088,-1269953238,1,-0.7842875719070435,0.6921290159225464,-0.18603824079036713,-16.05224609375,-3.41796875,-166.32080078125
6.513751029968262,-1269953219,0,1.6278454065322876,-0.1631840169429779,1.7358895540237427,-277.34375,-364.2578125,210.38818359375
6.513872861862183,-1269953200,0,2.057533025741577,-0.1697758138179779,2.226123809814453,-163.51318359375,-213.7451171875,252.50244140625
6.531896114349365,-1269953219,1,-0.8921977281570435,0.6677149534225464,-0.11352847516536713,-41.8701171875,7.99560546875,-110.53466796875
6.531903028488159,-1269953200,1,-0.8360453844070435,0.5268458127975464,-0.15014956891536713,-35.7666015625,34.11865234375,-97.412109375
6.543942928314209,-1269953181,0,2.474281072616577,-0.1309574544429779,1.7373543977737427,-36.1328125,1.3427734375,252.9296875
6.558714866638184,-1269953181,1,-0.8604594469070435,0.2753809690475464,-0.42602846026420593,-29.052734375,82.21435546875,-192.44384765625
6.558851957321167,-1269953162,1,-1.0765239000320435,0.2910059690475464,-0.49414369463920593,-60.1806640625,141.41845703125,-267.88330078125
6.581583738327026,-1269953162,0,2.631995916366577,-0.4361332356929779,1.0308114290237427,-4.0283203125,116.2109375,313.29345703125
6.581592082977295,-1269953143,0,2.653724431991577,-0.9097660779953003,0.6687508821487427,-8.4228515625,162.109375,441.7724609375
6.588799953460693,-1269953143,1,-1.4256449937820435,0.3803614377975464,-0.27392885088920593,-96.61865234375,182.861328125,-239.31884765625
6.603820085525513,-1269953124,0,2.903968572616577,-1.4349125623703003,0.7466317415237427,32.77587890625,147.8271484375,520.93505859375
6.628293752670288,-1269953124,1,-1.4129496812820435,0.4352930784225464,-0.32812806963920593,-98.69384765625,183.4716796875,-181.5185546875
6.628304958343506,-1269953105,1,-1.2977153062820435,0.3569239377975464,-0.25488588213920593,-134.21630859375,172.79052734375,-198.30322265625
6.633677005767822,-1269953105,0,3.453284978866577,-1.8135746717453003,0.6016122102737427,177.42919921875,137.451171875,535.21728515625
6.6337809562683105,-1269953086,0,4.099280834197998,-2.0552737712860107,0.2463875710964203,299.6826171875,148.74267578125,527.28271484375
6.6487390995025635,-1269953086,1,-1.5074321031570435,0.5266016721725464,-0.15845035016536713,-167.1142578125,132.26318359375,-235.65673828125
6.664129972457886,-1269953050,0,4.631263256072998,-2.2669436931610107,-0.4384268820285797,410.58349609375,351.6845703125,491.943359375
6.692259073257446,-1269953031,0,3.939124822616577,-2.5499026775360107,-0.7196768522262573,461.12060546875,402.587890625,446.6552734375
6.707538843154907,-1269953067,1,-1.8345805406570435,0.9772852659225464,0.15185238420963287,-218.32275390625,53.40576171875,-204.833984375
6.707683086395264,-1269953048,1,-1.7955180406570435,0.9037989377975464,0.04809262230992317,-261.962890625,36.1328125,-136.5966796875
6.707698822021484,-1269953029,1,-1.5630961656570435,0.8635157346725464,0.11327816545963287,-219.05517578125,66.46728515625,-138.18359375
6.708317995071411,-1269953010,1,-0.8294535875320435,0.5222071409225464,0.5668914318084717,-161.9873046875,78.61328125,-237.79296875
6.728790044784546,-1269953012,0,3.442786931991577,-2.7847659587860107,-1.0690420866012573,564.453125,374.1455078125,406.6162109375
6.728797912597656,-1269952993,0,3.367347478866577,-2.5650393962860107,-1.2653311491012573,625.6103515625,368.34716796875,390.625
6.751079797744751,-1269952974,0,3.243812322616577,-2.0877444744110107,-1.4804190397262573,635.986328125,373.96240234375,326.11083984375
6.776838779449463,-1269952974,1,-1.3943949937820435,0.3862208127975464,-0.46997377276420593,-255.9814453125,46.5087890625,-233.70361328125
6.7768471240997314,-1269952955,1,-1.7867289781570435,0.02586923912167549,-0.6118195056915283,-267.2119140625,111.63330078125,-96.49658203125
6.783730983734131,-1269952955,0,2.665199041366577,-1.9009770154953003,-1.3993643522262573,639.404296875,317.07763671875,204.2236328125
6.783857822418213,-1269952936,0,2.251136541366577,-1.5625981092453003,-1.2313956022262573,657.28759765625,276.42822265625,123.4130859375
6.7972447872161865,-1269952936,1,-1.8607035875320435,0.07030282914638519,-0.5207550525665283,-284.7900390625,196.59423828125,-45.83740234375
6.812219858169556,-1269952917,0,2.165199041366577,-1.1539067029953003,-1.3969229459762573,642.88330078125,254.21142578125,93.56689453125
6.830821752548218,-1269952917,1,-2.187851905822754,0.5231837034225464,-0.5376007556915283,-314.94140625,211.181640625,2.3193359375
6.830830097198486,-1269952898,1,-1.9925395250320435,0.05296884849667549,-0.24804995954036713,-389.5263671875,180.84716796875,95.21484375
6.842204809188843,-1269952898,0,1.8917614221572876,-0.5870121717453003,-1.3478506803512573,589.7216796875,246.52099609375,71.59423828125
6.842310905456543,-1269952879,0,1.5467907190322876,-0.3633793294429779,-1.2187002897262573,506.53076171875,244.5068359375,32.5927734375
6.857023000717163,-1269952879,1,-1.6675883531570435,0.3017481565475464,-0.15771792829036713,-352.96630859375,175.10986328125,161.0107421875
6.857145071029663,-1269952860,1,-1.5403910875320435,0.4055079221725464,-0.09253238141536713,-354.736328125,231.0791015625,237.12158203125
6.8809778690338135,-1269952860,0,1.1759411096572876,-0.036963313817977905,-1.2357901334762573,404.541015625,254.69970703125,34.7900390625
6.881574869155884,-1269952841,0,1.0355602502822876,0.1285640299320221,-1.2113760709762573,315.00244140625,261.71875,38.14697265625
6.888079881668091,-1269952841,1,-1.4681254625320435,0.3315333127975464,0.47118833661079407,-367.49267578125,250.6103515625,299.25537109375
6.903035879135132,-1269952822,0,0.7855602502822876,0.1676265299320221,-1.1459463834762573,249.45068359375,258.11767578125,14.70947265625
6.91877293586731,-1269952822,1,-1.0125590562820435,-0.1989842802286148,0.7045867443084717,-323.30322265625,213.9892578125,330.078125
6.918781995773315,-1269952803,1,-0.5665141344070435,-0.07276357710361481,0.6254851818084717,-205.62744140625,237.79296875,312.68310546875
6.935205936431885,-1269952786,0,0.3251110315322876,0.3871089518070221,-0.7655752897262573,197.998046875,140.380859375,35.0341796875
6.9487059116363525,-1269952784,1,-0.6517192125320435,0.1704004853963852,0.29565122723579407,-92.22412109375,337.7685546875,290.58837890625
6.963937997817993,-1269952767,0,0.4181286096572876,0.3619624674320221,-0.3659171164035797,208.31298828125,65.0634765625,33.203125
6.982445955276489,-1269952765,1,-0.7308207750320435,0.2121485322713852,0.15893246233463287,-112.48779296875,327.45361328125,306.09130859375
6.982455015182495,-1269952746,1,-0.5662699937820435,0.09886728227138519,0.15990902483463287,-178.52783203125,286.31591796875,365.966796875
6.993811845779419,-1269952748,0,0.5699840784072876,0.3348628580570221,-0.1327628195285797,209.28955078125,73.974609375,34.423828125
6.993896961212158,-1269952729,0,0.3942028284072876,0.4369136393070221,-0.12495031207799911,185.4248046875,138.85498046875,59.4482421875
7.00872802734375,-1269952710,1,0.016005415469408035,-0.4731541872024536,0.6413543224334717,-277.28271484375,63.53759765625,408.447265625
7.029926776885986,-1269952710,0,-0.1062854453921318,0.4242183268070221,-0.6781729459762573,59.4482421875,187.07275390625,177.24609375
7.029936790466309,-1269952691,0,0.2150036096572876,0.4928218424320221,-0.1991690695285797,58.349609375,135.31494140625,164.306640625
7.038527965545654,-1269952691,1,0.44178667664527893,-0.5573827028274536,0.10229183733463287,-181.09130859375,213.134765625,267.63916015625
7.078086853027344,-1269952672,1,0.21180619299411774,-0.09034170210361481,0.25903013348579407,-49.74365234375,256.2255859375,158.0810546875
7.078099012374878,-1269952653,1,-0.22422896325588226,0.11620126664638519,0.22875668108463287,-222.16796875,147.76611328125,169.43359375
7.0840630531311035,-1269952672,0,0.2660290002822876,0.3448726236820221,-0.054393671452999115,70.1904296875,38.26904296875,131.9580078125
7.084145784378052,-1269952653,0,0.1656872034072876,0.5841304063796997,-0.1977042257785797,73.6083984375,21.30126953125,188.232421875
7.098559856414795,-1269952634,1,0.21913041174411774,-0.1892186552286148,0.010250825434923172,-342.1630859375,51.20849609375,207.275390625
7.113687038421631,-1269952634,0,0.4164196252822876,0.3709956705570221,-0.09321203082799911,17.822265625,48.2177734375,298.88916015625
7.113802909851074,-1269952615,0,0.2941051721572876,0.3250972330570221,-0.07758703082799911,37.7197265625,11.1083984375,301.20849609375
7.131900787353516,-1269952615,1,0.38831987977027893,-0.3291112184524536,0.33031919598579407,-274.2919921875,137.3291015625,149.71923828125
7.1319098472595215,-1269952596,1,0.35243120789527893,0.1713770478963852,0.49804380536079407,-146.30126953125,177.91748046875,64.208984375
7.143738031387329,-1269952596,0,0.5797497034072876,0.3885737955570221,-0.2274893820285797,37.78076171875,-27.7099609375,325.25634765625
7.143893003463745,-1269952577,0,0.9498668909072876,0.2638179361820221,-0.1654776632785797,-31.494140625,50.96435546875,374.57275390625
7.1586549282073975,-1269952577,1,0.26258745789527893,0.2194727510213852,0.15356136858463287,-135.19287109375,147.03369140625,31.1279296875
7.181740045547485,-1269952558,0,1.1605602502822876,0.4332515299320221,0.036182500422000885,-167.29736328125,238.83056640625,405.6396484375
7.187033176422119,-1269952558,1,0.024550337344408035,0.7136133909225464,0.20727230608463287,-219.1162109375,153.86962890625,-27.16064453125
7.187111854553223,-1269952539,1,0.09730423986911774,0.6489161252975464,0.30688169598579407,-336.0595703125,114.501953125,-45.166015625
7.228703022003174,-1269952520,1,0.11659134924411774,0.5056055784225464,0.6315886974334717,-448.3642578125,95.27587890625,-94.66552734375
7.228711843490601,-1269952501,1,0.14100541174411774,0.3029688596725464,1.0383269786834717,-561.58447265625,37.17041015625,-153.564453125
7.234820127487183,-1269952522,0,1.0394665002822876,0.4073726236820221,0.039844609797000885,-183.4716796875,180.0537109375,309.814453125
7.234827041625977,-1269952503,0,1.4086071252822876,0.2799312174320221,0.2065926492214203,-208.43505859375,81.60400390625,273.01025390625
7.234832763671875,-1269952484,0,1.8080211877822876,0.3282710611820221,0.4995613992214203,-244.07958984375,76.66015625,238.58642578125
7.2471489906311035,-1269952482,1,0.10682572424411774,-0.11329092085361481,1.5402801036834717,-709.28955078125,-66.89453125,-228.02734375
7.265812873840332,-1269952465,0,2.103919744491577,0.2760249674320221,0.7341805696487427,-300.72021484375,159.85107421875,155.57861328125
7.282159805297852,-1269952446,1,-0.6334086656570435,-0.7177830934524536,3.4167449474334717,-678.28369140625,-219.17724609375,-259.58251953125
7.293673038482666,-1269952446,0,1.6864391565322876,0.0873042643070221,0.9385262727737427,-385.25390625,248.71826171875,73.42529296875
7.2937541007995605,-1269952427,0,1.6952282190322876,-0.6153324842453003,1.0491219758987427,-431.396484375,215.2099609375,11.77978515625
7.308701992034912,-1269952427,1,-0.9166117906570435,-0.8784276247024536,3.3793914318084717,-322.75390625,-181.33544921875,-113.525390625
7.328896999359131,-1269952408,0,1.6791149377822876,-1.2942875623703003,1.5247079133987427,-406.79931640625,112.6708984375,-112.9150390625
7.328904867172241,-1269952389,0,1.6991344690322876,-1.1783207654953003,1.9873543977737427,-245.91064453125,13.73291015625,-267.27294921875
7.337912082672119,-1269952408,1,-0.21641646325588226,-0.9802342653274536,2.4926726818084717,135.07080078125,-18.5546875,-21.17919921875
7.33802604675293,-1269952389,1,0.11830033361911774,-0.3195897340774536,2.5825164318084717,290.95458984375,-25.146484375,-175.84228515625
7.352154731750488,-1269952370,0,1.5934215784072876,-1.0511234998703003,1.5364266633987427,-115.478515625,39.61181640625,-317.7490234375
7.3779990673065186,-1269952370,1,-0.6246196031570435,0.09276376664638519,1.9658172130584717,135.43701171875,-193.4814453125,-198.8525390625
7.378008127212524,-1269952351,1,-0.5445414781570435,0.1540430635213852,1.8627898693084717,61.279296875,-272.3388671875,-150.0244140625
7.382678031921387,-1269952351,0,1.0492321252822876,-0.8421391248703003,1.1143075227737427,-7.01904296875,66.89453125,-314.208984375
7.382684946060181,-1269952332,0,0.8971325159072876,-0.6856449842453003,0.8611336946487427,27.4658203125,41.56494140625,-297.05810546875
7.398046970367432,-1269952332,1,-0.22276411950588226,-0.006601464003324509,1.0407683849334717,122.55859375,-173.15673828125,-34.11865234375
7.413059949874878,-1269952313,0,1.0113903284072876,-0.6543949842453003,0.8896981477737427,101.806640625,43.212890625,-320.9228515625
7.431908130645752,-1269952313,1,0.009169477969408035,0.4545801877975464,1.6227996349334717,311.03515625,-11.962890625,-32.71484375
7.431962966918945,-1269952294,1,-0.6509867906570435,-0.5727635622024536,1.2919890880584717,378.35693359375,125.48828125,-149.84130859375
7.443885087966919,-1269952294,0,0.9630504846572876,-0.4913090169429779,0.6868172883987427,216.73583984375,58.4716796875,-378.60107421875
7.458404064178467,-1269952275,1,-0.13560591638088226,0.3332422971725464,0.9360320568084717,418.51806640625,77.1484375,-1.708984375
7.479550838470459,-1269952258,0,0.4798961877822876,-0.1939457356929779,0.3660164773464203,332.21435546875,44.49462890625,-343.6279296875
7.479559898376465,-1269952239,0,0.3348766565322876,-0.045264095067977905,0.2170906960964203,322.69287109375,72.509765625,-291.19873046875
7.489007949829102,-1269952256,1,-0.09483443200588226,0.06249033287167549,0.41039732098579407,353.45458984375,57.7392578125,-1.0986328125
7.489015102386475,-1269952237,1,0.07191361486911774,0.2880762815475464,0.16259457170963287,258.056640625,72.998046875,41.748046875
7.503952980041504,-1269952220,0,0.1957165002822876,0.1705562174320221,-0.06953039020299911,277.9541015625,110.65673828125,-241.0888671875
7.528846979141235,-1269952218,1,0.36927691102027893,0.2197168916463852,-0.17602847516536713,236.51123046875,179.50439453125,44.98291015625
7.5343639850616455,-1269952201,0,-0.054771773517131805,0.1978999674320221,-0.2484854757785797,227.05078125,122.9248046875,-193.90869140625
7.5343711376190186,-1269952182,0,-0.2469104528427124,0.1812984049320221,-0.3378409445285797,211.3037109375,114.8681640625,-123.046875
7.548872947692871,-1269952182,1,0.5116108655929565,-0.03296865150332451,-0.6306183338165283,421.7529296875,457.94677734375,-35.33935546875
7.563763856887817,-1269952163,0,-0.3101428747177124,0.3353511393070221,-0.4364737570285797,202.880859375,99.91455078125,-61.279296875
7.583559989929199,-1269952163,1,0.32411089539527893,0.1501368135213852,-0.7382843494415283,499.1455078125,622.1923828125,-36.92626953125
7.583568811416626,-1269952144,1,0.23988236486911774,0.1381739228963852,-0.5363800525665283,433.04443359375,638.916015625,-24.10888671875
7.593736886978149,-1269952144,0,-0.1929553747177124,0.5753413438796997,-0.6027334928512573,172.2412109375,83.984375,-4.7607421875
7.593857049942017,-1269952125,0,-0.018394820392131805,0.7110835313796997,-0.5646475553512573,119.2626953125,66.40625,28.74755859375
7.611011028289795,-1269952125,1,0.08436478674411774,0.1511133760213852,-0.20386050641536713,298.40087890625,599.42626953125,13.48876953125
7.629718065261841,-1269952106,0,0.059241898357868195,0.5794917345046997,-0.3166007101535797,112.060546875,44.43359375,51.3916015625
7.637178897857666,-1269952106,1,0.23304642736911774,0.1342676728963852,0.020993012934923172,146.240234375,504.5166015625,65.7958984375
7.637298822402954,-1269952087,1,0.25355425477027893,0.10814462602138519,0.14696957170963287,39.73388671875,432.861328125,107.23876953125
7.654113054275513,-1269952087,0,0.026038773357868195,0.5624018907546997,-0.2252921164035797,126.64794921875,17.333984375,89.90478515625
7.654128789901733,-1269952068,0,0.1969372034072876,0.6214839220046997,-0.1530264914035797,126.28173828125,3.72314453125,145.5078125
7.6984498500823975,-1269952068,1,0.09876908361911774,-0.06543935835361481,0.26440122723579407,-45.71533203125,391.9677734375,128.84521484375
7.698467016220093,-1269952049,1,-0.06431685388088226,-0.2697850465774536,0.45580747723579407,-157.71484375,353.759765625,161.865234375
7.698474884033203,-1269952030,1,-0.25279340147972107,-0.6233006715774536,0.7348601818084717,-281.43310546875,337.46337890625,163.39111328125
7.71291184425354,-1269952049,0,0.3968883752822876,0.7301265001296997,-0.09882726520299911,98.6328125,-3.96728515625,157.77587890625
7.713023900985718,-1269952030,0,0.4296032190322876,0.7840815782546997,-0.1723136007785797,54.50439453125,-30.57861328125,125.67138671875
7.741565942764282,-1269951994,0,0.5177379846572876,0.5333491563796997,-0.10419835895299911,10.92529296875,-75.439453125,133.36181640625
7.742389917373657,-1269951975,0,0.6879040002822876,0.4391109049320221,-0.039012812077999115,32.77587890625,-61.70654296875,183.59375
7.757382869720459,-1269952011,1,-0.6441508531570435,-1.1110936403274536,1.2011687755584717,-434.08203125,341.30859375,156.55517578125
7.7576000690460205,-1269951992,1,-1.2208110094070435,-1.8593846559524536,1.9531219005584717,-608.0322265625,335.63232421875,170.0439453125
7.757645130157471,-1269951973,1,-1.6290141344070435,-3.448007822036743,3.4333465099334717,-763.427734375,350.76904296875,189.453125
7.779279947280884,-1269951956,0,0.8397594690322876,0.7823725938796997,-0.3520011007785797,26.3671875,-77.63671875,187.07275390625
7.789039134979248,-1269951954,1,-1.0941020250320435,-4.616952896118164,4.958981513977051,-611.6943359375,355.04150390625,52.67333984375
7.803786993026733,-1269951937,0,0.9899059534072876,0.7687007188796997,-0.4577139914035797,-24.658203125,-130.9814453125,143.24951171875
7.803905963897705,-1269951918,0,1.1837536096572876,0.4447261393070221,-0.4000968039035797,-34.97314453125,-178.89404296875,139.5263671875
7.828761100769043,-1269951918,1,-3.139756202697754,-2.384042978286743,4.362790107727051,49.25537109375,-9.21630859375,-552.67333984375
7.834496021270752,-1269951899,0,1.5897594690322876,0.5465327501296997,-0.4906729757785797,4.5166015625,-212.21923828125,166.44287109375
7.834502935409546,-1269951880,0,2.057288885116577,0.8001948595046997,-0.5072745084762573,-3.0517578125,-221.37451171875,144.775390625
7.847229957580566,-1269951899,1,-4.491318702697754,-1.3349705934524536,2.8930633068084717,-7.4462890625,-238.8916015625,-633.85009765625
7.847332715988159,-1269951880,1,-4.568711280822754,-1.1247655153274536,2.2548797130584717,-174.072265625,-298.2177734375,-648.62060546875
7.8623528480529785,-1269951861,0,2.232093572616577,0.6104975938796997,-0.3014639914035797,-53.28369140625,-231.689453125,94.1162109375
7.884925842285156,-1269951861,1,-4.334580421447754,-1.4416600465774536,2.4721648693084717,-327.33154296875,-243.408203125,-718.994140625
7.884934902191162,-1269951842,1,-4.609482765197754,-1.5603123903274536,3.2451140880584717,-263.671875,-167.05322265625,-784.0576171875
7.89207911491394,-1269951842,0,2.100990056991577,0.3141109049320221,-0.11396398395299911,-57.9833984375,-244.07958984375,75.927734375
7.892203092575073,-1269951823,0,1.8536754846572876,-0.052344173192977905,0.2998543679714203,42.8466796875,-275.45166015625,101.74560546875
7.907156944274902,-1269951823,1,-4.742295265197754,-1.5637303590774536,3.3085906505584717,-100.4638671875,-159.24072265625,-790.0390625
7.931015968322754,-1269951804,0,1.6703258752822876,0.0968257486820221,0.08110437542200089,123.291015625,-350.52490234375,115.8447265625
7.93726372718811,-1269951804,1,-4.577012062072754,-1.6408787965774536,2.9853484630584717,-29.11376953125,-205.13916015625,-814.3310546875
7.937356948852539,-1269951785,1,-4.401719093322754,-1.6850682497024536,2.7929656505584717,-36.43798828125,-269.83642578125,-832.33642578125
7.952072858810425,-1269951785,0,0.8505016565322876,-0.2747562825679779,0.051563359797000885,155.6396484375,-430.60302734375,185.72998046875
7.952197790145874,-1269951766,0,0.3043590784072876,-0.3860844075679779,-0.7179678678512573,174.37744140625,-461.42578125,324.27978515625
7.977657079696655,-1269951766,1,-4.032090187072754,-1.7016698122024536,2.6723601818084717,-31.55517578125,-285.46142578125,-834.3505859375
7.982107877731323,-1269951730,0,0.9186168909072876,-0.4900883138179779,-1.7086905241012573,-264.7705078125,-192.3828125,245.42236328125
8.000261783599854,-1269951747,1,-3.944931983947754,-1.4899998903274536,2.1769988536834717,97.47314453125,-227.35595703125,-836.7919921875
8.000273942947388,-1269951728,1,-3.689560890197754,-1.0376073122024536,1.7048308849334717,152.34375,-191.58935546875,-769.53125
8.01383090019226,-1269951711,0,0.4935680627822876,-0.3484867513179779,-1.8231924772262573,-372.314453125,-128.35693359375,265.07568359375
8.031511068344116,-1269951709,1,-3.329453468322754,-0.5625096559524536,1.6171844005584717,174.31640625,-195.12939453125,-718.994140625
8.03151798248291,-1269951690,1,-3.111435890197754,-0.1740819364786148,1.4558074474334717,205.2001953125,-201.96533203125,-665.52734375
8.043074131011963,-1269951692,0,0.9147106409072876,0.046044498682022095,-1.8031729459762573,-308.53271484375,-361.51123046875,274.35302734375
8.043081998825073,-1269951673,0,1.8646618127822876,-0.033301204442977905,-0.2655753195285797,-329.52880859375,-365.66162109375,197.08251953125
8.07890510559082,-1269951654,0,2.146156072616577,0.3595210611820221,-0.09296789020299911,-325.01220703125,-280.029296875,123.47412109375
8.08802580833435,-1269951654,1,-2.707139015197754,0.9016016721725464,0.05419613793492317,142.578125,-168.39599609375,-351.62353515625
8.088150024414062,-1269951635,1,-1.8257914781570435,1.0002344846725464,-0.26562806963920593,62.01171875,-125.42724609375,-259.6435546875
8.10388708114624,-1269951635,0,1.4545055627822876,0.049462467432022095,-0.08124914020299911,-333.6181640625,-330.87158203125,111.26708984375
8.1039559841156,-1269951616,0,1.3370739221572876,0.4161616861820221,-0.07319249957799911,-313.5986328125,-350.76904296875,82.45849609375
8.1283860206604,-1269951616,1,-1.2032328844070435,0.8268946409225464,-0.031008940190076828,71.4111328125,-79.40673828125,-231.689453125
8.135228872299194,-1269951597,0,0.9862438440322876,0.3639155924320221,-0.12006749957799911,-305.96923828125,-329.4677734375,58.59375
8.148772716522217,-1269951597,1,-1.2005473375320435,1.1452540159225464,0.04003598168492317,108.7646484375,-53.7109375,-210.8154296875
8.148881912231445,-1269951578,1,-0.8091899156570435,1.3000391721725464,0.36156919598579407,141.4794921875,-47.05810546875,-161.07177734375
8.163707971572876,-1269951578,0,0.5270153284072876,0.2188960611820221,-0.3620108664035797,-312.744140625,-334.8388671875,24.4140625
8.163767099380493,-1269951559,0,0.2428356409072876,0.049462467432022095,-0.4484366476535797,-307.31201171875,-367.61474609375,4.57763671875
8.184414863586426,-1269951559,1,-0.25792035460472107,1.0153712034225464,0.6782195568084717,92.28515625,-100.89111328125,-126.77001953125
8.184422969818115,-1269951540,1,0.31532183289527893,0.4484766721725464,0.43993833661079407,13.36669921875,-144.6533203125,-168.76220703125
8.193733930587769,-1269951540,0,0.055335648357868195,-0.1048344075679779,-0.3581046164035797,-260.1318359375,-386.8408203125,35.5224609375
8.193841934204102,-1269951521,0,-0.040611617267131805,-0.0647953450679779,-0.3734854757785797,-216.9189453125,-380.92041015625,65.85693359375
8.207077741622925,-1269951521,1,0.31825152039527893,0.3649805784225464,0.19994808733463287,-46.630859375,-136.1083984375,-181.21337890625
8.230823993682861,-1269951502,0,-0.036461226642131805,0.0020991861820220947,-0.4469718039035797,-188.8427734375,-358.5205078125,102.783203125
8.237835884094238,-1269951502,1,0.45033159852027893,0.1816309541463852,0.09765316545963287,-87.58544921875,-102.9052734375,-167.724609375
8.237956762313843,-1269951483,1,0.40296831727027893,0.06932626664638519,0.26977232098579407,-111.75537109375,-96.6796875,-177.42919921875
8.277796030044556,-1269951464,1,0.23304642736911774,0.10985361039638519,0.38964536786079407,-135.3759765625,-109.4970703125,-200.98876953125
8.282701969146729,-1269951466,0,0.1312633752822876,0.0826655924320221,-0.4972647726535797,-246.337890625,-285.7666015625,161.68212890625
8.282735109329224,-1269951447,0,0.1429821252822876,-0.007178157567977905,-0.3268546164035797,-281.06689453125,-260.19287109375,183.9599609375
8.282856941223145,-1269951428,0,0.2513805627822876,0.033837467432022095,0.09575281292200089,-263.427734375,-267.333984375,195.49560546875
8.29706597328186,-1269951445,1,0.007216352969408035,0.2236231416463852,0.5165984630584717,-170.34912109375,-122.802734375,-202.63671875
8.297160863876343,-1269951426,1,-0.052598100155591965,0.3176172971725464,0.5378386974334717,-209.8388671875,-115.29541015625,-156.25
8.313892126083374,-1269951409,0,0.3465954065322876,0.061669498682022095,0.2764168679714203,-231.4453125,-266.78466796875,193.4814453125
8.331542015075684,-1269951390,1,-0.23033247888088226,0.3188380002975464,0.44311216473579407,-212.58544921875,-36.68212890625,-94.42138671875
8.346549987792969,-1269951390,0,0.4735485315322876,-0.048682063817977905,0.3857918679714203,-204.65087890625,-238.34228515625,225.89111328125
8.346564769744873,-1269951371,0,0.5751110315322876,-0.2547367513179779,0.6709481477737427,-210.693359375,-149.23095703125,350.09765625
8.358550071716309,-1269951371,1,-0.26036176085472107,0.3317774534225464,0.5810515880584717,-263.61083984375,-51.1474609375,-53.7109375
8.379914999008179,-1269951352,0,0.7440563440322876,-0.4827640950679779,1.1255379915237427,-177.978515625,-42.41943359375,500.30517578125
8.388633728027344,-1269951352,1,-0.19835005700588226,0.4238184690475464,0.8083465099334717,-310.302734375,-64.453125,19.10400390625
8.388644933700562,-1269951333,1,-0.12144576013088226,0.2968653440475464,1.1391570568084717,-300.29296875,-28.50341796875,73.73046875
8.40227198600769,-1269951333,0,0.9303356409072876,-0.6592777967453003,1.2427254915237427,-82.3974609375,28.564453125,593.26171875
8.402331829071045,-1269951314,0,1.3204723596572876,-0.9092777967453003,1.1907235383987427,57.31201171875,116.51611328125,706.60400390625
8.426917791366577,-1269951314,1,-0.062119584530591965,0.06493173539638519,1.4460418224334717,-278.80859375,12.20703125,111.51123046875
8.434330940246582,-1269951295,0,2.147376775741577,-1.2852543592453003,1.0684090852737427,157.28759765625,261.77978515625,845.458984375
8.447906970977783,-1269951295,1,0.040175337344408035,-0.1286717802286148,1.8652312755584717,-257.01904296875,29.23583984375,154.541015625
8.448065996170044,-1269951276,1,0.06385697424411774,-0.2102147489786148,2.0117156505584717,-220.21484375,11.5966796875,206.84814453125
8.462906122207642,-1269951276,0,3.109779119491577,-1.5486820936203003,0.9673348665237427,198.2421875,373.046875,924.31640625
8.463006019592285,-1269951257,0,3.808265447616577,-1.4344242811203003,0.7239266633987427,218.20068359375,339.66064453125,832.275390625
8.491270780563354,-1269951257,1,0.025038618594408035,-0.4936619997024536,1.9753386974334717,-180.7861328125,20.44677734375,276.18408203125
8.49222993850708,-1269951238,0,2.544349431991577,-1.0091313123703003,0.3193856179714203,281.55517578125,85.99853515625,348.2666015625
8.507237911224365,-1269951238,1,0.07386673986911774,-0.7771092653274536,2.0747039318084717,-112.4267578125,63.29345703125,305.11474609375
8.507312774658203,-1269951219,1,-0.020127397030591965,-0.9860936403274536,1.9882781505584717,20.01953125,92.7734375,297.79052734375
8.531786918640137,-1269951202,0,2.406409978866577,-0.3101566731929779,0.3621102273464203,378.90625,-225.40283203125,-89.4775390625
8.53732705116272,-1269951200,1,0.16224564611911774,-0.8278905153274536,1.9514129161834717,163.0859375,89.35546875,255.67626953125
8.537451028823853,-1269951181,1,-0.12779341638088226,-0.7614842653274536,1.9194304943084717,264.892578125,83.06884765625,205.9326171875
8.551969051361084,-1269951183,0,2.401283025741577,0.3036128580570221,-0.4132803976535797,346.00830078125,-46.630859375,-80.87158203125
8.552071809768677,-1269951164,0,1.6839977502822876,0.2848140299320221,-0.7616690397262573,232.5439453125,51.6357421875,-63.41552734375
8.578566789627075,-1269951162,1,-0.22178755700588226,-0.6423436403274536,1.9274871349334717,345.76416015625,91.30859375,181.2744140625
8.583754062652588,-1269951145,0,1.1683727502822876,0.1102534830570221,-0.3085440695285797,77.81982421875,79.9560546875,-116.51611328125
8.598832845687866,-1269951126,1,-0.40098676085472107,-0.2348729521036148,1.5363738536834717,480.3466796875,21.91162109375,93.81103515625
8.612690925598145,-1269951126,0,0.7926403284072876,-0.1668461263179779,0.054248906672000885,100.341796875,0.3662109375,-209.8388671875
8.612791061401367,-1269951107,0,0.4645153284072876,-0.035986751317977905,-0.004833124577999115,158.5693359375,-100.4638671875,-268.310546875
8.631287097930908,-1269951107,1,-0.5804301500320435,-0.04834951087832451,1.1127898693084717,494.2626953125,-30.57861328125,54.50439453125
8.643748760223389,-1269951088,0,0.1207653358578682,0.0675288736820221,-0.056102655827999115,182.7392578125,-189.5751953125,-282.16552734375
8.643824815750122,-1269951069,0,-0.0977405235171318,0.1458980143070221,-0.061962030827999115,172.9736328125,-281.43310546875,-265.19775390625
8.657030820846558,-1269951088,1,-0.49913129210472107,-0.06055654212832451,0.9592254161834717,493.408203125,-68.4814453125,35.82763671875
8.657073974609375,-1269951069,1,-0.8829203844070435,0.05125986412167549,0.14379574358463287,404.60205078125,-96.6796875,52.42919921875
8.68087911605835,-1269951050,0,-0.1375354528427124,0.3231441080570221,0.022266484797000885,131.04248046875,-336.7919921875,-230.52978515625
8.68861198425293,-1269951050,1,-0.25669965147972107,0.05882822349667549,0.12402035295963287,376.5869140625,-118.896484375,4.2724609375
8.688666820526123,-1269951031,1,-0.33946332335472107,-0.02759755775332451,-0.10571597516536713,350.341796875,-143.06640625,-39.0625
8.703711032867432,-1269951031,0,0.038489945232868195,0.4613277018070221,0.1929207742214203,62.3779296875,-353.1494140625,-186.8896484375
8.703801155090332,-1269951012,0,0.1832653284072876,0.6488276720046997,0.2454110085964203,17.7001953125,-334.04541015625,-188.17138671875
8.728392839431763,-1269951012,1,-0.28599652647972107,-0.04126943275332451,-0.32007142901420593,310.24169921875,-169.61669921875,-92.95654296875
8.735476016998291,-1269950993,0,0.2076793909072876,0.7516108751296997,0.2173348367214203,-55.6640625,-298.15673828125,-200.50048828125
8.748741865158081,-1269950993,1,-0.33580121397972107,-0.009531151503324509,-0.49853822588920593,286.7431640625,-169.37255859375,-134.521484375
8.748825788497925,-1269950974,1,-0.34947308897972107,0.03978525474667549,-0.5749542713165283,267.822265625,-144.53125,-152.16064453125
8.762992858886719,-1269950974,0,-0.055504195392131805,0.6224604845046997,0.2109871804714203,-118.71337890625,-274.10888671875,-200.62255859375
8.791479110717773,-1269950938,0,-0.1487659215927124,0.4803706705570221,0.6033211946487427,-175.78125,-321.533203125,-97.59521484375
8.792455911636353,-1269950919,0,0.1464000940322876,0.5819331407546997,0.7725106477737427,-191.162109375,-334.77783203125,-70.37353515625
8.807346820831299,-1269950955,1,-0.39585980772972107,0.12328134477138519,-0.5815460681915283,229.06494140625,-107.2998046875,-162.29248046875
8.807499885559082,-1269950936,1,-0.39805707335472107,0.2145899385213852,-0.5444366931915283,186.6455078125,-80.13916015625,-166.8701171875
8.808189868927002,-1269950917,1,-0.37071332335472107,0.3063868284225464,-0.49902650713920593,157.53173828125,-65.97900390625,-170.22705078125
8.832725048065186,-1269950900,0,0.4545055627822876,0.6686030626296997,0.8337899446487427,-241.63818359375,-304.99267578125,-59.5703125
8.838510990142822,-1269950898,1,-0.36827191710472107,0.3669337034225464,-0.5029327869415283,135.6201171875,-57.12890625,-171.56982421875
8.85359001159668,-1269950881,0,0.6783825159072876,0.3785640299320221,0.9807626008987427,-321.71630859375,-248.046875,-49.49951171875
