sync_time,timestamp_ms,device_id,ax,ay,az,gx,gy,gz
0.006461143493652344,-1268248278,0,0.6360960602760315,0.5577968955039978,0.4655134379863739,40.34423828125,48.33984375,-145.5078125
0.006469249725341797,-1268248259,0,0.5787230134010315,0.5455898642539978,0.5387556552886963,39.55078125,53.5888671875,-135.19287109375
0.012508153915405273,-1268248261,1,-0.5125691294670105,0.7726837992668152,0.2774677276611328,92.34619140625,95.0927734375,90.27099609375
0.04353928565979004,-1268248225,1,-0.4693562388420105,0.7157990336418152,0.2318134307861328,58.41064453125,75.62255859375,85.02197265625
0.06537699699401855,-1268248223,0,0.5020628571510315,0.6293300986289978,0.5126326084136963,51.20849609375,54.13818359375,-104.30908203125
0.06549501419067383,-1268248204,0,0.4300414025783539,0.6461758017539978,0.4999372661113739,48.583984375,55.908203125,-97.59521484375
0.072479248046875,-1268248206,1,-0.3887898325920105,0.6755158305168152,0.1602802276611328,46.08154296875,62.68310546875,78.79638671875
0.0955970287322998,-1268248185,0,0.3392210900783539,0.6561855673789978,0.4567243754863739,48.9501953125,55.72509765625,-88.43994140625
0.09569811820983887,-1268248166,0,0.3109007775783539,0.6708340048789978,0.4049665629863739,41.19873046875,47.607421875,-82.6416015625
0.10320520401000977,-1268248187,1,-0.3111531138420105,0.6515900492668152,0.08899117261171341,50.1708984375,62.80517578125,70.37353515625
0.10331225395202637,-1268248168,1,-0.2691609263420105,0.6686798930168152,0.06360054761171341,52.978515625,73.486328125,66.22314453125
0.13944602012634277,-1268248147,0,0.2960081994533539,0.6510586142539978,0.4017927348613739,36.62109375,39.61181640625,-70.4345703125
0.1412489414215088,-1268248149,1,-0.2408406138420105,0.6872345805168152,0.02893257886171341,57.67822265625,86.3037109375,62.92724609375
0.14125514030456543,-1268248130,1,-0.2322956919670105,0.7133576273918152,0.02697945386171341,54.931640625,85.02197265625,60.11962890625
0.1553962230682373,-1268248128,0,0.2481566220521927,0.6639980673789978,0.3927595317363739,39.6728515625,41.80908203125,-56.7626953125
0.15545415878295898,-1268248109,0,0.2652464807033539,0.6896328330039978,0.3637067973613739,37.59765625,43.15185546875,-49.31640625
0.1624891757965088,-1268248111,1,-0.2152058482170105,0.7324005961418152,0.006715781986713409,46.81396484375,75.74462890625,55.23681640625
0.1922011375427246,-1268248090,0,0.2706175744533539,0.6991543173789978,0.3353864848613739,37.2314453125,41.19873046875,-45.22705078125
0.1927201747894287,-1268248092,1,-0.1905476450920105,0.7350861430168152,-0.02795218676328659,39.73388671875,66.58935546875,52.55126953125
0.19281816482543945,-1268248073,1,-0.1219441294670105,0.7128693461418152,-0.07067679613828659,36.865234375,66.71142578125,48.33984375
0.21529006958007812,-1268248071,0,0.2591429650783539,0.7233242392539978,0.2882673442363739,30.82275390625,45.47119140625,-38.02490234375
0.2154543399810791,-1268248052,0,0.2523070275783539,0.6862148642539978,0.2606794536113739,22.76611328125,46.9970703125,-26.06201171875
0.22257614135742188,-1268248054,1,-0.0667683482170105,0.6974884867668152,-0.06017874926328659,41.44287109375,73.30322265625,42.96875
0.24561405181884766,-1268248033,0,0.2576781213283539,0.6808437705039978,0.2326032817363739,17.333984375,41.259765625,-14.46533203125
0.24573516845703125,-1268248014,0,0.2520628869533539,0.6576504111289978,0.1669294536113739,21.05712890625,40.58837890625,-8.97216796875
0.25399327278137207,-1268248035,1,-0.060664836317300797,0.7336212992668152,-0.01769828051328659,38.330078125,81.298828125,35.46142578125
0.25400328636169434,-1268248016,1,-0.0860554575920105,0.7595002055168152,0.01233101636171341,26.7333984375,78.9794921875,33.02001953125
0.2752671241760254,-1268247995,0,0.2972289025783539,0.6347011923789978,0.1649763286113739,31.005859375,24.35302734375,-4.5166015625
0.2907741069793701,-1268247997,1,-0.0877644419670105,0.7511994242668152,0.02990914136171341,7.62939453125,64.8193359375,27.40478515625
0.30533599853515625,-1268247959,0,0.3589964807033539,0.7076992392539978,0.1049177423119545,29.35791015625,1.708984375,16.66259765625
0.3125431537628174,-1268247961,1,-0.044307414442300797,0.7153107523918152,0.08239937573671341,-39.1845703125,28.50341796875,9.21630859375
0.3418443202972412,-1268247940,0,0.5928831696510315,0.7850918173789978,-0.0486467108130455,2.01416015625,-0.54931640625,13.916015625
0.34409594535827637,-1268247942,1,-0.1070515513420105,0.3652130663394928,-0.2537822723388672,-47.9736328125,24.96337890625,-6.4697265625
0.34410524368286133,-1268247923,1,0.1317179799079895,0.5961701273918152,-0.04015921801328659,-0.8544921875,35.09521484375,-29.11376953125
0.36535215377807617,-1268247921,0,0.3919554650783539,0.8724941611289978,-0.0337541326880455,-22.216796875,13.61083984375,16.4794921875
0.36547303199768066,-1268247902,0,0.3289671838283539,0.6867031455039978,-0.004213117063045502,-59.2041015625,1.15966796875,30.70068359375
0.372481107711792,-1268247904,1,0.039188679307699203,0.7870880961418152,0.04821968823671341,15.380859375,51.33056640625,-13.3056640625
0.4021790027618408,-1268247885,1,-0.0657917857170105,0.7602326273918152,0.06994820386171341,4.57763671875,47.119140625,-10.43701171875
0.40314698219299316,-1268247866,1,-0.029414836317300797,0.6760041117668152,0.05163765698671341,-5.79833984375,22.27783203125,-26.06201171875
0.42728424072265625,-1268247883,0,0.4007445275783539,0.6437343955039978,0.0763532891869545,-67.32177734375,-9.82666015625,41.8701171875
0.4272952079772949,-1268247864,0,0.4275999963283539,0.6117519736289978,0.1954939067363739,-61.6455078125,-12.451171875,54.19921875
0.4273030757904053,-1268247845,0,0.4249144494533539,0.5736660361289978,0.2269880473613739,-56.396484375,-12.02392578125,65.73486328125
0.4424901008605957,-1268247847,1,-0.025264445692300797,0.6862580180168152,0.06311226636171341,-6.34765625,5.4931640625,-45.10498046875
0.46206116676330566,-1268247828,1,-0.010616008192300797,0.7270295023918152,0.08264351636171341,3.11279296875,0.9765625,-55.0537109375
0.4629650115966797,-1268247809,1,-0.020869914442300797,0.6808869242668152,0.10315132886171341,9.46044921875,5.615234375,-54.19921875
0.4903709888458252,-1268247826,0,0.4390746057033539,0.5446133017539978,0.2013532817363739,-54.50439453125,-12.939453125,74.0966796875
0.49037909507751465,-1268247807,0,0.4659300744533539,0.5553554892539978,0.1832868754863739,-62.3779296875,-14.0380859375,73.18115234375
0.4903841018676758,-1268247788,0,0.5638304352760315,0.5448574423789978,0.1437360942363739,-79.28466796875,6.9580078125,75.25634765625
0.49317121505737305,-1268247790,1,-0.0858113169670105,0.5846955180168152,0.1651630401611328,16.66259765625,19.4091796875,-55.2978515625
0.49326610565185547,-1268247771,1,-0.1678425669670105,0.6594025492668152,0.2784442901611328,4.638671875,18.9208984375,-68.66455078125
0.5152890682220459,-1268247769,0,0.6216917634010315,0.4730801284313202,0.1583845317363739,-95.458984375,14.2822265625,87.5244140625
0.515357255935669,-1268247750,0,0.6180296540260315,0.3766445815563202,0.1871931254863739,-99.06005859375,23.3154296875,101.37939453125
0.52254319190979,-1268247752,1,-0.2654988169670105,0.5803009867668152,0.3792743682861328,-32.53173828125,1.77001953125,-86.5478515625
0.544424295425415,-1268247731,0,0.6629515290260315,0.2750820815563202,0.1661970317363739,-88.43994140625,18.6767578125,110.16845703125
0.552483081817627,-1268247733,1,-0.2518269419670105,0.5409943461418152,0.4024677276611328,-63.1103515625,-17.578125,-112.79296875
0.5739870071411133,-1268247695,0,0.7757444977760315,0.152523472905159,0.1437360942363739,-70.00732421875,-7.568359375,141.11328125
0.5906391143798828,-1268247697,1,-0.2891804575920105,0.3561798632144928,0.4730243682861328,-65.0634765625,-26.91650390625,-156.8603515625
0.605316162109375,-1268247676,0,0.8550902009010315,0.035335976630449295,0.2250349223613739,-94.05517578125,-27.9541015625,148.49853515625
0.6054682731628418,-1268247657,0,0.8882933259010315,-0.025943320244550705,0.1786482036113739,-141.66259765625,-34.48486328125,152.64892578125
0.6127750873565674,-1268247678,1,-0.3502156138420105,0.4201447069644928,0.5689716339111328,-38.02490234375,-20.20263671875,-177.734375
0.6129820346832275,-1268247659,1,-0.7445027232170105,0.4574982225894928,0.5062274932861328,-26.18408203125,-18.9208984375,-190.0634765625
0.6413311958312988,-1268247638,0,0.9832640290260315,-0.2844882309436798,0.2250349223613739,-175.4150390625,-14.09912109375,164.00146484375
0.6434321403503418,-1268247640,1,-0.6917683482170105,0.3212677538394928,0.5897235870361328,-13.671875,-68.78662109375,-196.533203125
0.6434390544891357,-1268247621,1,-0.5494343638420105,0.2905060350894928,0.6639423370361328,3.60107421875,-97.71728515625,-194.51904296875
0.6950051784515381,-1268247619,0,1.0440551042556763,-0.4031405746936798,0.1342146098613739,-173.828125,-23.13232421875,147.0947265625
0.6953892707824707,-1268247600,0,1.0882445573806763,-0.5957675576210022,0.0665876641869545,-161.68212890625,-47.30224609375,127.99072265625
0.6955430507659912,-1268247581,0,1.0379515886306763,-0.6609531044960022,0.0724470391869545,-122.61962890625,-80.6884765625,132.8125
0.696540117263794,-1268247562,0,1.1609984636306763,-0.5449863076210022,-0.0252092108130455,-111.4501953125,-148.681640625,172.4853515625
0.7025191783905029,-1268247602,1,-0.5643269419670105,0.2363068163394928,0.6607685089111328,40.1611328125,-91.36962890625,-198.05908203125
0.702660083770752,-1268247583,1,-0.8548542857170105,0.1845490038394928,0.7855243682861328,76.0498046875,-71.22802734375,-218.68896484375
0.7036862373352051,-1268247564,1,-1.3172566890716553,0.2243439257144928,0.7884540557861328,99.67041015625,-100.76904296875,-257.080078125
0.7251300811767578,-1268247543,0,1.5840941667556763,-0.8030429482460022,-0.1646135151386261,-108.5205078125,-197.1435546875,199.21875
0.7427902221679688,-1268247545,1,-1.3460652828216553,0.1454865038394928,0.8289813995361328,116.2109375,-156.8603515625,-298.095703125
0.755305290222168,-1268247524,0,1.7637816667556763,-0.9331699013710022,-0.1521623432636261,-101.62353515625,-196.10595703125,179.50439453125
0.7554433345794678,-1268247505,0,1.8506957292556763,-1.0066561698913574,0.013609148561954498,-109.619140625,-186.58447265625,184.6923828125
0.7628090381622314,-1268247526,1,-1.5030477046966553,0.034158382564783096,0.7713642120361328,166.07666015625,-194.2138671875,-322.32666015625
0.762902021408081,-1268247507,1,-1.7806355953216553,0.039041195064783096,0.5833759307861328,232.2998046875,-228.271484375,-323.42529296875
0.7924971580505371,-1268247486,0,1.9312621355056763,-1.1799960136413574,0.1141950860619545,-145.81298828125,-172.607421875,227.9052734375
0.8161251544952393,-1268247467,0,1.9344359636306763,-1.2327303886413574,0.3583357036113739,-175.47607421875,-169.37255859375,283.935546875
0.8227541446685791,-1268247488,1,-2.1046102046966553,0.2306915819644928,0.4925556182861328,240.966796875,-271.97265625,-315.73486328125
0.8228683471679688,-1268247469,1,-2.1993367671966553,0.2148224413394928,0.4825458526611328,228.6376953125,-306.0302734375,-328.857421875
0.845095157623291,-1268247431,0,2.3409299850463867,-1.4480624198913574,0.3873884379863739,-198.6083984375,-181.15234375,302.30712890625
0.8525681495666504,-1268247433,1,-2.3953816890716553,0.0656525194644928,0.2489032745361328,336.97509765625,-263.48876953125,-365.72265625
0.8526871204376221,-1268247414,1,-2.5396687984466553,0.2338654100894928,0.06482125073671341,418.9453125,-199.21875,-304.931640625
0.8881621360778809,-1268247412,0,2.5753049850463867,-1.6963534355163574,0.3690778911113739,-206.11572265625,-194.51904296875,299.49951171875
0.8881702423095703,-1268247393,0,2.8123655319213867,-1.9644198417663574,0.3241560161113739,-186.46240234375,-227.84423828125,304.19921875
0.8907051086425781,-1268247395,1,-2.4774129390716553,0.5639435648918152,-0.005979530513286591,453.43017578125,-150.69580078125,-208.92333984375
0.9054603576660156,-1268247374,0,3.0552854537963867,-1.7622714042663574,0.3532087504863739,-152.89306640625,-264.0380859375,297.4853515625
0.9055390357971191,-1268247355,0,3.1680784225463867,-1.6089510917663574,0.5372908115386963,-157.16552734375,-256.103515625,283.935546875
0.9126482009887695,-1268247376,1,-2.6468465328216553,0.5588166117668152,0.1778583526611328,406.6162109375,-103.759765625,-135.3759765625
0.9127790927886963,-1268247357,1,-2.7947957515716553,0.2702423632144928,0.3214130401611328,373.046875,-86.181640625,-113.037109375
0.9420919418334961,-1268247336,0,3.2164182662963867,-1.5108065605163574,0.7682478427886963,-217.041015625,-191.58935546875,272.27783203125
0.9442391395568848,-1268247338,1,-2.9190633296966553,-0.2768767774105072,0.3028583526611328,387.6953125,-89.90478515625,-86.24267578125
0.9657232761383057,-1268247317,0,2.9669065475463867,-1.4151034355163574,0.8746931552886963,-263.3056640625,-107.91015625,260.009765625
0.9657931327819824,-1268247298,0,2.5975217819213867,-1.2622714042663574,0.8507673740386963,-267.822265625,-67.56591796875,193.359375
0.9730150699615479,-1268247319,1,-2.4515340328216553,-0.5520232319831848,0.2476825714111328,445.37353515625,-94.6044921875,-58.59375
0.9731640815734863,-1268247300,1,-2.1988484859466553,-0.7226775288581848,0.1287860870361328,475.64697265625,-50.4150390625,-23.92578125
0.9976832866668701,-1268247279,0,2.3592405319213867,-1.2168612480163574,0.7931501865386963,-257.2021484375,-55.17578125,145.01953125
1.002681016921997,-1268247281,1,-2.1180379390716553,-1.0366424322128296,0.1602802276611328,475.09765625,-18.798828125,-26.06201171875
1.0028142929077148,-1268247262,1,-1.7720906734466553,-1.2114471197128296,0.2091083526611328,473.9990234375,15.625,-60.85205078125
1.0252573490142822,-1268247260,0,2.0562620162963867,-1.2456698417663574,0.7714216709136963,-250.18310546875,-32.71484375,130.55419921875
1.0253241062164307,-1268247241,0,1.8875609636306763,-0.8340488076210022,0.5399763584136963,-281.494140625,-48.03466796875,102.47802734375
1.041701078414917,-1268247243,1,-1.6771199703216553,-1.0656951665878296,0.2413349151611328,507.38525390625,77.94189453125,-83.740234375
1.0555171966552734,-1268247222,0,1.9005004167556763,-0.6892734169960022,0.5480329990386963,-267.51708984375,-85.63232421875,70.00732421875
1.062671184539795,-1268247224,1,-1.7457234859466553,-0.4262908399105072,-0.01476859301328659,461.85302734375,121.7041015625,-99.2431640625
1.0627870559692383,-1268247205,1,-1.6102254390716553,-0.2192595899105072,-0.1690654754638672,289.9169921875,145.263671875,-113.09814453125
1.0931131839752197,-1268247203,0,1.9520140886306763,-0.5952792763710022,0.5243513584136963,-261.5966796875,-99.365234375,35.15625
1.1144821643829346,-1268247167,0,1.5474730730056763,-0.6150546669960022,0.5724470615386963,-247.37548828125,-82.70263671875,-19.71435546875
1.1153841018676758,-1268247148,0,1.3255492448806763,-0.4639315903186798,0.1691267192363739,-249.93896484375,-91.552734375,-26.85546875
1.1226370334625244,-1268247169,1,-1.1107137203216553,-0.5119841694831848,-0.08483695238828659,121.7041015625,266.29638671875,-118.0419921875
1.1227531433105469,-1268247150,1,-1.4173543453216553,-0.2138884961605072,0.05871773511171341,95.03173828125,355.712890625,-103.08837890625
1.145071029663086,-1268247129,0,1.2962523698806763,-0.3457675278186798,-0.1499650776386261,-299.072265625,-93.3837890625,-46.81396484375
1.1526870727539062,-1268247131,1,-2.0946004390716553,0.3229767382144928,0.3975849151611328,61.82861328125,355.8349609375,-26.4892578125
1.1527941226959229,-1268247112,1,-1.9957234859466553,0.3967072069644928,0.2664813995361328,-22.5830078125,324.8291015625,12.26806640625
1.1885371208190918,-1268247110,0,1.2213011980056763,-0.4702792465686798,-0.1997697651386261,-336.0595703125,-95.8251953125,-86.85302734375
1.2047662734985352,-1268247091,0,1.0882445573806763,-0.6602206826210022,-0.0820939764380455,-352.5390625,-84.9609375,-102.5390625
1.2063751220703125,-1268247072,0,0.8838987946510315,-0.6607089638710022,0.0328962579369545,-344.6044921875,-76.416015625,-106.26220703125
1.213191270828247,-1268247093,1,-1.9954793453216553,-0.044943179935216904,0.4796161651611328,-33.99658203125,324.52392578125,36.4990234375
1.2133522033691406,-1268247074,1,-2.0106160640716553,0.1955353319644928,0.4561786651611328,24.5361328125,335.51025390625,49.1943359375
1.2133700847625732,-1268247055,1,-1.7398641109466553,0.5529572367668152,0.08410836011171341,0.9765625,342.22412109375,53.52783203125
1.2420520782470703,-1268247053,0,0.7488890290260315,-0.4700351059436798,0.1705915629863739,-316.95556640625,-83.0078125,-118.1640625
1.2420599460601807,-1268247034,0,0.6187620759010315,-0.242496058344841,0.2069685161113739,-308.837890625,-92.7734375,-129.57763671875
1.2441699504852295,-1268247036,1,-1.5948445796966553,0.5722443461418152,-0.2828350067138672,-69.82421875,394.287109375,86.73095703125
1.2656822204589844,-1268247015,0,0.4593382775783539,-0.068912073969841,0.1486189067363739,-320.37353515625,-97.16796875,-138.48876953125
1.2657809257507324,-1268246996,0,0.2635374963283539,-0.028873007744550705,0.0382673516869545,-336.12060546875,-104.4921875,-137.63427734375
1.2729032039642334,-1268247017,1,-1.9324910640716553,0.2389923632144928,-0.2440166473388672,-101.07421875,432.861328125,124.93896484375
1.272989273071289,-1268246998,1,-1.8555867671966553,-0.038839664310216904,0.11853218823671341,-98.7548828125,403.62548828125,110.3515625
1.2975032329559326,-1268246977,0,0.10655505955219269,-0.157046839594841,0.0451032891869545,-335.8154296875,-119.2626953125,-136.16943359375
1.3026983737945557,-1268246979,1,-1.5828816890716553,-0.1062224805355072,0.2625751495361328,-63.04931640625,380.18798828125,86.12060546875
1.3031930923461914,-1268246960,1,-1.2821004390716553,0.018777523189783096,0.1502704620361328,-24.90234375,372.802734375,64.88037109375
1.3391673564910889,-1268246958,0,0.07188709080219269,-0.246890589594841,0.0917341485619545,-317.56591796875,-133.97216796875,-132.75146484375
1.3391799926757812,-1268246939,0,0.017687875777482986,-0.132388636469841,0.1510603129863739,-252.62451171875,-137.939453125,-127.44140625
1.3411099910736084,-1268246941,1,-1.1019246578216553,0.1967560350894928,0.01013375073671341,-5.0048828125,384.27734375,70.49560546875
1.355168104171753,-1268246903,0,-0.1539429873228073,0.3549160659313202,0.1801130473613739,-216.85791015625,-77.392578125,-104.67529296875
1.3625452518463135,-1268246905,1,-1.0054891109466553,0.1203400194644928,-0.02795218676328659,-39.00146484375,374.267578125,100.9521484375
1.3941030502319336,-1268246884,0,-0.1507691591978073,0.5228847861289978,0.0570661798119545,-249.81689453125,-32.65380859375,-114.990234375
1.3972060680389404,-1268246886,1,-1.0159871578216553,-0.0793670117855072,0.04724312573671341,-61.34033203125,330.01708984375,88.56201171875
1.4153740406036377,-1268246865,0,-0.1866578310728073,0.5043300986289978,-0.0313127264380455,-297.42431640625,-9.58251953125,-150.2685546875
1.4154670238494873,-1268246846,0,-0.2161988466978073,0.2948574721813202,0.0014021173119544983,-323.66943359375,1.708984375,-184.5703125
1.422619104385376,-1268246867,1,-0.8172566294670105,-0.3017791211605072,0.1644306182861328,-61.82861328125,264.46533203125,61.82861328125
1.4227161407470703,-1268246848,1,-0.5696980357170105,-0.3027556836605072,0.1783466339111328,-54.13818359375,226.806640625,51.08642578125
1.4451172351837158,-1268246827,0,-0.3631714880466461,-0.003482382744550705,0.0328962579369545,-319.82421875,4.8828125,-190.5517578125
1.4529142379760742,-1268246829,1,-0.4056355357170105,-0.2356170117855072,0.1556415557861328,-52.67333984375,216.61376953125,48.583984375
1.4530360698699951,-1268246810,1,-0.3773152232170105,-0.2380584180355072,0.1378192901611328,-60.11962890625,207.45849609375,43.76220703125
1.487941026687622,-1268246808,0,-0.4242066442966461,-0.070132777094841,0.2626325786113739,-289.97802734375,-14.404296875,-159.5458984375
1.487947940826416,-1268246789,0,-0.4430054724216461,0.027523476630449295,0.5226423740386963,-250.6103515625,-34.7900390625,-158.8134765625
1.4904942512512207,-1268246791,1,-0.3250691294670105,-0.2800506055355072,0.10095406323671341,-76.23291015625,188.53759765625,30.70068359375
1.5055251121520996,-1268246770,0,-0.4486207067966461,0.082455113530159,0.6337263584136963,-229.00390625,-47.66845703125,-167.724609375
1.512726068496704,-1268246772,1,-0.2403523325920105,-0.3210662305355072,0.11218453198671341,-91.6748046875,178.7109375,24.2919921875
1.5128731727600098,-1268246753,1,-0.2479206919670105,-0.3896697461605072,0.09924507886171341,-112.73193359375,183.4716796875,10.68115234375
1.5423243045806885,-1268246751,0,-0.3580445349216461,0.005062539130449295,0.7064802646636963,-215.8203125,-63.53759765625,-175.35400390625
1.5423359870910645,-1268246732,0,-0.3394898474216461,-0.168033167719841,0.7885115146636963,-205.6884765625,-76.2939453125,-177.24609375
1.542844295501709,-1268246734,1,-0.3170124888420105,-0.5005095601081848,0.1292743682861328,-117.24853515625,192.9931640625,-18.310546875
1.5656821727752686,-1268246713,0,-0.3514527380466461,-0.2781405746936798,0.8583357334136963,-193.7255859375,-93.07861328125,-179.5654296875
1.5658149719238281,-1268246694,0,-0.5142945647239685,-0.4436679184436798,0.9188826084136963,-172.4853515625,-122.1923828125,-169.0673828125
1.5728759765625,-1268246715,1,-0.3284870982170105,-0.5749724507331848,0.1568622589111328,-101.74560546875,204.40673828125,-46.142578125
1.5729551315307617,-1268246696,1,-0.4024617075920105,-0.5822966694831848,0.1427021026611328,-70.068359375,239.2578125,-95.15380859375
1.6016051769256592,-1268246677,1,-0.5579792857170105,-0.5598357319831848,0.07361031323671341,-49.4384765625,279.78515625,-152.89306640625
1.6365580558776855,-1268246675,0,-0.6834840178489685,-0.6631503701210022,1.0414412021636963,-160.94970703125,-166.44287109375,-123.35205078125
1.6365671157836914,-1268246639,0,-0.6986207365989685,-1.1992831230163574,1.3576033115386963,-97.412109375,-282.8369140625,62.255859375
1.6383881568908691,-1268246641,1,-0.9595906138420105,-0.4856170117855072,0.1483173370361328,-53.77197265625,341.4306640625,-260.8642578125
1.6553170680999756,-1268246620,0,-0.2152222841978073,-1.1912264823913574,1.3959333896636963,-1.5869140625,-273.13232421875,183.53271484375
1.6626570224761963,-1268246622,1,-1.2217977046966553,-0.5168669819831848,0.2694110870361328,-96.8017578125,388.3056640625,-318.78662109375
1.6627330780029297,-1268246603,1,-1.6021687984466553,-0.6181853413581848,0.3387470245361328,-143.98193359375,447.32666015625,-363.8916015625
1.6935222148895264,-1268246601,0,-0.054577749222517014,-0.9924960732460022,1.3339216709136963,37.17041015625,-208.80126953125,262.939453125
1.6935300827026367,-1268246582,0,-0.1659058779478073,-0.8169589638710022,1.1654646396636963,28.25927734375,-124.0234375,333.06884765625
1.6950531005859375,-1268246584,1,-2.3482625484466553,-0.8799040913581848,0.5208759307861328,-166.9921875,492.61474609375,-427.18505859375
1.7446701526641846,-1268246563,0,-0.2774781286716461,-0.9216952919960022,0.8285505771636963,-10.009765625,-93.3837890625,422.2412109375
1.7461020946502686,-1268246544,0,0.09312732517719269,-0.9868808388710022,0.3773786723613739,2.197265625,-131.16455078125,539.6728515625
1.752713918685913,-1268246565,1,-2.8096883296966553,-0.9082244038581848,0.6939716339111328,-137.51220703125,489.92919921875,-486.2060546875
1.7528131008148193,-1268246546,1,-3.0611531734466553,-0.6657927632331848,0.7135028839111328,-138.12255859375,471.0693359375,-501.708984375
1.7542850971221924,-1268246527,1,-3.2730672359466553,-0.5417693257331848,0.6348896026611328,-223.08349609375,439.14794921875,-491.2109375
1.7544093132019043,-1268246508,1,-3.6087605953216553,-0.7998259663581848,0.5828876495361328,-401.0009765625,420.83740234375,-468.26171875
1.7752902507781982,-1268246525,0,0.9107542634010315,-0.7595859169960022,-0.1721818745136261,38.51318359375,-185.9130859375,642.578125
1.7767622470855713,-1268246506,0,2.0323362350463867,-0.3985019028186798,-0.6724259853363037,53.1005859375,-279.78515625,761.04736328125
1.7906861305236816,-1268246489,1,-4.553340435028076,-1.2324432134628296,0.6055927276611328,-504.21142578125,489.19677734375,-448.91357421875
1.8053779602050781,-1268246487,0,3.8011350631713867,-0.2813144028186798,-1.1184709072113037,18.310546875,-486.87744140625,824.21875
1.805511236190796,-1268246468,0,5.731066703796387,0.7943691611289978,-1.3565080165863037,41.80908203125,-615.8447265625,648.13232421875
1.8126959800720215,-1268246470,1,-5.958613872528076,-0.8564665913581848,0.5953388214111328,-453.857421875,614.6240234375,-439.3310546875
1.8128392696380615,-1268246451,1,-6.318233013153076,0.2551056444644928,0.6065692901611328,-403.1982421875,616.02783203125,-387.8173828125
1.84232497215271,-1268246449,0,7.113635063171387,2.2052578926086426,-0.0169084295630455,13.0615234375,-536.865234375,422.8515625
1.8423333168029785,-1268246430,0,6.168322563171387,2.3810391426086426,2.1398298740386963,-189.39208984375,-96.37451171875,169.25048828125
1.8428640365600586,-1268246432,1,-5.540889263153076,-0.4795134961605072,0.5557880401611328,-550.35400390625,556.884765625,-293.76220703125
1.86521315574646,-1268246411,0,3.0421018600463867,0.120785191655159,1.6776716709136963,-281.67724609375,191.95556640625,66.2841796875
1.8724322319030762,-1268246413,1,-4.451045513153076,-1.7055877447128296,1.1207294464111328,-673.88916015625,413.9404296875,-291.9921875
1.8972961902618408,-1268246375,0,-0.1988648623228073,-2.0789217948913574,1.6569197177886963,-230.95703125,158.0810546875,205.26123046875
1.9026641845703125,-1268246377,1,-4.020869731903076,-0.4314177930355072,1.2310810089111328,-503.2958984375,301.45263671875,-59.4482421875
1.9386391639709473,-1268246356,0,2.2903928756713867,-0.9939609169960022,2.1608259677886963,194.4580078125,-81.48193359375,36.31591796875
1.9386491775512695,-1268246337,0,3.1277952194213867,-0.210269495844841,2.0548689365386963,293.212890625,22.88818359375,-157.77587890625
1.9413502216339111,-1268246358,1,-3.7479207515716553,-0.059835758060216904,1.4034442901611328,-497.37548828125,234.86328125,24.71923828125
1.9413621425628662,-1268246339,1,-3.3670613765716553,-0.1203826367855072,1.5147724151611328,-515.2587890625,179.0771484375,79.833984375
1.9551401138305664,-1268246318,0,2.7908811569213867,-1.5542635917663574,2.6605818271636963,255.67626953125,162.17041015625,-168.15185546875
1.962961196899414,-1268246320,1,-3.1539266109466553,-0.6960662007331848,1.6966571807861328,-482.23876953125,82.03125,195.1904296875
1.9630529880523682,-1268246301,1,-2.4703328609466553,-0.9016326069831848,1.2618427276611328,-382.99560546875,17.822265625,212.40234375
1.9935002326965332,-1268246299,0,2.6807737350463867,-1.5239901542663574,1.7597029209136963,274.5361328125,253.72314453125,-162.17041015625
1.9935081005096436,-1268246280,0,2.6124143600463867,-1.2620272636413574,1.3773787021636963,222.22900390625,345.27587890625,-115.8447265625
1.9950931072235107,-1268246282,1,-1.9197957515716553,-0.6750701069831848,0.5567646026611328,-395.5078125,31.43310546875,122.802734375
2.015305995941162,-1268246261,0,2.5027952194213867,-1.5471835136413574,1.0421736240386963,175.96435546875,415.771484375,-40.22216796875
2.0227560997009277,-1268246263,1,-2.7720906734466553,-1.0105193853378296,0.8358173370361328,-402.2216796875,-1.03759765625,224.91455078125
2.022855281829834,-1268246244,1,-2.4327352046966553,-0.8762419819831848,1.1195087432861328,-285.82763671875,-109.9853515625,288.2080078125
2.047445058822632,-1268246242,0,2.5516233444213867,-1.4817538261413574,0.5465681552886963,172.9736328125,433.7158203125,11.29150390625
2.0479700565338135,-1268246223,0,2.6453733444213867,-1.3325839042663574,0.2575056254863739,188.720703125,450.1953125,22.15576171875
2.052615165710449,-1268246225,1,-2.2032430171966553,-1.2671111822128296,1.3460712432861328,-168.64013671875,-254.2724609375,206.298828125
2.0901942253112793,-1268246204,0,2.5767698287963867,-0.9817538857460022,-0.1841447651386261,195.1904296875,458.92333984375,27.34375
2.09020733833313,-1268246185,0,2.4622678756713867,-0.7412753701210022,-0.4666154682636261,166.56494140625,464.4775390625,52.490234375
2.092074155807495,-1268246206,1,-1.8179891109466553,-1.0139373540878296,0.9718036651611328,-53.7109375,-319.2138671875,148.62060546875
2.092085123062134,-1268246187,1,-1.8507039546966553,-0.7385466694831848,0.9302997589111328,36.19384765625,-375.1220703125,140.19775390625
2.113856077194214,-1268246168,1,-1.5504109859466553,-0.4421599805355072,0.5657978057861328,89.2333984375,-376.3427734375,169.00634765625
2.1420609951019287,-1268246166,0,2.3123655319213867,-0.4612460434436798,-0.6602189540863037,139.5263671875,464.90478515625,100.64697265625
2.142069101333618,-1268246147,0,1.8609496355056763,0.2623867690563202,-1.0459611415863037,55.7861328125,458.3740234375,174.6826171875
2.144069194793701,-1268246149,1,-0.9586140513420105,1.0534454584121704,-1.4132061004638672,22.4609375,-329.345703125,209.47265625
2.1653101444244385,-1268246111,0,2.1370725631713867,0.168148472905159,-0.3821428120136261,133.60595703125,389.5263671875,105.77392578125
2.1731650829315186,-1268246113,1,-0.5706745982170105,0.4797150194644928,-0.1700420379638672,26.2451171875,-243.65234375,265.31982421875
2.173246145248413,-1268246094,1,-0.7676960825920105,-0.5166228413581848,0.5543231964111328,78.91845703125,-243.0419921875,278.38134765625
2.1953251361846924,-1268246092,0,2.1495237350463867,0.111751988530159,-0.0606096014380455,186.8896484375,403.076171875,41.93115234375
2.195462226867676,-1268246073,0,2.0916624069213867,0.110043004155159,-0.3547990620136261,180.17578125,414.306640625,36.80419921875
2.202594041824341,-1268246075,1,-0.4232136607170105,-0.5432341694831848,0.5860614776611328,160.2783203125,-275.57373046875,137.0849609375
2.2379770278930664,-1268246054,0,1.8890258073806763,0.3370938003063202,-0.3355119526386261,114.19677734375,446.22802734375,67.93212890625
2.2379839420318604,-1268246035,0,1.6592894792556763,0.3803066909313202,-0.1880510151386261,73.1201171875,448.3642578125,95.03173828125
2.240767240524292,-1268246056,1,-0.4910847544670105,-0.1989959180355072,0.4407978057861328,151.123046875,-273.86474609375,60.72998046875
2.240774154663086,-1268246037,1,-0.5203816294670105,0.2536408007144928,0.3165302276611328,77.392578125,-263.48876953125,7.87353515625
2.2551701068878174,-1268246016,0,1.4815551042556763,0.198177769780159,-0.0947892889380455,56.2744140625,435.85205078125,121.52099609375
2.2625463008880615,-1268246018,1,-0.4595906138420105,0.2463165819644928,0.3490009307861328,1.03759765625,-256.53076171875,16.11328125
2.2938601970672607,-1268245997,0,1.2252074480056763,0.156185582280159,-0.0579240545630455,75.74462890625,435.302734375,129.82177734375
2.293868064880371,-1268245978,0,1.1568480730056763,0.018246132880449295,-0.2310197651386261,115.1123046875,410.70556640625,119.140625
2.2953851222991943,-1268245999,1,-0.4295613169670105,0.2511993944644928,0.3045673370361328,-19.8974609375,-237.48779296875,55.96923828125
2.295391321182251,-1268245980,1,-0.4625203013420105,0.2951447069644928,0.2142353057861328,-3.0517578125,-214.35546875,118.34716796875
2.3152129650115967,-1268245959,0,1.1204711198806763,0.035091836005449295,-0.3469865620136261,131.53076171875,374.57275390625,109.86328125
2.322578191757202,-1268245961,1,-0.2447468638420105,-0.2868865430355072,0.4469013214111328,33.3251953125,-196.533203125,136.77978515625
2.3226571083068848,-1268245942,1,-0.039668742567300797,-0.5407927632331848,0.6588153839111328,111.87744140625,-158.69140625,66.95556640625
2.3464841842651367,-1268245940,0,0.9356566071510315,0.058773476630449295,-0.4094865620136261,138.0615234375,342.7734375,114.19677734375
2.3464932441711426,-1268245921,0,0.7972288727760315,0.027035195380449295,-0.4861467182636261,137.75634765625,323.2421875,146.97265625
2.387503147125244,-1268245902,0,0.8170042634010315,-0.033023398369550705,-0.6096818447113037,120.361328125,306.396484375,202.1484375
2.389281988143921,-1268245923,1,-0.1143757700920105,-0.4133513867855072,0.8477802276611328,186.03515625,-102.5390625,44.0673828125
2.389289140701294,-1268245904,1,-0.1849324107170105,-0.3200896680355072,0.9906024932861328,209.5947265625,-93.75,19.1650390625
2.389294147491455,-1268245885,1,-0.2835652232170105,-0.2319549024105072,1.1146259307861328,202.5146484375,-94.970703125,-24.35302734375
2.4054713249206543,-1268245883,0,0.9258909821510315,-0.065738245844841,-0.7783830165863037,114.8681640625,285.70556640625,241.5771484375
2.441254138946533,-1268245847,0,1.6609984636306763,0.052669961005449295,-1.2258927822113037,46.0205078125,273.62060546875,369.56787109375
2.4428532123565674,-1268245828,0,1.7564574480056763,0.089535191655159,-1.2927873134613037,43.27392578125,268.310546875,377.5634765625
2.443439245223999,-1268245849,1,-0.8550984263420105,-0.3718474805355072,1.3009052276611328,103.6376953125,-194.9462890625,-170.10498046875
2.4434449672698975,-1268245830,1,-1.2808797359466553,-0.4682830274105072,1.2427997589111328,76.47705078125,-286.865234375,-269.83642578125
2.4653160572052,-1268245809,0,2.0276975631713867,0.093441441655159,-1.6052873134613037,56.396484375,225.2197265625,399.59716796875
2.4946460723876953,-1268245790,0,2.1636838912963867,0.214535191655159,-1.7310197353363037,68.84765625,148.37646484375,406.18896484375
2.4954910278320312,-1268245771,0,2.4561643600463867,0.3788418471813202,-1.6546037197113037,31.18896484375,82.58056640625,399.84130859375
2.502930164337158,-1268245811,1,-1.9710652828216553,-0.6323454976081848,1.0811786651611328,89.66064453125,-370.60546875,-366.69921875
2.503026247024536,-1268245792,1,-2.5892293453216553,-0.7041228413581848,0.8634052276611328,141.78466796875,-438.90380859375,-417.66357421875
2.537759304046631,-1268245752,0,2.6370725631713867,0.2506680190563202,-1.3521134853363037,-35.2783203125,41.3818359375,396.91162109375
2.5403871536254883,-1268245773,1,-3.1885945796966553,-0.6318572163581848,0.4010028839111328,234.43603515625,-502.86865234375,-445.3125
2.5552570819854736,-1268245733,0,2.7625608444213867,0.079525426030159,-1.0776994228363037,-79.4677734375,20.1416015625,409.423828125
2.5553641319274902,-1268245714,0,2.7298460006713867,-0.024234335869550705,-0.9924943447113037,-76.35498046875,-5.43212890625,392.9443359375
2.5628180503845215,-1268245754,1,-3.6019246578216553,-0.3933318555355072,-0.1729717254638672,327.57568359375,-507.99560546875,-426.69677734375
2.5629119873046875,-1268245735,1,-3.6878621578216553,-0.1443084180355072,-0.5684795379638672,385.1318359375,-467.28515625,-360.7177734375
2.592111110687256,-1268245695,0,2.5316038131713867,-0.106998011469841,-0.9443986415863037,-40.52734375,-49.8046875,379.8828125
2.59211802482605,-1268245676,0,2.6033811569213867,-0.222720667719841,-0.9829728603363037,-29.96826171875,-87.646484375,383.60595703125
2.5941340923309326,-1268245716,1,-3.5440633296966553,-0.038595523685216904,-0.6627178192138672,399.59716796875,-430.84716796875,-312.92724609375
2.594144105911255,-1268245697,1,-3.3426473140716553,-0.056417789310216904,-0.6112041473388672,362.85400390625,-420.41015625,-279.47998046875
2.5941500663757324,-1268245678,1,-3.0050008296966553,-0.051046695560216904,-0.5218486785888672,283.3251953125,-434.326171875,-298.40087890625
2.61515212059021,-1268245657,0,2.8348264694213867,-0.071109339594841,-1.1738908290863037,-39.306640625,-102.294921875,389.34326171875
2.6443932056427,-1268245638,0,2.9256467819213867,0.135677769780159,-1.3421037197113037,-66.58935546875,-111.2060546875,355.89599609375
2.645264148712158,-1268245619,0,2.9573850631713867,0.247250035405159,-1.2554337978363037,-121.09375,-153.62548828125,333.251953125
2.652994155883789,-1268245659,1,-2.7872273921966553,-0.1389373242855072,-0.5028057098388672,207.1533203125,-414.00146484375,-325.74462890625
2.653158187866211,-1268245640,1,-2.5526082515716553,-0.3384002149105072,-0.3944072723388672,190.7958984375,-358.21533203125,-338.07373046875
2.653175115585327,-1268245621,1,-2.3497273921966553,-0.5256560444831848,-0.2440166473388672,243.0419921875,-298.15673828125,-331.4208984375
2.6905300617218018,-1268245585,1,-2.3301961421966553,-0.6274626851081848,0.1846942901611328,432.18994140625,-177.1240234375,-276.611328125
2.7054901123046875,-1268245583,0,3.4266233444213867,-0.069400355219841,-0.3176896870136261,-186.58447265625,-203.55224609375,318.9697265625
2.705613136291504,-1268245564,0,3.0970335006713867,0.149593785405159,0.3165876567363739,-182.80029296875,-170.22705078125,321.044921875
2.712918996810913,-1268245566,1,-2.7659871578216553,-0.6784880757331848,0.6932392120361328,507.75146484375,-169.86083984375,-244.68994140625
2.7433581352233887,-1268245545,0,3.0858030319213867,0.2604336440563202,-0.2046525776386261,-144.22607421875,-204.52880859375,248.1689453125
2.7433693408966064,-1268245526,0,3.1226682662963867,0.212093785405159,-0.4011857807636261,-198.66943359375,-243.2861328125,210.205078125
2.7439072132110596,-1268245547,1,-2.9617879390716553,-0.3711150586605072,0.9859638214111328,562.56103515625,-213.5009765625,-168.212890625
2.743913173675537,-1268245528,1,-2.8831746578216553,0.1303497850894928,1.1585712432861328,578.0029296875,-264.16015625,-43.5791015625
2.794433116912842,-1268245507,0,2.8702268600463867,-0.060123007744550705,-0.2998674213886261,-242.37060546875,-251.15966796875,212.7685546875
2.795976161956787,-1268245488,0,2.3570432662963867,-0.2940097153186798,-0.2617814838886261,-285.70556640625,-266.6015625,217.59033203125
2.796056032180786,-1268245469,0,2.3841428756713867,-0.5120273232460022,-0.1187150701880455,-299.072265625,-270.01953125,214.4775390625
2.806291341781616,-1268245509,1,-2.7762410640716553,0.1730743944644928,0.9019794464111328,537.59765625,-316.650390625,0.54931640625
2.8063061237335205,-1268245490,1,-2.5631062984466553,0.5585724711418152,0.3231220245361328,473.876953125,-334.9609375,50.59814453125
2.80631422996521,-1268245471,1,-2.0557820796966553,0.4704376757144928,0.1468524932861328,468.6279296875,-272.4609375,105.224609375
2.8399860858917236,-1268245452,1,-1.8218953609466553,0.4889923632144928,0.1490497589111328,478.08837890625,-156.31103515625,130.31005859375
2.8399930000305176,-1268245433,1,-1.2994344234466553,0.3132111132144928,0.3865985870361328,490.90576171875,-92.4072265625,101.13525390625
2.855541944503784,-1268245450,0,2.3821897506713867,-0.3867831528186798,-0.1067521795630455,-279.4189453125,-259.58251953125,195.556640625
2.855715036392212,-1268245431,0,1.8834105730056763,-0.203189417719841,-0.3699357807636261,-286.9873046875,-247.61962890625,203.61328125
2.8557322025299072,-1268245412,0,1.7420531511306763,-0.3670077621936798,-0.9014298915863037,-348.2666015625,-330.01708984375,223.93798828125
2.8911900520324707,-1268245393,0,2.3172483444213867,-0.099673792719841,-0.4160783588886261,-385.68115234375,-302.001953125,96.8017578125
2.892646074295044,-1268245374,0,2.3365354537963867,-0.4793124496936798,0.0267927423119545,-413.02490234375,-222.900390625,41.80908203125
2.893221139907837,-1268245414,1,-1.8319051265716553,0.3742462694644928,0.2525653839111328,476.13525390625,-1.77001953125,130.859375
2.8932271003723145,-1268245395,1,-1.4700887203216553,0.2616974413394928,0.08166695386171341,432.0068359375,70.61767578125,78.857421875
2.915208101272583,-1268245355,0,1.5977660417556763,-0.4319491684436798,0.3707868754863739,-393.1884765625,-126.03759765625,21.17919921875
2.922551155090332,-1268245376,1,-1.0535848140716553,-0.4555877149105072,0.1375751495361328,384.3994140625,139.22119140625,-3.5400390625
2.9226901531219482,-1268245357,1,-1.6317098140716553,-0.1089080274105072,-0.07287406176328659,400.2685546875,240.05126953125,31.25
2.9452531337738037,-1268245319,0,1.1092406511306763,0.006527382880449295,0.5067732334136963,-293.64013671875,-180.23681640625,-69.51904296875
2.95255708694458,-1268245321,1,-1.8631551265716553,1.1293731927871704,0.07043648511171341,250.54931640625,268.00537109375,164.61181640625
2.989295244216919,-1268245300,0,1.0821410417556763,0.163265660405159,0.5150740146636963,-287.53662109375,-189.453125,-117.3095703125
2.9926540851593018,-1268245302,1,-1.5696980953216553,0.5715119242668152,0.2078876495361328,105.712890625,241.39404296875,144.287109375
2.9926609992980957,-1268245283,1,-1.5345418453216553,0.3136993944644928,0.3104267120361328,89.4775390625,254.21142578125,171.5087890625
3.0053391456604004,-1268245281,0,0.6629515290260315,0.3163418471813202,0.3903181254863739,-316.162109375,-182.373046875,-119.873046875
3.0054352283477783,-1268245262,0,0.016955453902482986,-0.127505823969841,0.3058454692363739,-330.50537109375,-196.2890625,-46.08154296875
3.0127861499786377,-1268245264,1,-1.3326375484466553,0.3710724413394928,0.1727313995361328,105.65185546875,254.57763671875,187.255859375
3.0422072410583496,-1268245243,0,0.032580453902482986,-0.244449183344841,0.1495954692363739,-300.72021484375,-238.09814453125,-17.7001953125
3.0436363220214844,-1268245224,0,0.2120238095521927,0.3146328628063202,0.3263532817363739,-256.16455078125,-214.599609375,-91.73583984375
3.065643072128296,-1268245205,0,0.1653929501771927,0.4935879409313202,0.2738630473613739,-269.59228515625,-191.5283203125,-112.12158203125
3.0732059478759766,-1268245245,1,-1.1671102046966553,0.3671661913394928,0.05237007886171341,103.515625,267.39501953125,166.50390625
3.073300361633301,-1268245226,1,-1.1856648921966553,0.4069611132144928,-0.1451396942138672,112.060546875,308.837890625,182.43408203125
3.073402166366577,-1268245207,1,-1.3104207515716553,0.3073517382144928,-0.2401103973388672,85.0830078125,298.9501953125,188.232421875
3.0739991664886475,-1268245188,1,-1.0779988765716553,0.2338654100894928,-0.2457256317138672,46.5087890625,236.4501953125,140.5029296875
3.09537410736084,-1268245186,0,0.3287230432033539,0.4498867690563202,0.1054060235619545,-326.11083984375,-134.6435546875,-120.1171875
3.095421314239502,-1268245167,0,0.3636351525783539,0.042660195380449295,0.2206403911113739,-380.37109375,-31.92138671875,-143.61572265625
3.1025230884552,-1268245169,1,-0.7940632700920105,0.1779572069644928,-0.2545146942138672,32.53173828125,223.5107421875,115.90576171875
3.1375930309295654,-1268245148,0,0.1619749814271927,-0.017642538994550705,0.4310896098613739,-380.2490234375,18.37158203125,-99.42626953125
3.1401212215423584,-1268245150,1,-0.5967976450920105,0.0959259569644928,-0.2860088348388672,36.9873046875,252.685546875,109.619140625
3.1401290893554688,-1268245131,1,-0.6715046763420105,-0.024923648685216904,-0.2630596160888672,39.61181640625,288.6962890625,111.02294921875
3.1552770137786865,-1268245129,0,-0.07142345607280731,0.041683632880449295,0.5907576084136963,-343.44482421875,32.5927734375,-77.392578125
3.1553280353546143,-1268245110,0,-0.1959351748228073,0.098568394780159,0.7057478427886963,-286.376953125,24.59716796875,-86.12060546875
3.162492275238037,-1268245112,1,-0.7401081919670105,-0.1289275586605072,-0.1461162567138672,41.259765625,276.42822265625,98.0224609375
3.1914560794830322,-1268245091,0,-0.2279175966978073,0.104916051030159,0.7152693271636963,-247.00927734375,14.95361328125,-95.8251953125
3.193617105484009,-1268245093,1,-0.6114460825920105,-0.2217009961605072,0.007448203861713409,30.3955078125,241.0888671875,59.9365234375
3.2152891159057617,-1268245055,0,-0.3165406286716461,0.046810586005449295,0.7384626865386963,-216.12548828125,-9.033203125,-119.07958984375
3.2226641178131104,-1268245057,1,-0.4100300669670105,-0.2807830274105072,-0.02429007738828659,36.9873046875,182.92236328125,-16.4794921875
3.246387243270874,-1268245036,0,-0.3255738317966461,0.007503945380449295,0.7272322177886963,-192.56591796875,-26.18408203125,-122.0703125
3.2463951110839844,-1268245017,0,-0.4962281286716461,-0.103824183344841,0.7640974521636963,-163.75732421875,-53.3447265625,-105.712890625
3.2529289722442627,-1268245038,1,-0.3800007700920105,-0.2885955274105072,-0.1456279754638672,41.19873046875,162.41455078125,-73.18115234375
3.2530670166015625,-1268245019,1,-0.4268757700920105,-0.2595427930355072,-0.2740459442138672,26.9775390625,164.55078125,-120.54443359375
3.289695978164673,-1268244998,0,-0.7181519865989685,-0.198062464594841,0.8663923740386963,-123.1689453125,-100.5859375,-73.73046875
3.2931010723114014,-1268245000,1,-0.5269734263420105,-0.2895720899105072,-0.2994365692138672,7.9345703125,184.50927734375,-146.05712890625
3.3053441047668457,-1268244979,0,-0.5929078459739685,-0.2901034653186798,0.9745466709136963,-70.61767578125,-156.8603515625,-29.052734375
3.3054702281951904,-1268244960,0,-0.3206910192966461,-0.4085116684436798,1.0997908115386963,-38.0859375,-183.04443359375,6.89697265625
3.3128480911254883,-1268244981,1,-0.5635945200920105,-0.2846892774105072,-0.2730693817138672,-16.7236328125,218.3837890625,-184.63134765625
3.312957286834717,-1268244962,1,-0.6458699107170105,-0.3430388867855072,-0.2330303192138672,-44.00634765625,258.4228515625,-211.48681640625
3.3418312072753906,-1268244941,0,-0.1265992373228073,-0.5964999794960022,1.2721540927886963,-16.05224609375,-180.84716796875,67.93212890625
3.3438429832458496,-1268244943,1,-0.8199421763420105,-0.3889373242855072,-0.1639385223388672,-85.26611328125,317.87109375,-232.84912109375
3.3438491821289062,-1268244924,1,-1.0850789546966553,-0.5197966694831848,-0.06359671801328659,-121.337890625,379.08935546875,-239.19677734375
3.367924928665161,-1268244922,0,0.06285388767719269,-0.6626620888710022,1.3214704990386963,2.99072265625,-154.541015625,145.751953125
3.367934226989746,-1268244903,0,0.2794066369533539,-0.5093417763710022,1.1762068271636963,23.49853515625,-91.796875,218.505859375
3.3724892139434814,-1268244905,1,-1.4136922359466553,-0.7060759663581848,0.08850289136171341,-143.4326171875,419.61669921875,-238.1591796875
3.3961331844329834,-1268244884,0,0.3255492150783539,-0.4370761215686798,0.9581892490386963,37.353515625,-28.9306640625,281.982421875
3.396282196044922,-1268244865,0,0.2598753869533539,-0.3726229965686798,0.6010115146636963,37.90283203125,13.427734375,352.294921875
3.4030609130859375,-1268244886,1,-1.6378133296966553,-0.8188689351081848,0.2252216339111328,-152.7099609375,439.697265625,-243.1640625
3.403140068054199,-1268244867,1,-1.9446980953216553,-0.8972380757331848,0.3612079620361328,-157.89794921875,464.7216796875,-270.69091796875
3.438876152038574,-1268244846,0,0.3729124963283539,-0.3284335434436798,0.1500837504863739,49.37744140625,-2.685546875,424.31640625
3.4618980884552,-1268244848,1,-2.3546102046966553,-0.9536345601081848,0.3800067901611328,-167.3583984375,496.826171875,-313.65966796875
3.462843179702759,-1268244829,1,-2.8211629390716553,-1.0393279790878296,0.4149188995361328,-209.41162109375,544.12841796875,-358.33740234375
3.491424083709717,-1268244827,0,0.5884886384010315,-0.210513636469841,-0.1648576557636261,64.88037109375,-56.45751953125,491.2109375
3.4929802417755127,-1268244791,0,1.5330687761306763,-0.044498007744550705,-0.6384904384613037,34.423828125,-201.66015625,607.72705078125
3.493488073348999,-1268244793,1,-4.225459575653076,-1.1277068853378296,0.5318622589111328,-338.19580078125,582.1533203125,-467.6513671875
3.4934940338134766,-1268244774,1,-4.586299419403076,-1.2419646978378296,0.5264911651611328,-409.11865234375,561.46240234375,-476.9287109375
3.515294313430786,-1268244772,0,2.3397092819213867,0.140560582280159,-0.7644670009613037,36.80419921875,-319.03076171875,643.73779296875
3.5154271125793457,-1268244753,0,3.7410764694213867,0.4647793471813202,-0.8811662197113037,-3.41796875,-441.5283203125,610.595703125
3.522444009780884,-1268244755,1,-4.938106060028076,-1.7143768072128296,0.5501728057861328,-479.3701171875,567.81005859375,-482.11669921875
3.546894073486328,-1268244734,0,5.023303031921387,1.4943203926086426,-0.1409318745136261,-99.609375,-404.11376953125,477.05078125
3.5469019412994385,-1268244715,0,5.216418266296387,1.5294766426086426,1.3854353427886963,-232.91015625,-178.3447265625,362.48779296875
3.5529561042785645,-1268244736,1,-5.236445903778076,-2.36745285987854,0.9300556182861328,-495.66650390625,539.12353515625,-463.31787109375
3.553011178970337,-1268244717,1,-5.069453716278076,-2.49049973487854,1.6615009307861328,-434.4482421875,447.20458984375,-425.78125
3.5873641967773438,-1268244696,0,3.4407835006713867,0.9310879111289978,1.4367048740386963,-317.19970703125,128.2958984375,183.837890625
3.591386079788208,-1268244698,1,-4.598262310028076,-1.7104705572128296,2.101686477661133,-371.7041015625,352.96630859375,-376.3427734375
3.605260133743286,-1268244677,0,0.6673460602760315,-1.7988924980163574,0.9035017490386963,-522.64404296875,367.5537109375,380.37109375
3.605386972427368,-1268244658,0,1.5220824480056763,-1.6294589042663574,1.9674665927886963,66.0400390625,-3.7841796875,101.74560546875
3.64662504196167,-1268244679,1,-4.114131450653076,-0.6843474507331848,2.161989212036133,-375.42724609375,216.4306640625,-255.4931640625
3.6466331481933594,-1268244660,1,-3.5904500484466553,-0.1994841992855072,1.9652118682861328,-418.212890625,97.0458984375,-126.8310546875
3.6470940113067627,-1268244641,1,-3.0714070796966553,-0.1113494336605072,1.6917743682861328,-416.748046875,65.85693359375,-22.0947265625
3.6471002101898193,-1268244622,1,-3.2886922359466553,0.2487579882144928,1.8358173370361328,-377.0751953125,91.064453125,126.89208984375
3.6655921936035156,-1268244639,0,3.0565061569213867,-0.3836093246936798,1.8148787021636963,243.95751953125,-108.154296875,-85.75439453125
3.665785074234009,-1268244620,0,2.7322874069213867,-0.4895663559436798,2.1256697177886963,232.2998046875,-10.7421875,-184.9365234375
3.6657981872558594,-1268244601,0,2.7007932662963867,-0.8198886513710022,2.1459333896636963,264.34326171875,106.62841796875,-144.71435546875
3.672563314437866,-1268244603,1,-3.1888387203216553,0.1642853319644928,1.8057880401611328,-345.0927734375,104.00390625,171.56982421875
3.6951041221618652,-1268244582,0,2.8143186569213867,-0.8118320107460022,1.9157087802886963,264.16015625,165.0390625,-156.73828125
3.7027151584625244,-1268244584,1,-2.8819539546966553,0.3063751757144928,1.8487567901611328,-387.3291015625,82.09228515625,206.1767578125
3.7028160095214844,-1268244565,1,-2.4276082515716553,0.3063751757144928,1.4847431182861328,-482.0556640625,76.416015625,218.8720703125
3.7266101837158203,-1268244563,0,3.1107053756713867,-0.8081699013710022,1.9032576084136963,212.58544921875,242.37060546875,-154.541015625
3.7571990489959717,-1268244527,0,3.0067014694213867,-1.5891757011413574,0.7907087802886963,111.14501953125,471.86279296875,-49.49951171875
3.757211208343506,-1268244508,0,2.9673948287963867,-1.4439120292663574,0.2235700786113739,204.58984375,500.9765625,-40.8935546875
3.7630209922790527,-1268244529,1,-3.0560262203216553,-0.7776091694831848,1.7442646026611328,-472.35107421875,-6.7138671875,430.5419921875
3.7631351947784424,-1268244510,1,-2.8680379390716553,-1.3088592290878296,1.5133075714111328,-307.2509765625,-141.41845703125,373.046875
3.791182041168213,-1268244489,0,2.8284788131713867,-1.0615878105163574,-0.4871232807636261,223.32763671875,515.68603515625,-64.51416015625
3.79325008392334,-1268244491,1,-2.5892293453216553,-1.0766814947128296,1.1876239776611328,-227.5390625,-224.30419921875,299.49951171875
3.793257236480713,-1268244472,1,-2.6688191890716553,-0.8637908101081848,1.2208271026611328,-174.13330078125,-324.52392578125,237.85400390625
3.8456592559814453,-1268244470,0,2.1995725631713867,-0.6084628701210022,-0.8694474697113037,171.7529296875,546.5087890625,-22.705078125
3.8457090854644775,-1268244451,0,1.8538695573806763,-0.4163241684436798,-1.0552384853363037,108.7646484375,556.21337890625,68.54248046875
3.8458211421966553,-1268244432,0,1.7137328386306763,-0.3860507309436798,-0.6890275478363037,93.20068359375,523.49853515625,156.1279296875
3.8465750217437744,-1268244413,0,1.5980101823806763,0.069027379155159,-0.6743791103363037,119.44580078125,467.59033203125,129.8828125
3.8529090881347656,-1268244453,1,-2.2979695796966553,-0.6831267476081848,0.7008075714111328,-103.08837890625,-417.54150390625,179.8095703125
3.8530471324920654,-1268244434,1,-2.1663777828216553,-1.0383514165878296,0.6639423370361328,-14.5263671875,-469.90966796875,161.7431640625
3.8531219959259033,-1268244415,1,-1.6746785640716553,-0.6967986226081848,0.3367938995361328,105.04150390625,-482.5439453125,163.51318359375
3.8767220973968506,-1268244394,0,1.3182250261306763,-0.3567538559436798,-0.9812638759613037,-6.9580078125,443.17626953125,163.02490234375
3.890913963317871,-1268244396,1,-1.5186727046966553,-0.051534976810216904,-1.0953350067138672,1.708984375,-403.25927734375,229.79736328125
3.91217303276062,-1268244377,1,-1.1519734859466553,-0.2348845899105072,-0.2061748504638672,-2.0751953125,-337.646484375,293.15185546875
3.9129700660705566,-1268244358,1,-0.8841511607170105,-0.6198943257331848,-0.00964163988828659,81.6650390625,-315.5517578125,289.24560546875
3.945526123046875,-1268244375,0,1.4210082292556763,0.202084019780159,-0.1846330463886261,102.96630859375,395.99609375,88.623046875
3.945535182952881,-1268244356,0,1.6087523698806763,0.200375035405159,-0.3767717182636261,148.681640625,366.3330078125,54.62646484375
3.945540189743042,-1268244337,0,1.4901000261306763,0.4716152846813202,-0.2988908588886261,109.43603515625,408.50830078125,77.880859375
3.947153091430664,-1268244339,1,-0.6302449107170105,-0.5661833882331848,0.10534859448671341,144.4091796875,-300.47607421875,279.23583984375
3.9471590518951416,-1268244320,1,-0.5233113169670105,-0.5459197163581848,0.2374286651611328,157.3486328125,-248.35205078125,218.1396484375
3.9654252529144287,-1268244318,0,1.2686644792556763,0.6908535361289978,-0.2976701557636261,57.373046875,442.93212890625,102.60009765625
3.965529203414917,-1268244299,0,0.9764280915260315,0.6618008017539978,-0.3526017963886261,11.65771484375,437.3779296875,106.5673828125
3.9734930992126465,-1268244301,1,-0.4468953013420105,-0.2226775586605072,0.2899188995361328,102.1728515625,-207.51953125,172.79052734375
4.001862287521362,-1268244265,1,-0.4097859263420105,-0.1779998242855072,0.3167743682861328,-48.64501953125,-183.16650390625,94.8486328125
4.036899089813232,-1268244263,0,0.7374144196510315,0.6124843955039978,-0.4280412495136261,7.9345703125,365.41748046875,108.70361328125
4.036906957626343,-1268244244,0,0.5787230134010315,0.5140957236289978,-0.4028947651386261,25.634765625,323.66943359375,89.17236328125
4.038693189620972,-1268244246,1,-0.2735554575920105,-0.4900115430355072,0.5140399932861328,-57.43408203125,-184.50927734375,49.25537109375
4.055469989776611,-1268244225,0,0.5535765290260315,0.4188809096813202,-0.4797990620136261,30.517578125,299.6826171875,109.19189453125
4.055599212646484,-1268244206,0,0.3831664025783539,0.4686855971813202,-0.4502580463886261,27.9541015625,273.3154296875,119.7509765625
4.062706232070923,-1268244227,1,-0.2012898325920105,-0.5949919819831848,0.6234149932861328,-10.498046875,-180.908203125,6.16455078125
4.062827110290527,-1268244208,1,-0.2696492075920105,-0.4936736524105072,0.7139911651611328,66.34521484375,-179.01611328125,-40.83251953125
4.092212915420532,-1268244187,0,0.3128539025783539,0.3197598159313202,-0.4346330463886261,18.9208984375,217.46826171875,134.033203125
4.092753171920776,-1268244189,1,-0.4288288950920105,-0.3100799024105072,0.7313251495361328,122.6806640625,-196.22802734375,-78.9794921875
4.09282112121582,-1268244170,1,-0.5284382700920105,-0.2207244336605072,0.7254657745361328,143.6767578125,-226.25732421875,-108.82568359375
4.115338087081909,-1268244168,0,0.4063597619533539,0.2785000503063202,-0.3958146870136261,24.47509765625,169.49462890625,191.7724609375
4.115412950515747,-1268244149,0,0.6617308259010315,0.3097500503063202,-0.4292619526386261,31.55517578125,133.1787109375,244.140625
4.122463226318359,-1268244151,1,-0.6448933482170105,-0.2483123242855072,0.7032489776611328,138.12255859375,-249.32861328125,-136.23046875
4.146996974945068,-1268244130,0,0.8646116852760315,0.4274258315563202,-0.4741838276386261,33.26416015625,115.478515625,265.869140625
4.152977228164673,-1268244132,1,-0.8206745982170105,-0.3264373242855072,0.6878681182861328,117.73681640625,-283.0810546875,-191.0400390625
4.153120040893555,-1268244113,1,-1.0699422359466553,-0.2514861524105072,0.6690692901611328,89.90478515625,-307.373046875,-282.28759765625
4.188085079193115,-1268244111,0,1.0255004167556763,0.4420742690563202,-0.5459611415863037,36.7431640625,100.9521484375,276.0009765625
4.188094139099121,-1268244092,0,1.0889769792556763,0.4879727065563202,-0.7024552822113037,38.51318359375,78.43017578125,291.015625
4.190843105316162,-1268244094,1,-1.5750691890716553,-0.1635955274105072,0.6221942901611328,55.35888671875,-328.06396484375,-365.478515625
4.205312013626099,-1268244073,0,1.1346312761306763,0.5812343955039978,-0.7756974697113037,34.3017578125,41.56494140625,294.43359375
4.205418348312378,-1268244054,0,1.1505004167556763,0.6432461142539978,-0.7835099697113037,-0.6103515625,24.2919921875,316.162109375
4.212763071060181,-1268244075,1,-2.0650594234466553,-0.1443084180355072,0.5550556182861328,47.54638671875,-374.267578125,-427.18505859375
4.212873220443726,-1268244056,1,-2.3795125484466553,-0.1784881055355072,0.4354267120361328,75.25634765625,-405.6396484375,-449.64599609375
4.2440502643585205,-1268244035,0,1.1724730730056763,0.5587734580039978,-0.7749650478363037,-51.81884765625,-22.03369140625,344.17724609375
4.245665073394775,-1268244037,1,-2.6802937984466553,-0.2134002149105072,0.2261981964111328,151.55029296875,-405.517578125,-452.392578125
4.265075206756592,-1268243999,0,1.5775023698806763,0.5426601767539978,-0.7632462978363037,-14.46533203125,-176.33056640625,359.375
4.272391080856323,-1268244001,1,-3.3807332515716553,-0.1147674024105072,-0.3875713348388672,260.7421875,-363.037109375,-398.0712890625
4.296094179153442,-1268243980,0,2.0589475631713867,0.6444668173789978,-0.6646134853363037,-19.04296875,-224.365234375,378.60107421875
4.302730083465576,-1268243982,1,-3.4068562984466553,0.0026642419397830963,-0.5418682098388672,280.94482421875,-376.8310546875,-376.64794921875
4.302808046340942,-1268243963,1,-3.1395223140716553,0.0019318200647830963,-0.5989971160888672,248.35205078125,-384.21630859375,-363.58642578125
4.338586091995239,-1268243961,0,2.2901487350463867,0.5717129111289978,-0.5325334072113037,-39.97802734375,-239.8681640625,399.96337890625
4.33859395980835,-1268243942,0,2.5359983444213867,0.4801602065563202,-0.6475236415863037,-26.7333984375,-271.240234375,431.2744140625
4.354504108428955,-1268243923,0,2.7818479537963867,0.4249844253063202,-0.7266252040863037,21.728515625,-336.97509765625,407.2265625
4.355279207229614,-1268243904,0,3.1719846725463867,0.6198086142539978,-0.8408830165863037,18.24951171875,-371.88720703125,374.0234375
4.363487243652344,-1268243944,1,-2.9964559078216553,-0.1694549024105072,-0.6136455535888672,236.9384765625,-353.33251953125,-375.732421875
4.392888069152832,-1268243885,0,3.5164670944213867,1.0607266426086426,-0.8848283290863037,-20.08056640625,-392.822265625,346.6796875
4.3936052322387695,-1268243925,1,-3.0582234859466553,-0.3467009961605072,-0.6351299285888672,267.4560546875,-304.01611328125,-412.41455078125
4.393691062927246,-1268243906,1,-3.0181844234466553,-0.3567107617855072,-0.6592998504638672,346.435546875,-278.564453125,-437.19482421875
4.393806219100952,-1268243887,1,-2.8775594234466553,-0.4043181836605072,-0.7303447723388672,424.1943359375,-266.6015625,-432.80029296875
4.415469169616699,-1268243866,0,3.8489866256713867,1.0155606269836426,-0.6262834072113037,-140.9912109375,-346.49658203125,325.13427734375
4.4155662059783936,-1268243847,0,3.7012815475463867,0.6007656455039978,-0.2319963276386261,-198.54736328125,-266.2353515625,310.05859375
4.422757148742676,-1268243868,1,-2.6331746578216553,-0.3855193555355072,-0.6790752410888672,446.71630859375,-235.90087890625,-421.630859375
4.422884225845337,-1268243849,1,-2.6575887203216553,-0.1843474805355072,-0.6246318817138672,460.5712890625,-164.1845703125,-374.20654296875
4.445087194442749,-1268243828,0,3.1810178756713867,0.2535977065563202,0.0526716485619545,-130.55419921875,-279.541015625,242.5537109375
4.452762126922607,-1268243830,1,-2.7574422359466553,0.2719513475894928,-0.5533428192138672,500.1220703125,-98.9990234375,-249.3896484375
4.45285701751709,-1268243811,1,-3.2029988765716553,0.1408478319644928,-0.3079814910888672,539.9169921875,-73.18115234375,-114.1357421875
4.487908124923706,-1268243809,0,2.7735471725463867,0.178646519780159,0.0407087579369545,-35.7666015625,-340.33203125,177.55126953125
4.487915992736816,-1268243790,0,2.6258420944213867,-0.013492148369550705,-0.2549455463886261,138.97705078125,-405.8837890625,171.2646484375
4.4906370639801025,-1268243792,1,-3.3258016109466553,0.6301056742668152,-0.3243389129638672,556.884765625,-68.29833984375,18.4326171875
4.505351305007935,-1268243771,0,2.6155881881713867,0.6996425986289978,-0.8223283290863037,-7.2021484375,-400.45166015625,141.6015625
4.512717008590698,-1268243773,1,-3.1627156734466553,1.2031036615371704,-0.2467021942138672,480.28564453125,-80.13916015625,179.74853515625
4.543641090393066,-1268243735,0,2.0606565475463867,0.2889980971813202,-0.5606095790863037,-184.08203125,-204.1015625,191.58935546875
4.544053077697754,-1268243737,1,-2.7215535640716553,0.2333771288394928,0.3157978057861328,254.45556640625,-97.83935546875,250.30517578125
4.5651562213897705,-1268243716,0,1.5928832292556763,-0.234927698969841,-0.4854142963886261,-206.60400390625,-173.4619140625,214.53857421875
4.56523323059082,-1268243697,0,1.3553344011306763,-0.211734339594841,-0.2964494526386261,-172.4853515625,-212.34130859375,200.8056640625
4.5955650806427,-1268243678,0,1.2471801042556763,-0.198306605219841,-0.5510880947113037,-146.30126953125,-279.1748046875,214.90478515625
4.6025190353393555,-1268243718,1,-1.8424031734466553,0.2573029100894928,1.0928974151611328,359.619140625,-37.353515625,290.10009765625
4.6026222705841064,-1268243699,1,-1.5360066890716553,-0.3957732617855072,1.2545185089111328,563.3544921875,43.15185546875,210.5712890625
4.638158082962036,-1268243659,0,1.6277953386306763,0.052669961005449295,-0.8042619228363037,-169.86083984375,-330.56640625,216.85791015625
4.63816499710083,-1268243640,0,1.9415160417556763,0.224789097905159,-0.7227189540863037,-219.6044921875,-317.138671875,176.81884765625
4.640948295593262,-1268243680,1,-2.4073445796966553,-0.3630584180355072,0.2572040557861328,592.95654296875,173.15673828125,238.46435546875
4.640955209732056,-1268243661,1,-2.0765340328216553,0.3859650194644928,0.3304462432861328,452.392578125,182.4951171875,209.28955078125
4.640959978103638,-1268243642,1,-1.0201375484466553,-0.5576384663581848,0.1532001495361328,365.72265625,226.62353515625,65.73486328125
4.655103921890259,-1268243621,0,2.0772581100463867,0.228451207280159,-0.3042619526386261,-306.15234375,-208.3740234375,109.7412109375
4.665402173995972,-1268243623,1,-2.1280477046966553,-0.4858611524105072,-0.5662822723388672,364.07470703125,345.5810546875,171.56982421875
4.665410041809082,-1268243604,1,-1.7076375484466553,0.5842072367668152,-0.3099346160888672,403.99169921875,335.75439453125,259.033203125
4.69244909286499,-1268243602,0,1.4981566667556763,0.005550820380449295,-0.0935685858130455,-357.48291015625,-93.32275390625,110.83984375
4.69245719909668,-1268243583,0,1.1424437761306763,-0.102115198969841,0.2997419536113739,-344.970703125,-66.89453125,75.98876953125
4.6929991245269775,-1268243585,1,-1.5530965328216553,0.1418243944644928,-0.07287406176328659,329.40673828125,316.58935546875,210.63232421875
4.715313196182251,-1268243564,0,1.0301390886306763,0.125423863530159,0.4586775004863739,-300.4150390625,-85.3271484375,3.47900390625
4.715450048446655,-1268243545,0,0.6160765290260315,0.3898281753063202,0.3634626567363739,-290.34423828125,-125.79345703125,-35.0341796875
4.722600221633911,-1268243566,1,-1.2574422359466553,0.5585724711418152,-0.11486624926328659,224.42626953125,276.18408203125,139.09912109375
4.722638130187988,-1268243547,1,-1.5902059078216553,0.2619415819644928,-0.3282451629638672,106.62841796875,301.08642578125,234.80224609375
4.745290040969849,-1268243526,0,-0.036755483597517014,0.6344570517539978,0.2882673442363739,-313.96484375,-148.01025390625,-23.01025390625
4.75265097618103,-1268243528,1,-1.1876180171966553,0.3781525194644928,-0.2608623504638672,37.841796875,264.2822265625,216.796875
4.789561033248901,-1268243507,0,-1.2318238019943237,2.2714200019836426,-0.3257463276386261,-472.22900390625,-289.306640625,161.0107421875
4.792070150375366,-1268243509,1,-1.0882527828216553,0.0658966600894928,-0.1334209442138672,17.2119140625,249.3896484375,163.87939453125
4.805474042892456,-1268243471,0,1.2398558855056763,-1.6831698417663574,-1.1787736415863037,-672.607421875,-85.9375,140.7470703125
4.812628269195557,-1268243473,1,-0.8953816294670105,-0.0959685742855072,-0.1727275848388672,74.0966796875,223.9990234375,119.2626953125
4.812734127044678,-1268243454,1,-0.5806843638420105,-0.009542789310216904,-0.1871318817138672,82.09228515625,225.7080078125,69.82421875
4.842576265335083,-1268243452,0,0.4637328088283539,-0.7564120888710022,0.8964216709136963,-453.79638671875,20.20263671875,78.857421875
4.842586040496826,-1268243433,0,0.0027952976524829865,-0.2761874496936798,1.3493025302886963,-255.0048828125,4.150390625,25.5126953125
4.8462090492248535,-1268243435,1,-0.3778035044670105,0.0702911913394928,-0.1732158660888672,36.7431640625,243.7744140625,47.607421875
4.896088123321533,-1268243414,0,0.4510374963283539,-0.2600741684436798,1.3407576084136963,-126.89208984375,2.74658203125,17.578125
4.896095275878906,-1268243395,0,0.3450804650783539,0.4474453628063202,0.9003279209136963,-40.8935546875,37.17041015625,26.18408203125
4.896100044250488,-1268243376,0,0.1900511533021927,0.5338711142539978,0.8087751865386963,-88.7451171875,55.908203125,13.5498046875
4.903069257736206,-1268243416,1,-0.2913777232170105,-0.010519351810216904,-0.1839580535888672,-18.85986328125,274.96337890625,45.34912109375
4.903192043304443,-1268243397,1,-0.3843953013420105,-0.2041228711605072,-0.1622295379638672,-55.96923828125,285.70556640625,58.77685546875
4.903268098831177,-1268243378,1,-0.4332234263420105,-0.4175017774105072,-0.10876273363828659,-70.80078125,266.54052734375,46.5087890625
4.9039342403411865,-1268243359,1,-0.2679402232170105,-0.4721892774105072,-0.04919242113828659,-74.64599609375,231.01806640625,4.2724609375
4.9395551681518555,-1268243357,0,0.1619749814271927,0.5214199423789978,0.7684919834136963,-146.97265625,59.08203125,-32.89794921875
4.9395623207092285,-1268243338,0,0.1768675595521927,0.3951992690563202,0.6837751865386963,-191.22314453125,50.23193359375,-102.783203125
4.941383123397827,-1268243340,1,-0.1448933482170105,-0.4992888867855072,-0.05773734301328659,-85.63232421875,224.30419921875,-26.9775390625
4.955059289932251,-1268243319,0,0.1785765439271927,0.156673863530159,0.6305525302886963,-217.529296875,44.25048828125,-147.39990234375
4.962841033935547,-1268243321,1,-0.1944538950920105,-0.5813201069831848,-0.07995413988828659,-86.5478515625,232.91015625,-41.50390625
4.962953329086304,-1268243302,1,-0.2725788950920105,-0.7058318257331848,-0.07482718676328659,-61.95068359375,242.1875,-63.53759765625
4.992915153503418,-1268243300,0,-0.044323842972517014,-0.062076132744550705,0.6727888584136963,-218.6279296875,30.517578125,-164.306640625
4.9948320388793945,-1268243283,1,-0.3550984263420105,-0.7436736226081848,-0.07043265551328659,-23.98681640625,251.64794921875,-95.8251953125
5.0152671337127686,-1268243281,0,-0.2996949255466461,-0.226138636469841,0.7960798740386963,-161.92626953125,-12.14599609375,-129.150390625
5.0153772830963135,-1268243262,0,-0.5794801115989685,-0.247378870844841,0.8688337802886963,-62.3779296875,-81.48193359375,-63.41552734375
5.0164031982421875,-1268243243,0,-0.4657105505466461,-0.2959628403186798,0.8449079990386963,17.333984375,-135.1318359375,23.5595703125
5.022780179977417,-1268243264,1,-0.3550984263420105,-0.7251189351081848,-0.08190726488828659,0.0,254.94384765625,-139.95361328125
5.022853136062622,-1268243245,1,-0.4427449107170105,-0.7558806538581848,-0.1558818817138672,0.79345703125,268.61572265625,-177.490234375
5.074381113052368,-1268243207,0,0.1924925595521927,0.023373086005449295,0.3270857036113739,70.37353515625,-118.83544921875,169.921875
5.087160110473633,-1268243188,0,0.2437620908021927,0.153011754155159,0.1530134379863739,-8.544921875,-77.20947265625,207.8857421875
5.088919162750244,-1268243209,1,-0.8568074107170105,-0.8540251851081848,-0.1944561004638672,-24.4140625,309.02099609375,-257.87353515625
5.088925123214722,-1268243190,1,-1.1922566890716553,-0.9372771382331848,-0.1622295379638672,-30.76171875,317.44384765625,-304.19921875
5.1055121421813965,-1268243169,0,0.059924203902482986,-0.043765585869550705,0.1749860942363739,-74.0966796875,-59.26513671875,269.34814453125
5.113055944442749,-1268243171,1,-1.4561727046966553,-1.0307830572128296,-0.1370830535888672,-36.56005859375,322.20458984375,-375.48828125
5.113163948059082,-1268243152,1,-1.8243367671966553,-1.0456756353378296,-0.1788311004638672,-62.92724609375,348.7548828125,-434.2041015625
5.143215179443359,-1268243150,0,0.1321898251771927,-0.2710604965686798,0.013365007936954498,-63.720703125,-87.58544921875,341.30859375
5.143226146697998,-1268243131,0,0.3416624963283539,-0.2627597153186798,-0.2048967182636261,-20.20263671875,-123.22998046875,399.47509765625
5.143764972686768,-1268243133,1,-2.3072469234466553,-1.2248748540878296,-0.1907939910888672,-93.017578125,367.24853515625,-480.8349609375
5.165212154388428,-1268243112,0,0.7415648102760315,-0.070132777094841,-0.5728166103363037,52.91748046875,-191.71142578125,471.86279296875
5.1730029582977295,-1268243114,1,-2.9088094234466553,-1.3755096197128296,-0.1375713348388672,-122.13134765625,361.87744140625,-569.2138671875
5.173112154006958,-1268243095,1,-3.5284383296966553,-1.4018768072128296,-0.08849906176328659,-165.6494140625,347.47314453125,-660.70556640625
5.195348262786865,-1268243093,0,1.3775511980056763,0.075375035405159,-1.0007951259613037,111.51123046875,-299.9267578125,482.11669921875
5.195417165756226,-1268243074,0,2.3380002975463867,0.4100918471813202,-1.4922502040863037,125.79345703125,-430.0537109375,448.1201171875
5.202621221542358,-1268243076,1,-4.371699810028076,-1.2998260259628296,-0.2789287567138672,-236.26708984375,325.86669921875,-701.171875
5.22837495803833,-1268243055,0,3.4532346725463867,0.5863613486289978,-1.7273576259613037,70.25146484375,-502.99072265625,453.9794921875
5.228384017944336,-1268243036,0,5.350207328796387,0.8702968955039978,-0.9705216884613037,-105.28564453125,-341.85791015625,493.7744140625
5.243451118469238,-1268243057,1,-4.972041606903076,-1.1350311040878296,-0.4659404754638672,-319.2138671875,313.17138671875,-668.64013671875
5.243458986282349,-1268243038,1,-5.790645122528076,-0.8393767476081848,-0.7371807098388672,-517.7001953125,331.6650390625,-600.03662109375
5.255272150039673,-1268243017,0,4.896349906921387,1.3231778144836426,1.6171247959136963,-309.87548828125,92.83447265625,459.5947265625
5.262562036514282,-1268243019,1,-6.395381450653076,-1.2876189947128296,-0.3353252410888672,-752.13623046875,387.451171875,-525.20751953125
5.26267409324646,-1268243000,1,-5.686641216278076,-2.51442551612854,1.2757587432861328,-851.13525390625,334.89990234375,-438.78173828125
5.29311203956604,-1268242998,0,2.9881467819213867,0.4965176284313202,1.3593122959136963,-395.69091796875,327.45361328125,363.1591796875
5.293125152587891,-1268242979,0,1.1773558855056763,-1.5093417167663574,1.1268904209136963,-354.43115234375,449.52392578125,452.5146484375
5.295796155929565,-1268242981,1,-4.869746685028076,-2.28175950050354,2.536012649536133,-801.1474609375,279.72412109375,-239.2578125
5.32150411605835,-1268242945,1,-3.7662312984466553,-0.9702361226081848,2.139772415161133,-501.40380859375,163.39111328125,-15.13671875
5.345277309417725,-1268242943,0,4.089709281921387,-0.192691370844841,1.9926130771636963,172.30224609375,-96.5576171875,-210.9375
5.3453991413116455,-1268242924,0,3.4083127975463867,-0.8157382607460022,1.7951033115386963,150.2685546875,132.87353515625,-214.53857421875
5.352521896362305,-1268242926,1,-3.4207723140716553,-0.6106169819831848,1.9810810089111328,-433.77685546875,219.3603515625,76.47705078125
5.388426065444946,-1268242905,0,2.1702756881713867,-1.2278475761413574,1.2655622959136963,101.806640625,248.6572265625,-133.23974609375
5.388434171676636,-1268242886,0,2.8067502975463867,-1.1648592948913574,1.9088728427886963,181.09130859375,199.3408203125,-175.4150390625
5.404374122619629,-1268242867,0,3.3633909225463867,-1.2759432792663574,1.5912458896636963,214.66064453125,270.44677734375,-209.89990234375
5.412682056427002,-1268242907,1,-3.5225789546966553,-0.4192107617855072,1.9290790557861328,-507.50732421875,175.9033203125,176.33056640625
5.41276216506958,-1268242888,1,-3.6539266109466553,-0.9209197163581848,2.331178665161133,-527.28271484375,29.84619140625,291.80908203125
5.413820266723633,-1268242869,1,-2.5999715328216553,-1.0517791509628296,2.339235305786133,-410.2783203125,-71.83837890625,267.76123046875
5.413891077041626,-1268242850,1,-2.3599812984466553,-0.6238005757331848,2.060182571411133,-315.49072265625,-111.51123046875,251.40380859375
5.443118095397949,-1268242848,0,3.1710081100463867,-1.5559725761413574,0.9362165927886963,182.9833984375,382.01904296875,-205.2001953125
5.443192005157471,-1268242829,0,2.9549436569213867,-1.7488436698913574,0.3529646098613739,174.62158203125,476.01318359375,-135.68115234375
5.4436962604522705,-1268242831,1,-2.7611043453216553,-0.5434783101081848,1.7181415557861328,-302.30712890625,-169.3115234375,291.1376953125
5.465183973312378,-1268242810,0,2.7823362350463867,-1.5789217948913574,-0.2000139057636261,174.86572265625,528.1982421875,-84.28955078125
5.472896099090576,-1268242812,1,-2.0347859859466553,0.2887970507144928,0.6766376495361328,-274.2919921875,-262.02392578125,311.95068359375
5.473016023635864,-1268242793,1,-1.6314656734466553,-1.2820037603378296,1.5308856964111328,-168.0908203125,-335.75439453125,219.1162109375
5.495218276977539,-1268242791,0,2.3990354537963867,-1.2883944511413574,-0.8218400478363037,128.0517578125,555.72509765625,-24.84130859375
5.495355129241943,-1268242772,0,2.0394163131713867,-0.8819003701210022,-1.1880509853363037,101.806640625,537.2314453125,29.4189453125
5.537549018859863,-1268242753,0,1.8458129167556763,-0.6929355263710022,-1.2110002040863037,64.94140625,520.1416015625,97.83935546875
5.537557125091553,-1268242734,0,1.5638304948806763,-0.2981601059436798,-1.3196427822113037,29.35791015625,527.77099609375,177.978515625
5.540769100189209,-1268242774,1,-1.9190633296966553,-0.1462615430355072,0.4823017120361328,-90.51513671875,-327.0263671875,133.9111328125
5.540776252746582,-1268242755,1,-1.9720418453216553,-1.1052459478378296,1.0645771026611328,-110.41259765625,-359.55810546875,136.41357421875
5.555154085159302,-1268242715,0,1.5643187761306763,-0.5806308388710022,-0.7383439540863037,57.43408203125,480.28564453125,207.70263671875
5.562572002410889,-1268242736,1,-1.5523641109466553,0.1369415819644928,0.1959247589111328,-48.095703125,-369.56787109375,80.56640625
5.562682151794434,-1268242717,1,-2.0152547359466553,-0.7302458882331848,0.4444599151611328,-83.92333984375,-360.90087890625,105.16357421875
5.592375040054321,-1268242679,0,2.0208616256713867,-0.059390585869550705,-0.5064103603363037,139.16015625,366.76025390625,40.0390625
5.59447717666626,-1268242681,1,-1.4119832515716553,-0.1211150586605072,0.1876239776611328,52.001953125,-394.04296875,208.740234375
5.617398977279663,-1268242660,0,1.7969847917556763,0.168880894780159,-0.5713517665863037,137.0849609375,373.96240234375,19.83642578125
5.622730016708374,-1268242662,1,-1.2225301265716553,-0.4258025586605072,0.1737079620361328,114.013671875,-395.6298828125,210.63232421875
5.622841119766235,-1268242643,1,-0.8734089732170105,-0.3691619336605072,0.02234078198671341,153.62548828125,-377.9296875,176.08642578125
5.651666164398193,-1268242624,1,-0.6705281138420105,-0.1496795117855072,-0.06091117113828659,142.822265625,-323.05908203125,181.884765625
5.686350107192993,-1268242641,0,1.5953246355056763,0.5541347861289978,-0.6443498134613037,94.482421875,412.841796875,62.1337890625
5.6863579750061035,-1268242622,0,1.5303832292556763,0.6957363486289978,-0.4448869526386261,52.001953125,449.27978515625,87.34130859375
5.686363220214844,-1268242603,0,1.3641234636306763,0.108578160405159,0.0016462579369544983,115.78369140625,456.6650390625,59.14306640625
5.686367988586426,-1268242584,0,1.0374633073806763,-0.078433558344841,-0.1030900701880455,194.091796875,420.10498046875,13.18359375
5.688159227371216,-1268242605,1,-0.6077839732170105,-0.021261539310216904,-0.03625296801328659,97.47314453125,-275.87890625,189.94140625
5.68816614151001,-1268242586,1,-0.5679890513420105,0.058328304439783096,0.00842476636171341,71.044921875,-262.51220703125,203.79638671875
5.705418109893799,-1268242565,0,0.8619261384010315,-0.106998011469841,-0.3208635151386261,216.12548828125,385.55908203125,-4.94384765625
5.712684154510498,-1268242567,1,-0.4520222544670105,-0.1787322461605072,0.2198505401611328,80.322265625,-262.02392578125,214.66064453125
5.744070053100586,-1268242548,1,-0.0906941294670105,-0.4343474805355072,0.4290790557861328,144.6533203125,-269.6533203125,169.3115234375
5.744088172912598,-1268242529,1,0.0960734486579895,-0.5090544819831848,0.4273700714111328,193.66455078125,-242.73681640625,84.28955078125
5.765374183654785,-1268242546,0,0.6082640290260315,-0.147525355219841,-0.3887346088886261,196.2890625,375.8544921875,25.57373046875
5.765450954437256,-1268242527,0,0.4510374963283539,-0.165103480219841,-0.4131486713886261,145.6298828125,386.23046875,109.130859375
5.766495227813721,-1268242508,0,0.4180785119533539,-0.2752108871936798,-0.5100724697113037,59.4482421875,393.85986328125,230.28564453125
5.772762060165405,-1268242510,1,0.054569538682699203,-0.4690154492855072,0.5216083526611328,204.65087890625,-225.09765625,9.94873046875
5.772853136062622,-1268242491,1,0.013553913682699203,-0.3335174024105072,0.5057392120361328,169.37255859375,-219.8486328125,-58.65478515625
5.801588296890259,-1268242472,1,-0.020381633192300797,-0.2490447461605072,0.4754657745361328,81.6650390625,-229.55322265625,-109.86328125
5.825226068496704,-1268242489,0,0.4173460900783539,-0.3687167465686798,-0.5398576259613037,10.68115234375,374.51171875,323.6083984375
5.838762998580933,-1268242470,0,0.6028929352760315,-0.4861483871936798,-0.6301896572113037,6.103515625,298.76708984375,393.85986328125
5.838770151138306,-1268242451,0,0.9886351227760315,-0.3342929184436798,-0.8125627040863037,71.10595703125,209.716796875,410.5224609375
5.842095136642456,-1268242453,1,-0.010616008192300797,-0.2390349805355072,0.5316181182861328,-15.5029296875,-250.06103515625,-166.259765625
5.85513710975647,-1268242415,0,1.6487914323806763,0.029964882880449295,-1.1878068447113037,115.17333984375,140.869140625,403.25927734375
5.862436056137085,-1268242417,1,-0.2154499888420105,-0.3420623242855072,0.5721454620361328,-110.2294921875,-285.58349609375,-268.06640625
5.893459320068359,-1268242396,0,1.7623168230056763,0.2933926284313202,-1.4243791103363037,70.068359375,132.8125,413.4521484375
5.893470287322998,-1268242377,0,1.9080687761306763,0.232357457280159,-1.4746720790863037,53.955078125,105.8349609375,411.56005859375
5.895934343338013,-1268242398,1,-0.3865925669670105,-0.3899138867855072,0.6417255401611328,-100.7080078125,-300.84228515625,-309.4482421875
5.895941257476807,-1268242379,1,-0.5032917857170105,-0.4072478711605072,0.6917743682861328,-70.556640625,-304.6875,-354.98046875
5.921911001205444,-1268242360,1,-0.8375203013420105,-0.4370330274105072,0.7252216339111328,-21.42333984375,-305.11474609375,-426.33056640625
5.922799110412598,-1268242341,1,-1.2122762203216553,-0.3969939649105072,0.7264423370361328,20.8740234375,-302.79541015625,-489.07470703125
5.945151329040527,-1268242358,0,2.0408811569213867,0.4020352065563202,-1.4964005947113037,17.88330078125,65.5517578125,411.19384765625
5.9452290534973145,-1268242339,0,2.2064085006713867,0.4115566909313202,-1.3850724697113037,-20.5078125,7.9345703125,407.2265625
5.946433067321777,-1268242320,0,2.4175901412963867,0.3400234878063202,-1.3010880947113037,-18.9208984375,-28.25927734375,412.4755859375
5.952353000640869,-1268242322,1,-1.6893270015716553,-0.3415740430355072,0.7349872589111328,43.9453125,-281.67724609375,-561.1572265625
5.988556146621704,-1268242301,0,2.6480588912963867,0.4218105971813202,-1.3364884853363037,17.822265625,-60.97412109375,400.81787109375
5.991491079330444,-1268242303,1,-2.0633504390716553,-0.3579314649105072,0.7161884307861328,65.3076171875,-259.33837890625,-615.05126953125
5.991498947143555,-1268242284,1,-2.6077840328216553,-0.3965056836605072,0.5943622589111328,105.1025390625,-210.26611328125,-636.65771484375
6.006889343261719,-1268242282,0,2.7068967819213867,0.6036953330039978,-1.2957170009613037,37.17041015625,-105.04150390625,344.7265625
6.006899118423462,-1268242263,0,2.6487913131713867,0.5368008017539978,-1.3320939540863037,43.3349609375,-131.89697265625,315.36865234375
6.041515111923218,-1268242244,0,2.5867795944213867,0.4440273940563202,-1.3714005947113037,57.18994140625,-144.95849609375,320.068359375
6.04152512550354,-1268242225,0,2.7552366256713867,0.4808926284313202,-1.4861466884613037,39.6728515625,-152.28271484375,336.85302734375
6.043700218200684,-1268242265,1,-3.2403523921966553,-0.6364958882331848,0.3624286651611328,169.98291015625,-177.3681640625,-606.689453125
6.043706178665161,-1268242246,1,-3.3843953609466553,-0.5869353413581848,0.2354755401611328,253.5400390625,-180.17578125,-550.048828125
6.044116973876953,-1268242227,1,-3.4696004390716553,-0.5676482319831848,0.1969013214111328,294.98291015625,-181.7626953125,-548.9501953125
6.065253257751465,-1268242206,0,2.9468870162963867,0.6195644736289978,-1.4878556728363037,-62.3779296875,-135.31494140625,319.27490234375
6.096496105194092,-1268242187,0,2.9388303756713867,0.237972691655159,-1.1309220790863037,-186.6455078125,-120.849609375,298.88916015625
6.1030261516571045,-1268242208,1,-3.7069051265716553,-0.4402068555355072,0.1807880401611328,344.1162109375,-168.9453125,-550.78125
6.103079080581665,-1268242189,1,-3.5667684078216553,-0.0986541211605072,0.1344013214111328,415.8935546875,-136.5966796875,-466.24755859375
6.138932943344116,-1268242151,0,2.7830686569213867,-0.3521151840686798,-0.4922502338886261,-254.8828125,-208.740234375,252.8076171875
6.14073920249939,-1268242153,1,-2.8216512203216553,0.2372833788394928,0.3875751495361328,398.193359375,-74.03564453125,-197.44873046875
6.140745162963867,-1268242134,1,-2.6695516109466553,-0.1030486524105072,0.7017841339111328,309.99755859375,-141.845703125,-117.98095703125
6.155250310897827,-1268242132,0,2.8763303756713867,-0.7075839638710022,-0.0811174139380455,-231.3232421875,-281.06689453125,213.43994140625
6.155378103256226,-1268242113,0,2.4278440475463867,-1.3499178886413574,0.6488630771636963,-114.80712890625,-366.27197265625,186.6455078125
6.162410259246826,-1268242115,1,-2.4940145015716553,-0.1831267774105072,1.0623798370361328,333.19091796875,-250.06103515625,-80.2001953125
6.195871353149414,-1268242096,1,-2.7906453609466553,0.3093048632144928,1.2320575714111328,405.6396484375,-306.7626953125,15.2587890625
6.195879220962524,-1268242077,1,-2.8565633296966553,0.049050960689783096,1.0433368682861328,441.5283203125,-277.03857421875,86.0595703125
6.215551376342773,-1268242094,0,3.0482053756713867,0.5700039267539978,-0.9968888759613037,-137.6953125,-390.9912109375,30.82275390625
6.215763330459595,-1268242075,0,2.9271116256713867,-0.4983554184436798,-0.7756974697113037,-256.04248046875,-334.89990234375,92.10205078125
6.21578311920166,-1268242056,0,2.5709104537963867,-0.4446444809436798,-0.5730607509613037,-316.34521484375,-259.033203125,125.3662109375
6.222933053970337,-1268242058,1,-2.6778523921966553,0.3019806444644928,0.9888935089111328,460.3271484375,-209.53369140625,121.2158203125
6.245322942733765,-1268242037,0,1.9800902605056763,-0.8858066201210022,-0.2691057026386261,-355.89599609375,-222.900390625,137.939453125
6.2453932762146,-1268242018,0,1.5858031511306763,-0.8933749794960022,-0.0244767889380455,-306.5185546875,-273.92578125,142.02880859375
6.252490997314453,-1268242039,1,-2.6988484859466553,-0.2693084180355072,1.3194599151611328,509.58251953125,-157.71484375,120.849609375
6.252594232559204,-1268242020,1,-2.4161336421966553,-0.5798552632331848,1.7691669464111328,623.9013671875,-138.3056640625,115.29541015625
6.288647174835205,-1268241999,0,1.3773070573806763,-0.6611972451210022,-0.2554338276386261,-252.9296875,-382.87353515625,127.86865234375
6.291588068008423,-1268242001,1,-2.7838094234466553,0.2922150194644928,1.1898212432861328,625.732421875,-84.716796875,237.85400390625
6.291598081588745,-1268241982,1,-2.5675008296966553,-0.0864470899105072,1.3231220245361328,488.46435546875,-86.7919921875,285.888671875
6.308429002761841,-1268241980,0,1.6338988542556763,-0.3572421371936798,-0.7241837978363037,-282.958984375,-484.130859375,106.201171875
6.308440208435059,-1268241961,0,2.2022581100463867,-0.4824862778186798,-0.6111466884613037,-357.2998046875,-418.76220703125,83.0078125
6.312729120254517,-1268241963,1,-1.8157918453216553,-0.8078826069831848,1.2904071807861328,426.513671875,-98.6328125,207.6416015625
6.341370105743408,-1268241942,0,2.2056760787963867,-0.3948397934436798,-0.3533342182636261,-417.78564453125,-238.58642578125,78.30810546875
6.343512058258057,-1268241944,1,-1.3384969234466553,-0.8816130757331848,0.4093036651611328,422.8515625,25.69580078125,130.67626953125
6.34351921081543,-1268241925,1,-1.7247273921966553,-0.005148258060216904,0.1695575714111328,387.0849609375,137.51220703125,215.576171875
6.365253210067749,-1268241923,0,1.6932250261306763,-0.2561679184436798,-0.1177385076880455,-443.4814453125,-124.45068359375,64.88037109375
6.4245500564575195,-1268241887,0,0.6592894196510315,-0.5447421669960022,0.6671736240386963,-365.41748046875,-194.7021484375,41.93115234375
6.436931133270264,-1268241868,0,1.0306273698806763,0.089291051030159,0.7684919834136963,-328.369140625,-266.66259765625,-55.35888671875
6.43693995475769,-1268241849,0,1.1634398698806763,0.209164097905159,0.7899763584136963,-376.708984375,-220.39794921875,-119.07958984375
6.454442977905273,-1268241830,0,0.7237425446510315,-0.098941370844841,1.0328962802886963,-374.8779296875,-126.953125,-80.50537109375
6.455319166183472,-1268241811,0,0.3255492150783539,-0.023501913994550705,1.0797712802886963,-347.65625,-69.7021484375,-66.34521484375
6.462610244750977,-1268241889,1,-1.3675496578216553,-0.0744841992855072,0.01989937573671341,304.0771484375,169.677734375,182.4951171875
6.462738275527954,-1268241870,1,-2.0189168453216553,0.1059357225894928,-0.1636943817138672,268.798828125,229.67529296875,288.818359375
6.4635491371154785,-1268241851,1,-1.8380086421966553,0.3803497850894928,0.08435250073671341,235.3515625,191.46728515625,350.7080078125
6.463688135147095,-1268241832,1,-1.6060750484466553,0.1406036913394928,0.1282978057861328,191.95556640625,153.80859375,313.1103515625
6.492792129516602,-1268241792,0,0.10460193455219269,0.157650426030159,0.9994490146636963,-328.61328125,-27.2216796875,-40.52734375
6.494956970214844,-1268241813,1,-1.2403523921966553,-0.048605289310216904,0.01208687573671341,180.72509765625,132.87353515625,259.6435546875
6.494964361190796,-1268241794,1,-0.8394734263420105,-0.1613982617855072,-0.06774710863828659,192.07763671875,162.90283203125,216.61376953125
6.4949791431427,-1268241775,1,-0.7071492075920105,-0.1672576367855072,-0.1470928192138672,208.92333984375,201.66015625,202.7587890625
6.515233039855957,-1268241773,0,0.2542601525783539,0.3390469253063202,1.1764509677886963,-296.08154296875,11.16943359375,-51.025390625
6.515347242355347,-1268241754,0,0.5389280915260315,0.169125035405159,0.8151228427886963,-302.42919921875,74.5849609375,-138.0615234375
6.52583909034729,-1268241756,1,-0.6129109263420105,-0.1242888867855072,-0.2054424285888672,210.38818359375,235.3515625,194.4580078125
6.546132326126099,-1268241735,0,0.056506235152482986,0.240414097905159,0.7750837802886963,-332.21435546875,105.3466796875,-144.95849609375
6.546140193939209,-1268241716,0,-0.3568238317966461,-0.106265589594841,0.7186872959136963,-312.19482421875,103.94287109375,-148.49853515625
6.553116083145142,-1268241737,1,-0.5645710825920105,-0.1826384961605072,-0.2679424285888672,179.74853515625,258.544921875,178.89404296875
6.553261995315552,-1268241718,1,-0.5010945200920105,-0.3860076367855072,-0.10900687426328659,107.60498046875,251.46484375,153.13720703125
6.575182199478149,-1268241697,0,-0.6930055022239685,-0.247378870844841,0.7033064365386963,-248.10791015625,63.90380859375,-118.83544921875
6.591583967208862,-1268241699,1,-0.4183308482170105,-0.6728728413581848,0.07531929761171341,51.025390625,212.58544921875,106.01806640625
6.591593265533447,-1268241680,1,-0.3582722544670105,-0.8957732319831848,0.10046578198671341,37.17041015625,171.142578125,52.3681640625
6.60582709312439,-1268241678,0,-0.9474000334739685,-0.3330722153186798,0.6781599521636963,-200.62255859375,3.84521484375,-68.7255859375
6.605956077575684,-1268241659,0,-1.0604370832443237,-0.4483065903186798,0.7321150302886963,-152.89306640625,-74.951171875,27.099609375
6.612758159637451,-1268241661,1,-0.2318074107170105,-1.1352752447128296,-0.0015849992632865906,73.91357421875,127.01416015625,-14.83154296875
6.643309116363525,-1268241625,1,-0.2322956919670105,-1.0940154790878296,-0.6400127410888672,202.1484375,197.75390625,-152.2216796875
6.665358066558838,-1268241623,0,0.1695433408021927,0.117123082280159,1.0551130771636963,-55.35888671875,-144.59228515625,19.95849609375
6.6654510498046875,-1268241604,0,0.039660532027482986,-0.9934726357460022,1.3390486240386963,53.64990234375,-102.05078125,-128.11279296875
6.6723833084106445,-1268241606,1,-0.3255574107170105,-0.8921111226081848,-0.9935283660888672,172.91259765625,284.0576171875,-296.44775390625
6.695171117782593,-1268241585,0,-0.8524293303489685,-0.7097812294960022,1.2003767490386963,95.88623046875,-136.29150390625,-5.31005859375
6.695340156555176,-1268241566,0,-0.5897340178489685,-0.6690097451210022,0.8639509677886963,136.962890625,-181.45751953125,84.47265625
6.702692031860352,-1268241587,1,-1.0169637203216553,-1.2207244634628296,-1.1322002410888672,46.81396484375,362.548828125,-433.53271484375
6.7028563022613525,-1268241568,1,-1.9114949703216553,-1.3982146978378296,-1.1419658660888672,-8.23974609375,393.1884765625,-425.96435546875
6.738368034362793,-1268241547,0,0.1402464658021927,-0.2881503403186798,0.4003278911113739,78.7353515625,-160.21728515625,208.0078125
6.742541074752808,-1268241549,1,-2.3670613765716553,-1.0332244634628296,-0.9810771942138672,-18.61572265625,367.5537109375,-435.24169921875
6.7425501346588135,-1268241530,1,-2.5760457515716553,-0.8952849507331848,-0.7454814910888672,-93.32275390625,369.07958984375,-462.95166015625
6.755277156829834,-1268241528,0,0.2720824182033539,-0.2639804184436798,0.1320173442363739,-25.69580078125,-111.9384765625,320.86181640625
6.755337953567505,-1268241509,0,0.3484984338283539,-0.6409335732460022,0.0299665704369545,-72.93701171875,-117.49267578125,436.70654296875
6.762479066848755,-1268241511,1,-2.7474324703216553,-1.0547088384628296,-0.5391826629638672,-204.89501953125,423.583984375,-467.8955078125
6.794469118118286,-1268241490,0,0.6963987946510315,-0.7344394326210022,-0.1443498432636261,-55.84716796875,-171.9970703125,507.38525390625
6.797043323516846,-1268241492,1,-3.2112996578216553,-1.3725799322128296,-0.5081768035888672,-277.099609375,458.6181640625,-476.9287109375
6.79705023765564,-1268241473,1,-3.7767293453216553,-1.9350799322128296,-0.4664287567138672,-333.740234375,493.83544921875,-526.9775390625
6.815272331237793,-1268241471,0,1.3296996355056763,-0.6570468544960022,-0.4041154682636261,-17.822265625,-289.12353515625,563.96484375
6.815375089645386,-1268241452,0,2.0416135787963867,-0.6831699013710022,-0.5159318447113037,30.82275390625,-415.4052734375,577.20947265625
6.822420358657837,-1268241454,1,-4.511348247528076,-2.57741379737854,-0.1656475067138672,-377.86865234375,553.8330078125,-588.56201171875
6.845661163330078,-1268241433,0,3.3309202194213867,-0.5674472451210022,-0.7356584072113037,69.27490234375,-512.51220703125,574.40185546875
6.845668077468872,-1268241414,0,4.668078422546387,0.126156285405159,-0.5820939540863037,71.22802734375,-503.96728515625,483.45947265625
6.8525731563568115,-1268241435,1,-5.532344341278076,-3.08498215675354,-0.04162406176328659,-403.6865234375,681.7626953125,-596.3134765625
6.8526482582092285,-1268241416,1,-6.721553325653076,-3.32057785987854,0.1934833526611328,-373.779296875,742.24853515625,-564.02587890625
6.890177011489868,-1268241395,0,5.478869438171387,1.3273282051086426,0.6571638584136963,-67.138671875,-238.8916015625,329.4677734375
6.892057180404663,-1268241397,1,-7.264277935028076,-3.43825364112854,0.5831317901611328,-346.37451171875,695.49560546875,-575.8056640625
6.90538215637207,-1268241359,0,2.1192502975463867,-0.6541171669960022,0.6942732334136963,-344.78759765625,257.99560546875,247.802734375
6.915405035018921,-1268241361,1,-7.741572856903076,-3.25588059425354,1.1334247589111328,-390.80810546875,468.44482421875,-567.138671875
6.943024158477783,-1268241340,0,1.4974242448806763,-1.3460116386413574,1.7648298740386963,-41.32080078125,115.72265625,171.38671875
6.943608045578003,-1268241342,1,-6.809199810028076,-2.13820481300354,2.114870071411133,-437.56103515625,357.60498046875,-515.31982421875
6.943615198135376,-1268241323,1,-5.631221294403076,-1.2446502447128296,2.850709915161133,-441.89453125,211.85302734375,-395.263671875
6.9717302322387695,-1268241304,1,-4.448848247528076,-0.6565154194831848,2.465700149536133,-415.95458984375,50.47607421875,-252.01416015625
6.995662212371826,-1268241321,0,2.6175413131713867,-0.6328769326210022,1.4247419834136963,131.16455078125,-34.0576171875,96.923828125
6.995805263519287,-1268241302,0,3.4373655319213867,-0.2813144028186798,1.6517927646636963,183.10546875,-17.76123046875,34.60693359375
7.0029590129852295,-1268241285,1,-3.8343465328216553,-0.4270232617855072,1.8048114776611328,-383.23974609375,18.12744140625,-196.35009765625
7.003066062927246,-1268241266,1,-3.8157918453216553,0.6171662211418152,1.2127704620361328,-395.32470703125,91.24755859375,-102.47802734375
7.038531064987183,-1268241283,0,4.126574516296387,0.009945351630449295,1.7140486240386963,247.00927734375,93.3837890625,-75.439453125
7.038538932800293,-1268241264,0,3.4471311569213867,-0.9985995888710022,1.7501814365386963,179.5654296875,247.49755859375,-120.05615234375
7.041328191757202,-1268241247,1,-3.8597371578216553,1.2756134271621704,1.4224872589111328,-539.85595703125,133.60595703125,47.05810546875
7.061919927597046,-1268241228,1,-3.7120320796966553,0.6186310648918152,1.8016376495361328,-731.201171875,74.89013671875,183.837890625
7.062708139419556,-1268241209,1,-3.4549520015716553,0.041970882564783096,1.8238544464111328,-805.5419921875,0.79345703125,252.13623046875
7.0925421714782715,-1268241245,0,3.4024534225463867,-0.8472324013710022,1.6417829990386963,312.19482421875,202.69775390625,-250.244140625
7.095813035964966,-1268241226,0,3.5191526412963867,-0.8750644326210022,1.2465193271636963,270.8740234375,272.4609375,-288.14697265625
7.0958640575408936,-1268241207,0,3.6036252975463867,-1.2232089042663574,0.6998884677886963,175.10986328125,425.47607421875,-183.04443359375
7.09587025642395,-1268241188,0,3.4471311569213867,-1.2737460136413574,-0.1150529608130455,134.765625,560.24169921875,-76.416015625
7.096285104751587,-1268241190,1,-2.9080770015716553,-0.8252165913581848,0.9293231964111328,-814.63623046875,-107.5439453125,225.09765625
7.096292018890381,-1268241171,1,-2.9034383296966553,-1.2268279790878296,2.155885696411133,-536.92626953125,-193.4814453125,321.533203125
7.115225076675415,-1268241169,0,3.0489377975463867,-1.2258944511413574,-0.7451798915863037,104.8583984375,616.02783203125,-12.63427734375
7.115346193313599,-1268241150,0,2.5853147506713867,-1.1013827323913574,-1.0850236415863037,91.73583984375,593.26171875,4.2724609375
7.122421979904175,-1268241152,1,-3.2154500484466553,-1.3130096197128296,1.5697040557861328,-284.48486328125,-221.74072265625,320.9228515625
7.146177053451538,-1268241131,0,2.2034788131713867,-0.6319003701210022,-1.1082170009613037,109.2529296875,563.3544921875,52.001953125
7.152452230453491,-1268241133,1,-2.8814656734466553,-0.8467009663581848,0.7139911651611328,-269.22607421875,-314.02587890625,216.1865234375
7.175286054611206,-1268241095,0,1.6358519792556763,-0.5581699013710022,-0.8054826259613037,8.11767578125,535.64453125,203.79638671875
7.191781044006348,-1268241097,1,-3.1414754390716553,-1.1640838384628296,1.4127216339111328,-95.88623046875,-536.80419921875,74.8291015625
7.205233097076416,-1268241076,0,2.1028928756713867,-0.140689417719841,-0.7310197353363037,95.703125,425.048828125,127.13623046875
7.205370187759399,-1268241057,0,1.9888793230056763,-0.160464808344841,-0.6116349697113037,117.37060546875,415.6494140625,72.3876953125
7.21266508102417,-1268241078,1,-3.1444051265716553,-0.1479705274105072,-0.1702861785888672,-20.263671875,-527.2216796875,175.59814453125
7.212740182876587,-1268241059,1,-2.3987996578216553,-0.3261931836605072,0.00866890698671341,-19.53125,-543.88427734375,290.1611328125
7.243197202682495,-1268241038,0,2.0079221725463867,0.111019566655159,-0.5996720790863037,175.048828125,420.34912109375,8.1787109375
7.243746995925903,-1268241040,1,-1.8760945796966553,-1.1599334478378296,0.3658466339111328,145.81298828125,-579.1015625,201.416015625
7.243756055831909,-1268241021,1,-1.8362996578216553,-0.9402068257331848,-0.00915335863828659,206.23779296875,-569.27490234375,163.14697265625
7.2651519775390625,-1268241019,0,1.7432738542556763,0.9911465048789978,-1.1638810634613037,102.5390625,457.45849609375,16.54052734375
7.265268325805664,-1268241000,0,1.3607054948806763,1.3273282051086426,-1.1770646572113037,-26.85546875,490.41748046875,59.326171875
7.272959232330322,-1268241002,1,-1.6212117671966553,-0.5315154194831848,-0.3641338348388672,176.20849609375,-550.048828125,185.11962890625
7.29507303237915,-1268240981,0,1.1473265886306763,0.084652379155159,-0.3172014057636261,24.0478515625,463.43994140625,76.2939453125
7.30443000793457,-1268240983,1,-1.2122762203216553,-0.4072478711605072,-0.5650615692138672,93.93310546875,-508.11767578125,233.3984375
7.304440021514893,-1268240964,1,-0.6358601450920105,-0.6767790913581848,-0.5657939910888672,44.25048828125,-442.0166015625,209.89990234375
7.338228225708008,-1268240962,0,1.0103636980056763,0.050960976630449295,-0.1477678120136261,153.1982421875,363.22021484375,44.677734375
7.338236093521118,-1268240943,0,0.9483519196510315,-0.029361288994550705,-0.2427385151386261,168.02978515625,314.453125,-2.13623046875
7.341061115264893,-1268240945,1,-0.1871296763420105,-0.5637419819831848,-0.3184795379638672,42.8466796875,-349.9755859375,165.34423828125
7.3555309772491455,-1268240924,0,0.7042112946510315,-0.2600741684436798,-0.2539689838886261,153.74755859375,313.41552734375,17.51708984375
7.355656147003174,-1268240905,0,0.5150023102760315,-0.4006991684436798,-0.3694474995136261,144.71435546875,299.4384765625,97.83935546875
7.36290717124939,-1268240926,1,-0.021114055067300797,-0.4624236524105072,0.1861591339111328,43.39599609375,-232.177734375,142.76123046875
7.362997055053711,-1268240907,1,-0.1690632700920105,-0.6689665913581848,0.5538349151611328,46.9970703125,-200.13427734375,75.8056640625
7.393434047698975,-1268240886,0,0.6094847321510315,-0.4326815903186798,-0.4678361713886261,135.43701171875,287.9638671875,200.98876953125
7.394010066986084,-1268240888,1,-0.3116413950920105,-0.8694060444831848,0.6419696807861328,45.95947265625,-224.4873046875,-23.25439453125
7.415140151977539,-1268240867,0,0.9022093415260315,-0.5576816201210022,-0.5842912197113037,115.1123046875,284.97314453125,292.6025390625
7.422369956970215,-1268240869,1,-0.5015828013420105,-0.8730681538581848,0.6737079620361328,7.01904296875,-241.5771484375,-100.7080078125
7.445144176483154,-1268240831,0,1.2459594011306763,-0.5637851357460022,-0.9207170009613037,164.61181640625,244.0185546875,319.76318359375
7.45274806022644,-1268240833,1,-0.6773640513420105,-0.9309294819831848,0.6800556182861328,-84.28955078125,-265.44189453125,-218.6279296875
7.452800989151001,-1268240814,1,-0.9019734263420105,-0.9489958882331848,0.7423114776611328,-111.26708984375,-286.7431640625,-315.36865234375
7.477266311645508,-1268240812,0,1.3350707292556763,-0.4922519028186798,-1.2034318447113037,208.43505859375,215.33203125,316.22314453125
7.477275133132935,-1268240793,0,1.5193969011306763,-0.3919101059436798,-1.5330216884613037,196.22802734375,201.72119140625,344.29931640625
7.492390155792236,-1268240795,1,-1.1124227046966553,-0.8247283101081848,0.6744403839111328,-116.2109375,-314.8193359375,-408.447265625
7.505780935287476,-1268240774,0,1.5794554948806763,-0.153384730219841,-1.9829728603363037,192.0166015625,186.8896484375,367.24853515625
7.50588321685791,-1268240755,0,1.5464965105056763,-0.115298792719841,-1.9966447353363037,165.4052734375,166.3818359375,404.296875
7.512698173522949,-1268240776,1,-1.4876668453216553,-0.8059294819831848,0.5045185089111328,-106.4453125,-315.5517578125,-451.23291015625
7.512776136398315,-1268240757,1,-1.6624715328216553,-0.7505095601081848,0.5111103057861328,-64.453125,-294.189453125,-486.9384765625
7.542875051498413,-1268240736,0,1.6832152605056763,-0.080630823969841,-2.0591447353363037,96.61865234375,164.0625,464.7216796875
7.545071125030518,-1268240738,1,-1.9217488765716553,-0.7263396382331848,0.5467548370361328,-13.0615234375,-260.80322265625,-502.74658203125
7.565130949020386,-1268240717,0,1.8414183855056763,-0.144351527094841,-2.2210099697113037,21.8505859375,133.1787109375,493.2861328125
7.565288305282593,-1268240698,0,1.8531371355056763,-0.2520175278186798,-2.0669572353363037,-19.1650390625,57.06787109375,491.69921875
7.572888135910034,-1268240719,1,-2.1981160640716553,-0.7436736226081848,0.5919208526611328,51.20849609375,-218.32275390625,-530.3955078125
7.572977066040039,-1268240700,1,-2.5479695796966553,-0.8176482319831848,0.5655536651611328,122.0703125,-182.9833984375,-584.716796875
7.595139026641846,-1268240679,0,2.3467893600463867,-0.4873690903186798,-2.0940568447113037,-56.15234375,-12.51220703125,507.32421875
7.602633953094482,-1268240681,1,-2.9739949703216553,-0.8244841694831848,0.3624286651611328,152.89306640625,-150.87890625,-644.10400390625
7.602790117263794,-1268240662,1,-3.5701863765716553,-0.9448454976081848,0.1744403839111328,146.05712890625,-124.755859375,-697.20458984375
7.638066291809082,-1268240660,0,3.2242307662963867,-0.7385898232460022,-1.9907853603363037,-29.296875,-61.4013671875,546.2646484375
7.638073205947876,-1268240641,0,3.8482542037963867,-0.3086581528186798,-2.3491837978363037,4.57763671875,-102.47802734375,524.59716796875
7.640806198120117,-1268240643,1,-4.328486919403076,-1.1758025884628296,0.2330341339111328,164.55078125,-139.58740234375,-765.5029296875
7.655009031295776,-1268240622,0,3.9593381881713867,0.2911953628063202,-2.3499162197113037,-63.96484375,-175.048828125,456.9091796875
7.662937164306641,-1268240624,1,-5.065303325653076,-1.2734588384628296,0.4276142120361328,248.71826171875,-169.3115234375,-804.99267578125
7.663090229034424,-1268240605,1,-5.300410747528076,-1.1235564947128296,0.2213153839111328,417.90771484375,-152.2216796875,-753.47900390625
7.692591190338135,-1268240603,0,4.269640922546387,0.045101601630449295,-1.8967912197113037,-185.05859375,-197.6318359375,452.63671875
7.714438199996948,-1268240567,0,4.515490531921387,-0.4153476059436798,-0.7339494228363037,-293.45703125,-186.46240234375,383.60595703125
7.7152581214904785,-1268240548,0,4.142931938171387,-0.4209628403186798,-0.5003068447113037,-287.29248046875,-175.9033203125,287.04833984375
7.722755193710327,-1268240569,1,-4.598750591278076,0.5341584086418152,-0.5943584442138672,767.88330078125,61.8896484375,-403.50341796875
7.722826957702637,-1268240550,1,-4.182734966278076,1.8122345209121704,-0.3853740692138672,702.20947265625,52.55126953125,-215.27099609375
7.745139122009277,-1268240529,0,3.3052854537963867,-0.6965976357460022,-0.0842912420630455,-269.10400390625,-214.9658203125,202.33154296875
7.7529542446136475,-1268240531,1,-4.314326763153076,1.5424591302871704,0.2310810089111328,405.21240234375,-101.4404296875,2.3193359375
7.753052234649658,-1268240512,1,-4.371699810028076,1.2719513177871704,1.1602802276611328,323.486328125,-307.4951171875,181.2744140625
7.790057182312012,-1268240510,0,3.2203245162963867,-0.071109339594841,-1.2095353603363037,-209.8388671875,-280.09033203125,128.60107421875
7.790065288543701,-1268240491,0,3.4332151412963867,-0.5081210732460022,-1.1157853603363037,-357.11669921875,-315.49072265625,138.7939453125
7.804291009902954,-1268240472,0,3.2073850631713867,-0.9407382607460022,-0.6887834072113037,-436.8896484375,-249.57275390625,158.87451171875
7.812783241271973,-1268240493,1,-3.9219930171966553,0.5815216898918152,0.9298114776611328,357.5439453125,-299.13330078125,234.06982421875
7.812891244888306,-1268240474,1,-3.4373738765716553,0.1191193163394928,1.0909442901611328,422.66845703125,-182.18994140625,243.896484375
7.814121246337891,-1268240455,1,-3.3751180171966553,-0.0630095899105072,1.8480243682861328,544.49462890625,-47.607421875,271.240234375
7.841972351074219,-1268240453,0,2.5255002975463867,-1.2778964042663574,-0.2251603901386261,-443.05419921875,-275.45166015625,147.39990234375
7.841980218887329,-1268240434,0,2.0909299850463867,-1.3179354667663574,0.2806989848613739,-346.74072265625,-376.3427734375,149.84130859375
7.844093322753906,-1268240436,1,-2.5650594234466553,-1.9431365728378296,2.756471633911133,742.431640625,14.34326171875,101.07421875
7.8668131828308105,-1268240415,0,2.0694456100463867,-0.7107577919960022,-0.2288224995136261,-318.05419921875,-464.66064453125,106.75048828125
7.866824150085449,-1268240396,0,2.3482542037963867,-0.7068515419960022,-0.5879533290863037,-412.17041015625,-463.623046875,119.93408203125
7.872842073440552,-1268240417,1,-3.2623250484466553,1.2060333490371704,1.1204853057861328,596.8017578125,80.810546875,447.3876953125
7.872958183288574,-1268240398,1,-3.0328328609466553,-1.5735076665878296,1.4913349151611328,427.001953125,59.50927734375,367.37060546875
7.89509916305542,-1268240377,0,2.7379026412963867,-1.1245760917663574,-0.0242326483130455,-501.46484375,-278.25927734375,84.47265625
7.902666091918945,-1268240379,1,-2.4449422359466553,-2.00148606300354,-0.05456351488828659,316.40625,111.328125,223.5107421875
7.902790069580078,-1268240360,1,-2.2884480953216553,-0.3725799024105072,0.5609149932861328,356.99462890625,174.25537109375,396.97265625
7.938206195831299,-1268240358,0,2.2396116256713867,-1.1807284355163574,0.4764997661113739,-481.14013671875,-111.9384765625,45.10498046875
7.938216209411621,-1268240339,0,1.2369261980056763,-1.1106600761413574,0.4699079692363739,-400.93994140625,-91.73583984375,29.72412109375
7.940845012664795,-1268240341,1,-1.8892781734466553,-0.9839079976081848,0.6519794464111328,322.509765625,144.34814453125,277.099609375
7.961487054824829,-1268240305,1,-1.8221395015716553,-0.2314666211605072,0.4761981964111328,357.0556640625,302.1240234375,354.248046875
7.99251127243042,-1268240303,0,1.5091429948806763,-0.177310511469841,0.8427107334136963,-249.3896484375,-301.45263671875,-65.24658203125
7.992522954940796,-1268240284,0,1.3965941667556763,0.219418004155159,0.9174177646636963,-318.90869140625,-262.8173828125,-99.42626953125
7.994450092315674,-1268240286,1,-1.5931355953216553,0.1047150194644928,0.3333759307861328,261.23046875,334.3505859375,356.87255859375
8.021929264068604,-1268240267,1,-1.7908895015716553,-0.2263396680355072,0.3350849151611328,176.3916015625,329.40673828125,316.2841796875
8.023151159286499,-1268240248,1,-2.0040242671966553,-0.7236540913581848,0.4276142120361328,120.9716796875,252.8076171875,245.30029296875
8.04737401008606,-1268240265,0,0.7640257477760315,0.146908238530159,0.9750349521636963,-390.44189453125,-154.6630859375,-38.26904296875
8.04738712310791,-1268240246,0,0.7278929352760315,-0.5230136513710022,0.6278669834136963,-465.576171875,-63.720703125,0.91552734375
8.047393083572388,-1268240227,0,0.9979124665260315,0.221126988530159,0.8314802646636963,-496.9482421875,55.48095703125,-87.70751953125
8.052594184875488,-1268240229,1,-1.5306355953216553,-1.0747283697128296,0.4342060089111328,121.03271484375,131.40869140625,194.3359375
8.052694082260132,-1268240210,1,-0.8760945200920105,-0.9673064351081848,0.2178974151611328,154.541015625,73.30322265625,125.3662109375
8.088778018951416,-1268240208,0,0.5247679352760315,-0.4822421371936798,0.6356794834136963,-597.0458984375,148.62060546875,-206.72607421875
8.088785171508789,-1268240189,0,-0.4347046911716461,-1.3840975761413574,0.7645857334136963,-549.13330078125,137.8173828125,-257.2021484375
8.093065977096558,-1268240191,1,-0.7696492075920105,-1.0432342290878296,-0.1375713348388672,163.0859375,70.98388671875,106.14013671875
8.10540223121643,-1268240170,0,-0.9693726897239685,-1.7454257011413574,1.1000349521636963,-391.05224609375,35.94970703125,-263.00048828125
8.11254596710205,-1268240172,1,-0.7564656138420105,-1.1391814947128296,-0.6634502410888672,134.1552734375,76.59912109375,54.0771484375
8.112645149230957,-1268240153,1,-0.6329304575920105,-1.3191131353378296,-0.7188701629638672,56.2744140625,111.38916015625,-55.72509765625
8.143541097640991,-1268240151,0,-0.8140992522239685,-1.4390292167663574,1.5792829990386963,-108.88671875,-133.97216796875,-252.74658203125
8.143550157546997,-1268240132,0,0.10679920017719269,-1.2085604667663574,1.4271833896636963,137.75634765625,-194.64111328125,-343.68896484375
8.146097183227539,-1268240134,1,-0.8236042857170105,-1.4875701665878296,-0.6409893035888672,-0.18310546875,202.0263671875,-170.22705078125
8.165197134017944,-1268240113,0,-1.3897827863693237,-1.8357577323913574,1.3434431552886963,210.38818359375,-189.39208984375,-145.08056640625
8.16533613204956,-1268240094,0,-0.8350953459739685,-1.5928378105163574,0.9557478427886963,234.130859375,-217.46826171875,97.47314453125
8.172822952270508,-1268240115,1,-1.3421590328216553,-1.6870330572128296,-0.7325420379638672,-42.6025390625,304.01611328125,-270.93505859375
8.172929048538208,-1268240096,1,-1.9664266109466553,-1.7251189947128296,-0.9363994598388672,-143.00537109375,449.5849609375,-390.19775390625
8.195186138153076,-1268240075,0,-0.018200796097517014,-0.8325839638710022,0.3812849223613739,45.22705078125,-76.5380859375,363.09814453125
8.202454090118408,-1268240077,1,-3.3082234859466553,-2.42433762550354,-0.8353252410888672,-245.78857421875,622.37548828125,-424.86572265625
8.226697206497192,-1268240039,0,-0.4727906286716461,-1.3137850761413574,0.0870954766869545,-184.63134765625,-119.81201171875,520.1416015625
8.241070032119751,-1268240041,1,-4.708858013153076,-3.14089035987854,0.2730731964111328,-153.9306640625,747.55859375,-527.4658203125
8.256747007369995,-1268240020,0,0.3450804650783539,-1.3853182792663574,-0.1922014057636261,-43.64013671875,-302.490234375,577.5146484375
8.26263427734375,-1268240022,1,-5.733760356903076,-3.31471848487854,0.4188251495361328,-194.76318359375,830.74951171875,-602.23388671875
8.262784957885742,-1268240003,1,-6.515986919403076,-3.38234543800354,0.6676044464111328,-276.42822265625,822.32666015625,-658.203125
8.293369054794312,-1268240001,0,1.2198363542556763,-1.2671542167663574,-0.5845353603363037,42.78564453125,-395.81298828125,588.37890625
8.293378114700317,-1268239982,0,2.6070432662963867,-1.4429354667663574,-1.0005509853363037,24.169921875,-506.4697265625,668.0908203125
8.293930292129517,-1268239984,1,-6.995967388153076,-3.57985520362854,0.7471942901611328,-380.79833984375,764.6484375,-691.46728515625
8.315149068832397,-1268239963,0,5.421984672546387,-1.7966952323913574,-0.8311173915863037,-16.4794921875,-625.3662109375,749.57275390625
8.322782278060913,-1268239965,1,-7.845576763153076,-4.344259738922119,0.6026630401611328,-503.47900390625,722.900390625,-682.06787109375
8.32287311553955,-1268239946,1,7.980106830596924,-5.628927707672119,0.8948993682861328,-568.84765625,699.951171875,-676.45263671875
8.345967054367065,-1268239944,0,7.960070610046387,0.3805508315563202,1.1930525302886963,-58.59375,-404.541015625,577.0263671875
8.345975160598755,-1268239925,0,6.973010063171387,0.8256191611289978,1.8095076084136963,-166.80908203125,-12.87841796875,322.08251953125
8.3524911403656,-1268239927,1,7.980106830596924,-6.387472629547119,1.6475849151611328,-483.70361328125,710.51025390625,-722.71728515625
8.389080047607422,-1268239906,0,2.9666624069213867,-2.1214022636413574,2.2199079990386963,-97.2900390625,220.64208984375,123.291015625
8.39207410812378,-1268239908,1,7.980106830596924,-4.855246067047119,2.741579055786133,-211.669921875,631.16455078125,-744.9951171875
8.392081260681152,-1268239889,1,7.980106830596924,-1.9978240728378296,3.248414993286133,-116.943359375,433.10546875,-642.02880859375
8.412070274353027,-1268239870,1,-7.134150981903076,0.1894318163394928,3.127565383911133,-312.56103515625,68.603515625,-515.2587890625
8.41294527053833,-1268239851,1,-5.912227153778076,0.5385529398918152,2.279909133911133,-426.3916015625,-106.93359375,-420.71533203125
8.445742130279541,-1268239887,0,2.5809202194213867,-1.5779452323913574,1.5836775302886963,302.6123046875,56.70166015625,-17.9443359375
8.445750951766968,-1268239868,0,3.3841428756713867,-0.6829257607460022,0.9032576084136963,295.47119140625,50.35400390625,78.55224609375
8.446617126464844,-1268239849,0,4.478625297546387,-0.134830042719841,1.1349470615386963,249.08447265625,115.234375,174.1943359375
8.446624040603638,-1268239830,0,4.391467094421387,-0.7800937294960022,1.3436872959136963,202.2705078125,242.3095703125,97.71728515625
8.448387145996094,-1268239832,1,-5.589717388153076,2.13718581199646,1.6690692901611328,-338.9892578125,-18.61572265625,-289.73388671875
8.4652259349823,-1268239811,0,4.413683891296387,-1.4634432792663574,1.8983747959136963,414.794921875,209.28955078125,-166.259765625
8.472824096679688,-1268239813,1,-6.232783794403076,3.29294753074646,1.2301044464111328,-461.24267578125,-29.6630859375,0.18310546875
8.495418071746826,-1268239775,0,4.782580375671387,-1.7156405448913574,0.2238142192363739,356.01806640625,511.5966796875,-270.751953125
8.50243616104126,-1268239777,1,-4.279658794403076,1.5822540521621704,1.9510517120361328,-759.521484375,-212.40234375,318.84765625
8.537632942199707,-1268239756,0,3.7518186569213867,-1.8211092948913574,-1.5928361415863037,181.82373046875,741.02783203125,-6.89697265625
8.53764295578003,-1268239737,0,3.1080198287963867,-2.0005526542663574,-1.7019670009613037,169.37255859375,737.60986328125,103.1494140625
8.554104089736938,-1268239718,0,2.7471799850463867,-1.1777987480163574,-2.7407853603363037,164.61181640625,601.86767578125,82.1533203125
8.563148021697998,-1268239758,1,-4.474727153778076,0.0038849450647830963,0.9901142120361328,-835.5712890625,-293.9453125,375.54931640625
8.563315153121948,-1268239739,1,-3.9759480953216553,-1.2400115728378296,1.0294208526611328,-675.96435546875,-358.94775390625,420.654296875
8.563337326049805,-1268239720,1,-4.047725200653076,-2.17043137550354,1.4854755401611328,-417.78564453125,-429.26025390625,409.97314453125
8.564028263092041,-1268239701,1,-3.2769734859466553,-0.5354216694831848,-1.3538799285888672,-297.7294921875,-543.51806640625,330.9326171875
8.592223167419434,-1268239699,0,2.0030393600463867,-0.7302890419960022,-2.4129045009613037,183.837890625,539.794921875,69.76318359375
8.592231273651123,-1268239680,0,2.0633420944213867,-0.5235019326210022,-2.0056779384613037,159.48486328125,517.63916015625,103.271484375
8.592806100845337,-1268239682,1,-2.2108113765716553,-1.8454803228378296,0.09192086011171341,-158.8134765625,-623.1689453125,219.970703125
8.615118026733398,-1268239661,0,2.5047483444213867,-0.3367343246936798,-1.6343400478363037,195.61767578125,469.1162109375,64.94140625
8.622550010681152,-1268239663,1,-2.4432332515716553,-1.6208709478378296,0.5008563995361328,137.39013671875,-586.24267578125,188.3544921875
8.622660160064697,-1268239644,1,-2.4569051265716553,-0.9467986226081848,-0.2266826629638672,212.34130859375,-538.6962890625,283.63037109375
8.645986080169678,-1268239642,0,2.2623167037963867,-0.4553866684436798,-1.2205216884613037,206.23779296875,470.64208984375,8.97216796875
8.645995140075684,-1268239623,0,1.8111449480056763,0.022884804755449295,-1.4895646572113037,185.11962890625,482.7880859375,46.38671875
8.652624130249023,-1268239625,1,-1.7281453609466553,-1.6557830572128296,0.11242867261171341,281.25,-491.88232421875,333.06884765625
8.687613248825073,-1268239604,0,1.5865355730056763,0.111507847905159,-1.3101212978363037,150.634765625,467.59033203125,59.38720703125
8.687624216079712,-1268239585,0,1.7198363542556763,-0.5567050576210022,-0.7061173915863037,200.3173828125,418.212890625,11.71875
8.691254138946533,-1268239606,1,-1.4842488765716553,-1.1594451665878296,-0.08898734301328659,346.00830078125,-378.90625,374.45068359375
8.691261291503906,-1268239587,1,-1.6583211421966553,-0.2595427930355072,-0.1544170379638672,234.80224609375,-275.7568359375,470.03173828125
8.70552110671997,-1268239566,0,1.3458129167556763,-1.2842440605163574,-0.5227677822113037,348.69384765625,334.9609375,-62.19482421875
8.712748050689697,-1268239568,1,-1.6556355953216553,-0.3261931836605072,0.08508492261171341,79.4677734375,-253.662109375,510.19287109375
8.742913961410522,-1268239547,0,1.0696898698806763,-1.1497225761413574,-0.6978166103363037,416.9921875,193.359375,-75.98876953125
8.744746923446655,-1268239549,1,-1.0379598140716553,-1.2868865728378296,0.8336200714111328,5.06591796875,-248.9013671875,405.70068359375
8.765263080596924,-1268239511,0,1.2347289323806763,-1.1853671073913574,-0.8106095790863037,283.26416015625,272.27783203125,72.57080078125
8.774721145629883,-1268239513,1,-1.2288777828216553,-1.5888885259628296,1.3909931182861328,27.7099609375,-304.62646484375,-20.263671875
8.77472996711731,-1268239494,1,-1.7891805171966553,-1.4548553228378296,1.3175067901611328,-95.39794921875,-368.83544921875,-154.47998046875
8.795284271240234,-1268239492,0,1.0562621355056763,-1.3804354667663574,-0.9714982509613037,221.49658203125,381.34765625,192.56591796875
8.795415163040161,-1268239473,0,0.9175902009010315,-1.4902987480163574,-1.3760392665863037,161.31591796875,405.2734375,315.3076171875
8.802438259124756,-1268239475,1,-1.6197469234466553,-1.6904510259628296,1.1983661651611328,-179.931640625,-474.42626953125,-244.0185546875
8.838074207305908,-1268239454,0,1.4022094011306763,-1.6477694511413574,-1.7708146572113037,186.70654296875,309.50927734375,390.7470703125
8.838082075119019,-1268239435,0,2.1619749069213867,-1.3069491386413574,-2.2622697353363037,239.68505859375,235.7177734375,426.20849609375
8.840718030929565,-1268239456,1,-1.4173543453216553,-1.8364471197128296,0.9676532745361328,-170.0439453125,-512.939453125,-317.93212890625
8.84072494506836,-1268239437,1,-1.6107137203216553,-1.8440154790878296,0.6246356964111328,-129.7607421875,-492.00439453125,-430.35888671875
8.855054140090942,-1268239416,0,2.4254026412963867,-1.0752596855163574,-2.7693498134613037,258.7890625,227.783203125,433.837890625
