sync_time,timestamp_ms,device_id,ax,ay,az,gx,gy,gz
0.005292177200317383,1582287543,0,-0.2096884846687317,0.21913856267929077,1.1092959642410278,-89.29443359375,72.93701171875,55.7861328125
0.005299091339111328,1582287562,0,-0.2026084065437317,0.21059364080429077,1.1107608079910278,-88.31787109375,75.25634765625,56.2744140625
0.01489114761352539,1582287548,1,0.2525537312030792,0.08949984610080719,0.9893911480903625,-15.5029296875,-15.68603515625,-5.55419921875
0.014948129653930664,1582287567,1,0.2574365437030792,0.06850375235080719,0.9818227887153625,-16.845703125,-15.56396484375,-5.18798828125
0.0365140438079834,1582287581,0,-0.1979697346687317,0.20424598455429077,1.1161319017410278,-88.5009765625,76.11083984375,56.15234375
0.04476213455200195,1582287586,1,0.2623193562030792,0.06142367422580719,0.9857290387153625,-15.31982421875,-11.962890625,-3.23486328125
0.04480409622192383,1582287605,1,0.2576806843280792,0.05849398672580719,0.9813345074653625,-13.61083984375,-7.62939453125,-0.3662109375
0.05972099304199219,1582287600,0,-0.1845420002937317,0.20619910955429077,1.1146670579910278,-88.2568359375,81.60400390625,58.349609375
0.05977606773376465,1582287619,0,-0.1850302815437317,0.20815223455429077,1.1088076829910278,-88.68408203125,85.63232421875,60.60791015625
0.08370518684387207,1582287624,1,0.2789209187030792,0.08437289297580719,0.9698598980903625,-12.51220703125,-4.08935546875,3.173828125
0.08882617950439453,1582287638,0,-0.1867392659187317,0.21718543767929077,1.0922061204910278,-89.29443359375,88.134765625,61.4013671875
0.10399627685546875,1582287660,1,0.2803857624530792,0.10097445547580719,0.9730337262153625,-14.6484375,2.01416015625,-0.79345703125
0.1198279857635498,1582287657,0,-0.1977255940437317,0.22133582830429077,1.1044131517410278,-90.33203125,91.36962890625,57.55615234375
0.11989402770996094,1582287676,0,-0.1967490315437317,0.20741981267929077,1.1034365892410278,-90.88134765625,92.46826171875,51.3916015625
0.13799405097961426,1582287679,1,0.2610986530780792,0.09316195547580719,0.9801138043403625,-19.83642578125,2.25830078125,-3.662109375
0.14996719360351562,1582287695,0,-0.1987021565437317,0.18715614080429077,1.1149111986160278,-91.49169921875,94.05517578125,49.6826171875
0.15002012252807617,1582287714,0,-0.2089560627937317,0.17836707830429077,1.1129580736160278,-92.041015625,95.947265625,50.47607421875
0.1648540496826172,1582287698,1,0.2552392780780792,0.03676547110080719,0.9823110699653625,-20.6298828125,7.26318359375,-5.43212890625
0.1648721694946289,1582287717,1,0.23326662182807922,0.03627718985080719,0.9771841168403625,-20.20263671875,10.3759765625,-2.86865234375
0.19284820556640625,1582287736,1,0.22325685620307922,0.03212679922580719,0.9679067730903625,-18.5546875,9.27734375,-1.89208984375
0.1944751739501953,1582287755,1,0.21178224682807922,-0.00205288827419281,0.9864614605903625,-15.93017578125,6.77490234375,-0.1220703125
0.2097032070159912,1582287750,0,-0.2304404377937317,0.15346473455429077,1.1219912767410278,-89.53857421875,97.22900390625,52.55126953125
0.20972919464111328,1582287769,0,-0.2428916096687317,0.13979285955429077,1.1341983079910278,-88.80615234375,96.435546875,56.45751953125
0.2334589958190918,1582287774,1,0.21153810620307922,-0.00791226327419281,0.9830434918403625,-12.51220703125,5.43212890625,2.3193359375
0.24063897132873535,1582287788,0,-0.2443564534187317,0.14199012517929077,1.1390811204910278,-88.0126953125,97.59521484375,60.302734375
0.2546539306640625,1582287793,1,0.20763185620307922,-0.01230679452419281,1.0072134733200073,-11.53564453125,5.2490234375,6.8359375
0.2547273635864258,1582287812,1,0.22643068432807922,-0.02500210702419281,1.0782583951950073,-7.4462890625,6.591796875,10.1318359375
0.2696871757507324,1582287807,0,-0.2336142659187317,0.13222450017929077,1.1664248704910278,-89.17236328125,100.2197265625,63.8427734375
0.26975512504577637,1582287826,0,-0.2350791096687317,0.13759559392929077,1.1698428392410278,-83.49609375,104.8583984375,68.359375
0.2882382869720459,1582287831,1,0.19005373120307922,-0.01523648202419281,1.1161001920700073,0.48828125,5.0048828125,13.0615234375
0.3001363277435303,1582287845,0,-0.2585166096687317,0.19594520330429077,1.2067080736160278,-76.47705078125,108.21533203125,77.1484375
0.3001673221588135,1582287864,0,-0.2126181721687317,0.18129676580429077,1.1742373704910278,-82.763671875,108.09326171875,80.01708984375
0.3148212432861328,1582287850,1,0.21104982495307922,0.03652133047580719,0.9754751324653625,0.8544921875,9.033203125,20.1416015625
0.31487011909484863,1582287869,1,0.2515771687030792,0.06337679922580719,0.9825552105903625,6.77490234375,6.4697265625,20.56884765625
0.33707427978515625,1582287883,0,-0.2177451252937317,0.16445106267929077,1.1417666673660278,-76.66015625,108.58154296875,79.4677734375
0.34458494186401367,1582287888,1,0.21349123120307922,0.04213656485080719,0.9752309918403625,7.9345703125,12.14599609375,20.93505859375
0.3597240447998047,1582287902,0,-0.2253134846687317,0.19618934392929077,1.1298037767410278,-76.66015625,108.82568359375,86.36474609375
0.35979700088500977,1582287921,0,-0.1982138752937317,0.20522254705429077,1.1488467454910278,-83.6181640625,110.90087890625,89.41650390625
0.3838663101196289,1582287924,1,0.2562158405780792,0.03310336172580719,1.0167349576950073,2.25830078125,10.68115234375,35.82763671875
0.39017510414123535,1582287940,0,-0.1896689534187317,0.22280067205429077,1.1407901048660278,-83.8623046875,114.68505859375,95.5810546875
0.40732812881469727,1582287943,1,0.2798974812030792,0.07118929922580719,1.0172232389450073,1.8310546875,14.0380859375,40.46630859375
0.4073343276977539,1582287962,1,0.2711084187030792,0.07631625235080719,0.9764516949653625,2.62451171875,14.7705078125,41.32080078125
0.41992926597595215,1582287959,0,-0.2033408284187317,0.22499793767929077,1.1371279954910278,-84.53369140625,113.525390625,98.2666015625
0.4199991226196289,1582287978,0,-0.2118857502937317,0.20619910955429077,1.1097842454910278,-83.6181640625,107.97119140625,100.830078125
0.438312292098999,1582287981,1,0.24547365307807922,0.04189242422580719,0.9266470074653625,2.8076171875,8.97216796875,43.76220703125
0.4481520652770996,1582288014,0,-0.2045615315437317,0.17763465642929077,1.1044131517410278,-74.3408203125,85.26611328125,129.2724609375
0.4655790328979492,1582288000,1,0.23326662182807922,0.00405062735080719,0.8890493512153625,8.85009765625,-2.38037109375,54.6875
0.46558427810668945,1582288019,1,0.3668115437030792,0.2315896898508072,1.3155630826950073,9.58251953125,-16.357421875,68.05419921875
0.4862511157989502,1582288033,0,-0.1342490315437317,0.38442176580429077,1.2303897142410278,-73.3642578125,92.46826171875,130.06591796875
0.49472618103027344,1582288038,1,-0.16102048754692078,0.2352517992258072,0.9647329449653625,-18.85986328125,-48.40087890625,87.0361328125
0.5098481178283691,1582288052,0,-0.09347753971815109,0.34389442205429077,1.1571475267410278,-64.39208984375,70.556640625,136.90185546875
0.5098912715911865,1582288071,0,0.022245116531848907,0.38124793767929077,1.1674014329910278,-43.0908203125,37.90283203125,117.1875
0.5335941314697266,1582288057,1,0.6617333889007568,0.06557406485080719,0.9718130230903625,-0.732421875,-46.56982421875,31.79931640625
0.5335979461669922,1582288076,1,0.6238915920257568,0.693503737449646,0.8521841168403625,52.6123046875,-132.14111328125,-10.19287109375
0.5381209850311279,1582288090,0,-0.0029013678431510925,0.5052713751792908,0.9838076829910278,-9.765625,-4.150390625,94.1162109375
0.554772138595581,1582288095,1,0.4136865437030792,0.304831862449646,0.9686391949653625,53.40576171875,-29.96826171875,-44.12841796875
0.5547871589660645,1582288114,1,0.3631494343280792,0.337302565574646,1.0492056608200073,18.73779296875,-30.09033203125,-29.1748046875
0.5702781677246094,1582288109,0,0.04055566340684891,0.47280067205429077,1.2245303392410278,-6.34765625,-5.92041015625,86.9140625
0.5702831745147705,1582288128,0,-0.09689550846815109,0.40663856267929077,1.2779971361160278,-24.169921875,39.0625,95.703125
0.5888183116912842,1582288133,1,0.4102685749530792,0.258201003074646,0.8890493512153625,-18.5546875,-3.173828125,0.3662109375
0.5999891757965088,1582288147,0,-0.2951377034187317,0.22988075017929077,1.1757022142410278,-45.83740234375,84.04541015625,123.10791015625
0.6147291660308838,1582288152,1,0.5416162014007568,0.11147250235080719,0.8148306012153625,-53.466796875,93.3837890625,15.44189453125
0.6367340087890625,1582288166,0,-0.2328818440437317,0.49330848455429077,0.9147158861160278,-31.79931640625,58.04443359375,127.3193359375
0.6367392539978027,1582288185,0,0.2505165934562683,0.45717567205429077,1.2491885423660278,-18.98193359375,9.09423828125,66.89453125
0.6430501937866211,1582288188,1,0.4798486530780792,0.1871560961008072,1.1627310514450073,-52.91748046875,-23.74267578125,-48.15673828125
0.6597051620483398,1582288204,0,-0.013155274093151093,0.5455545783042908,0.8314639329910278,-59.4482421875,0.79345703125,70.00732421875
0.6841573715209961,1582288207,1,0.12535646557807922,0.10268343985080719,1.2049673795700073,-38.14697265625,3.72314453125,-46.38671875
0.6841621398925781,1582288226,1,0.14732912182807922,0.03481234610080719,1.0719107389450073,5.31005859375,48.76708984375,-48.76708984375
0.689769983291626,1582288223,0,-0.09298925846815109,0.40981239080429077,0.9867373704910278,-85.3271484375,45.10498046875,46.44775390625
0.6898040771484375,1582288242,0,-0.08053808659315109,0.46669715642929077,1.0790225267410278,-86.48681640625,62.1337890625,54.99267578125
0.7055361270904541,1582288245,1,-0.21253415942192078,0.11220492422580719,0.8939321637153625,43.76220703125,93.56689453125,-23.0712890625
0.7055411338806152,1582288264,1,-0.07190915942192078,0.2303689867258072,1.0531119108200073,60.48583984375,63.78173828125,42.41943359375
0.7196853160858154,1582288278,0,-0.03830175846815109,0.41884559392929077,1.2467471361160278,-83.6181640625,-5.92041015625,108.3984375
0.7373220920562744,1582288283,1,-0.3695165812969208,0.357322096824646,1.3631705045700073,27.89306640625,32.16552734375,170.95947265625
0.7486143112182617,1582288297,0,-0.1486533284187317,0.5594705939292908,1.3236514329910278,-91.6748046875,64.88037109375,57.2509765625
0.7648251056671143,1582288302,1,-0.6554052829742432,0.1935037523508072,0.7528188824653625,-2.86865234375,-64.02587890625,279.23583984375
0.7648892402648926,1582288321,1,-0.030161112546920776,0.1310037523508072,0.9041860699653625,9.82666015625,-72.81494140625,220.39794921875
0.7866523265838623,1582288316,0,-0.1476767659187317,0.38808387517929077,1.1930361986160278,-88.134765625,89.84375,13.85498046875
0.7866580486297607,1582288335,0,-0.1496298909187317,0.32363075017929077,0.9842959642410278,-72.69287109375,81.6650390625,1.77001953125
0.7945773601531982,1582288340,1,0.13609865307807922,0.05434359610080719,0.9676626324653625,10.31494140625,-69.15283203125,156.79931640625
0.8097090721130371,1582288354,0,-0.1259482502937317,0.31996864080429077,0.9205752611160278,-67.44384765625,59.2041015625,34.3017578125
0.8097243309020996,1582288373,0,-0.1674521565437317,0.39784950017929077,0.9059268236160278,-73.3642578125,30.517578125,55.96923828125
0.8336172103881836,1582288359,1,-0.11536619067192078,0.08974398672580719,0.8597524762153625,42.90771484375,-111.51123046875,120.7275390625
0.8336210250854492,1582288378,1,-0.17688962817192078,-0.01963101327419281,0.8922231793403625,78.79638671875,-187.19482421875,91.00341796875
0.8408851623535156,1582288392,0,-0.12082128971815109,0.5023416876792908,0.9293643236160278,-87.646484375,2.8076171875,53.5888671875
0.8546891212463379,1582288397,1,0.09020021557807922,0.1861795336008072,1.2730826139450073,104.30908203125,-163.63525390625,124.755859375
0.85471510887146,1582288416,1,0.17931154370307922,1.073874831199646,0.9034536480903625,110.83984375,-140.5029296875,-24.90234375
0.869664192199707,1582288411,0,-0.016329102218151093,0.5128397345542908,1.0848819017410278,-105.16357421875,3.41796875,8.60595703125
0.8696932792663574,1582288430,0,-0.08322363346815109,0.29164832830429077,1.1305361986160278,-118.1640625,9.1552734375,-36.1328125
0.8976001739501953,1582288449,0,-0.04123144596815109,0.27602332830429077,1.0528994798660278,-127.01416015625,21.54541015625,-55.5419921875
0.9147481918334961,1582288452,1,0.13243654370307922,0.717673659324646,0.9762075543403625,20.32470703125,-82.763671875,-96.25244140625
0.9147820472717285,1582288471,1,0.19762209057807922,0.648581862449646,0.9803579449653625,-12.0849609375,-56.21337890625,-132.01904296875
0.9368541240692139,1582288468,0,-0.0065634772181510925,0.36562293767929077,0.8834658861160278,-129.57763671875,15.7470703125,-56.09130859375
0.9368612766265869,1582288487,0,-0.07931738346815109,0.42934364080429077,0.9159365892410278,-127.74658203125,-0.06103515625,-64.8193359375
0.9447240829467773,1582288490,1,0.2869775593280792,0.636618971824646,1.0821646451950073,-45.8984375,-26.18408203125,-161.80419921875
0.959007978439331,1582288506,0,-0.04489355534315109,0.40712684392929077,0.9637881517410278,-141.2353515625,13.5498046875,-80.99365234375
0.9836461544036865,1582288509,1,0.22691896557807922,0.588034987449646,1.0421255826950073,-72.509765625,-8.30078125,-146.484375
0.9836521148681641,1582288528,1,0.2906396687030792,0.548240065574646,0.9456899762153625,-102.11181640625,-44.73876953125,-104.3701171875
0.989861249923706,1582288542,0,-0.1528037190437317,0.32411903142929077,1.1295596361160278,-169.00634765625,23.62060546875,-91.97998046875
1.0077731609344482,1582288547,1,0.3638818562030792,0.525046706199646,0.8607290387153625,-119.62890625,-40.0390625,-82.3974609375
1.0077800750732422,1582288566,1,0.2881982624530792,0.266745924949646,0.8785513043403625,-133.11767578125,-14.09912109375,-95.27587890625
1.01997709274292,1582288561,0,-0.2800009846687317,0.21230262517929077,1.1305361986160278,-163.14697265625,49.13330078125,-71.35009765625
1.0200111865997314,1582288580,0,-0.2702353596687317,0.18251746892929077,1.0616885423660278,-140.869140625,44.677734375,-21.30126953125
1.037182092666626,1582288585,1,0.3279931843280792,0.12270297110080719,0.8316763043403625,-117.919921875,-10.009765625,-124.93896484375
1.0482680797576904,1582288599,0,-0.2228720784187317,0.22255653142929077,1.1127139329910278,-98.0224609375,29.60205078125,-7.50732421875
1.0648012161254883,1582288604,1,0.4359033405780792,0.1622537523508072,0.8397329449653625,-89.84375,-7.6904296875,-148.4375
1.0649499893188477,1582288623,1,0.4459131062030792,0.2140115648508072,0.9159048199653625,-60.85205078125,-6.04248046875,-140.44189453125
1.0864980220794678,1582288618,0,-0.1718466877937317,0.22914832830429077,1.1495791673660278,-74.64599609375,18.00537109375,-32.71484375
1.0865042209625244,1582288637,0,-0.2323935627937317,0.19106239080429077,1.2074404954910278,-73.30322265625,13.73291015625,-49.25537109375
1.0947391986846924,1582288642,1,0.3753564655780792,0.1646951586008072,0.9268911480903625,-41.93115234375,-2.685546875,-124.57275390625
1.1097211837768555,1582288656,0,-0.2289755940437317,0.11147255450487137,1.2042666673660278,-78.4912109375,16.6015625,-42.3583984375
1.109788179397583,1582288675,0,-0.2052939534187317,0.11196083575487137,1.1761904954910278,-80.50537109375,22.52197265625,-25.81787109375
1.1338911056518555,1582288661,1,0.3121240437030792,0.1817850023508072,0.9554556012153625,-23.92578125,4.7607421875,-128.5400390625
1.1338963508605957,1582288680,1,0.2735498249530792,0.1932596117258072,1.0091665983200073,-11.53564453125,5.67626953125,-132.9345703125
1.141618251800537,1582288694,0,-0.2301962971687317,0.16127723455429077,1.2042666673660278,-70.37353515625,17.2119140625,-14.34326171875
1.153102159500122,1582288716,1,0.19518068432807922,0.256247878074646,0.9569204449653625,6.7138671875,10.68115234375,-112.3046875
1.1706202030181885,1582288713,0,-0.2575400471687317,0.12343544512987137,1.1737490892410278,-65.3076171875,19.775390625,-17.76123046875
1.1706252098083496,1582288732,0,-0.1767295002937317,0.09926552325487137,1.1732608079910278,-58.53271484375,12.51220703125,-25.146484375
1.189326286315918,1582288735,1,0.18175294995307922,0.328025221824646,0.9984243512153625,2.25830078125,24.2919921875,-92.4072265625
1.2001211643218994,1582288751,0,-0.11813574284315109,0.07045692950487137,1.1935244798660278,-51.57470703125,9.70458984375,-22.3388671875
1.2149481773376465,1582288754,1,0.11388185620307922,0.2499002367258072,0.9981802105903625,-8.7890625,27.34375,-75.37841796875
1.2149770259857178,1582288773,1,0.06310060620307922,0.2484353929758072,0.9156606793403625,-8.85009765625,24.90234375,-65.0634765625
1.2370753288269043,1582288770,0,-0.1288779377937317,0.20204871892929077,1.2496768236160278,-49.62158203125,28.80859375,0.48828125
1.2429261207580566,1582288792,1,0.051137715578079224,0.252097487449646,0.9000356793403625,-0.42724609375,20.69091796875,-61.09619140625
1.2582011222839355,1582288806,0,-0.12399511784315109,0.25331825017929077,1.1891299486160278,-90.9423828125,109.80224609375,41.6259765625
1.2836999893188477,1582288811,1,0.034780293703079224,0.274314284324646,0.9369009137153625,-1.5869140625,19.6533203125,-62.56103515625
1.2837040424346924,1582288830,1,0.043813496828079224,0.259421706199646,0.8751333355903625,-12.63427734375,5.67626953125,-71.22802734375
1.3048491477966309,1582288849,1,0.018911153078079224,0.283835768699646,0.8648794293403625,-15.0146484375,-13.61083984375,-75.50048828125
1.318960189819336,1582288825,0,-0.10934668034315109,0.17226356267929077,1.1559268236160278,-97.900390625,107.97119140625,43.15185546875
1.319061040878296,1582288844,0,-0.1674521565437317,0.18056434392929077,1.1349307298660278,-93.07861328125,89.9658203125,28.01513671875
1.3190701007843018,1582288863,0,-0.2438681721687317,0.20082801580429077,1.1031924486160278,-75.68359375,59.87548828125,32.71484375
1.3323912620544434,1582288882,0,-0.1510947346687317,0.22743934392929077,1.1588565111160278,-68.359375,43.27392578125,42.1142578125
1.3382222652435303,1582288868,1,0.031118184328079224,0.265525221824646,0.8765981793403625,-22.03369140625,-25.45166015625,-61.279296875
1.3382270336151123,1582288887,1,0.06798341870307922,0.2276834398508072,0.8973501324653625,-30.21240234375,-31.6162109375,-73.3642578125
1.3498649597167969,1582288901,0,-0.1449912190437317,0.22573035955429077,1.1564151048660278,-73.79150390625,49.8046875,33.5693359375
1.3631961345672607,1582288906,1,0.040395528078079224,0.2301248461008072,0.9007681012153625,-28.1982421875,-21.42333984375,-86.60888671875
1.363283395767212,1582288925,1,0.015249043703079224,0.266013503074646,0.9256704449653625,-27.34375,-35.58349609375,-73.6083984375
1.3877952098846436,1582288920,0,-0.1620810627937317,0.27822059392929077,1.0931826829910278,-80.4443359375,50.10986328125,28.1982421875
1.3878002166748047,1582288939,0,-0.1474326252937317,0.24282020330429077,1.0980654954910278,-85.205078125,39.4287109375,16.9677734375
1.394585132598877,1582288944,1,0.020864278078079224,0.253806471824646,0.9349477887153625,-29.60205078125,-49.4384765625,-52.978515625
1.4097840785980225,1582288958,0,-0.1537802815437317,0.27651160955429077,1.0941592454910278,-85.75439453125,34.7900390625,10.55908203125
1.43392014503479,1582288980,1,0.10533693432807922,0.271872878074646,0.9691274762153625,0.42724609375,-48.828125,-51.025390625
1.441288948059082,1582288977,0,-0.11349707096815109,0.29262489080429077,1.0858584642410278,-77.94189453125,36.56005859375,17.76123046875
1.4412941932678223,1582288996,0,-0.11960058659315109,0.24843543767929077,1.0404483079910278,-74.951171875,63.4765625,11.71875
1.4545691013336182,1582288999,1,0.020375996828079224,0.342185378074646,0.9661977887153625,10.498046875,-55.84716796875,-50.72021484375
1.4681732654571533,1582289015,0,-0.1491416096687317,0.28310340642929077,1.0060244798660278,-69.091796875,56.396484375,3.41796875
1.4682550430297852,1582289034,0,-0.1401084065437317,0.27162879705429077,1.0206729173660278,-68.54248046875,37.65869140625,-4.638671875
1.4887871742248535,1582289018,1,0.050893574953079224,0.420554518699646,0.9137075543403625,14.892578125,-90.63720703125,-75.86669921875
1.4887921810150146,1582289037,1,0.16393068432807922,0.301169753074646,0.9942739605903625,4.2724609375,-103.21044921875,-81.298828125
1.5129101276397705,1582289056,1,0.15929201245307922,0.324851393699646,1.0286978483200073,-7.8125,-97.96142578125,-67.07763671875
1.514639139175415,1582289075,1,0.19322755932807922,0.1527322679758072,1.0238150358200073,3.35693359375,-117.7978515625,-90.75927734375
1.5336601734161377,1582289070,0,-0.1340048909187317,0.22499793767929077,1.0926944017410278,-76.0498046875,40.34423828125,-4.69970703125
1.5336661338806152,1582289089,0,-0.12228613346815109,0.25820106267929077,1.1039248704910278,-72.57080078125,48.76708984375,-3.35693359375
1.5439302921295166,1582289094,1,0.17638185620307922,0.1283182054758072,1.0079458951950073,25.81787109375,-103.515625,-93.017578125
1.559028148651123,1582289108,0,-0.1457236409187317,0.23525184392929077,1.0934268236160278,-65.91796875,50.4150390625,-13.916015625
1.585448980331421,1582289113,1,0.20885255932807922,0.284568190574646,0.9622915387153625,26.85546875,-85.14404296875,-56.15234375
1.5854542255401611,1582289132,1,0.22691896557807922,0.317527174949646,0.9530141949653625,23.193359375,-89.05029296875,-39.36767578125
1.5897352695465088,1582289127,0,-0.2072470784187317,0.22817176580429077,1.1073428392410278,-61.6455078125,45.0439453125,-19.83642578125
1.5897631645202637,1582289146,0,-0.2011435627937317,0.23134559392929077,1.1090518236160278,-61.21826171875,39.794921875,-11.1083984375
1.6045291423797607,1582289151,1,0.21153810620307922,0.2328103929758072,0.8951528668403625,32.53173828125,-99.67041015625,-37.9638671875
1.619861125946045,1582289165,0,-0.1647666096687317,0.28188270330429077,1.0633975267410278,-63.720703125,41.8701171875,-3.173828125
1.6198782920837402,1582289184,0,-0.1674521565437317,0.29433387517929077,1.0946475267410278,-69.15283203125,48.095703125,-11.71875
1.6369962692260742,1582289170,1,0.17345216870307922,0.2154764086008072,0.9054067730903625,31.31103515625,-94.8486328125,-25.390625
1.6370010375976562,1582289189,1,0.22765138745307922,0.286033034324646,0.9200552105903625,20.81298828125,-76.5380859375,-28.9306640625
1.6496341228485107,1582289203,0,-0.1906455159187317,0.24233192205429077,1.0858584642410278,-73.6083984375,51.513671875,-17.333984375
1.663398265838623,1582289208,1,0.2820947468280792,0.330222487449646,0.9066274762153625,8.48388671875,-57.06787109375,-43.3349609375
1.6865911483764648,1582289222,0,-0.2519248127937317,0.19814246892929077,1.0568057298660278,-67.44384765625,45.83740234375,-9.94873046875
1.6865971088409424,1582289241,0,-0.2485068440437317,0.23793739080429077,1.0194522142410278,-60.97412109375,44.12841796875,5.0048828125
1.694965124130249,1582289244,1,0.19127443432807922,0.360495924949646,0.8687856793403625,-1.46484375,-52.3681640625,-40.4052734375
1.7095441818237305,1582289260,0,-0.2704795002937317,0.24086707830429077,0.9723330736160278,-54.74853515625,42.724609375,13.12255859375
1.7346723079681396,1582289263,1,0.19664552807807922,0.345847487449646,0.8263052105903625,-4.94384765625,-52.978515625,-26.0009765625
1.7346761226654053,1582289282,1,0.22691896557807922,0.326072096824646,0.9083364605903625,-8.36181640625,-32.77587890625,-22.8271484375
1.7411839962005615,1582289279,0,-0.2760947346687317,0.22255653142929077,0.9813662767410278,-38.330078125,32.04345703125,27.40478515625
1.7411930561065674,1582289298,0,-0.2524130940437317,0.25453895330429077,1.0101748704910278,-25.0244140625,35.94970703125,44.921875
1.754594087600708,1582289301,1,0.23546388745307922,0.396628737449646,0.8656118512153625,4.5166015625,-31.1279296875,-22.94921875
1.7683870792388916,1582289334,0,-0.3073447346687317,0.28920692205429077,1.0509463548660278,-45.34912109375,77.0263671875,30.33447265625
1.7890260219573975,1582289320,1,0.23692873120307922,0.436911940574646,0.9144399762153625,-2.62451171875,-27.52685546875,-18.85986328125
1.789032220840454,1582289339,1,0.2535302937030792,0.362204909324646,0.8929556012153625,-15.0146484375,-26.4892578125,-29.78515625
1.7999401092529297,1582289353,0,-0.2365439534187317,0.30507606267929077,1.1119815111160278,-60.9130859375,67.68798828125,7.14111328125
1.8148510456085205,1582289358,1,0.2899072468280792,0.307273268699646,0.9359243512153625,-16.845703125,-11.1083984375,-34.7900390625
1.8361153602600098,1582289372,0,-0.1852744221687317,0.22450965642929077,1.0890322923660278,-86.24267578125,68.84765625,12.5732421875
1.8361201286315918,1582289391,0,-0.1274130940437317,0.14760535955429077,1.0397158861160278,-87.09716796875,82.45849609375,36.19384765625
1.8447270393371582,1582289377,1,0.2596338093280792,0.270652174949646,0.9430044293403625,-4.0283203125,11.1083984375,-46.0205078125
1.844757080078125,1582289396,1,0.2750146687030792,0.316550612449646,0.9481313824653625,-2.0751953125,12.87841796875,-55.5419921875
1.8597111701965332,1582289410,0,-0.08175878971815109,0.23866981267929077,0.9908877611160278,-72.57080078125,84.9609375,72.998046875
1.8829262256622314,1582289415,1,0.2672021687030792,0.332908034324646,0.9264028668403625,-7.8125,8.23974609375,-50.78125
1.8829302787780762,1582289434,1,0.2991845905780792,0.363181471824646,0.9444692730903625,-18.1884765625,1.64794921875,-34.0576171875
1.8899891376495361,1582289429,0,-0.05465918034315109,0.28285926580429077,0.9574404954910278,-58.53271484375,88.5009765625,83.984375
1.8900222778320312,1582289448,0,-0.07150488346815109,0.34242957830429077,0.9589053392410278,-51.3916015625,85.0830078125,74.40185546875
1.9046070575714111,1582289453,1,0.2823388874530792,0.319480299949646,0.9303091168403625,-21.97265625,4.57763671875,-16.4794921875
1.9196763038635254,1582289467,0,-0.09591894596815109,0.37660926580429077,1.0074893236160278,-51.81884765625,71.96044921875,63.65966796875
1.9382200241088867,1582289472,1,0.2520654499530792,0.254294753074646,0.8988149762153625,-14.6484375,14.83154296875,-10.6201171875
1.9497601985931396,1582289486,0,-0.05929785221815109,0.45375770330429077,1.1090518236160278,-61.58447265625,66.71142578125,72.3876953125
1.9497883319854736,1582289505,0,-0.0048544928431510925,0.46865028142929077,1.1620303392410278,-86.9140625,79.16259765625,79.4677734375
1.9649012088775635,1582289508,1,0.2698877155780792,0.278708815574646,0.8807485699653625,-9.82666015625,2.685546875,-43.64013671875
1.9875462055206299,1582289524,0,-0.03903418034315109,0.40883582830429077,1.0514346361160278,-113.6474609375,116.455078125,72.08251953125
1.987550973892212,1582289543,0,-0.06295996159315109,0.41957801580429077,1.0172549486160278,-120.42236328125,121.76513671875,68.29833984375
1.994821310043335,1582289527,1,0.19444826245307922,0.353659987449646,0.9098013043403625,-10.009765625,-6.28662109375,-47.42431640625
1.9948523044586182,1582289546,1,0.20738771557807922,0.337546706199646,0.9246938824653625,-17.7001953125,-15.9912109375,-38.02490234375
2.0101723670959473,1582289562,0,-0.08078222721815109,0.37148231267929077,1.0372744798660278,-120.4833984375,109.375,70.1904296875
2.034142017364502,1582289565,1,0.18858888745307922,0.255515456199646,0.9586294293403625,-21.1181640625,-12.0849609375,-41.93115234375
2.0341482162475586,1582289584,1,0.14073732495307922,0.296042799949646,0.9740102887153625,-25.5126953125,-9.6435546875,-61.4013671875
2.040640115737915,1582289598,0,-0.1359580159187317,0.37319129705429077,1.0524111986160278,-111.87744140625,106.99462890625,85.0830078125
2.054619312286377,1582289603,1,0.12120607495307922,0.338767409324646,0.9928091168403625,-25.45166015625,-14.09912109375,-69.2138671875
2.0700132846832275,1582289617,0,-0.11911230534315109,0.34194129705429077,1.1371279954910278,-110.107421875,109.4970703125,98.6328125
2.0902583599090576,1582289622,1,0.08019044995307922,0.362693190574646,1.0040396451950073,-27.83203125,-16.54052734375,-61.767578125
2.090264081954956,1582289641,1,0.07628419995307922,0.336570143699646,1.0272330045700073,-27.89306640625,-15.31982421875,-52.24609375
2.100011110305786,1582289636,0,-0.07907324284315109,0.34853309392929077,1.1732608079910278,-108.82568359375,115.17333984375,115.29541015625
2.100062131881714,1582289655,0,-0.07199316471815109,0.39150184392929077,1.1720401048660278,-110.04638671875,133.6669921875,132.87353515625
2.1147301197052,1582289660,1,0.08971193432807922,0.348044753074646,1.0201529264450073,-28.74755859375,-16.6015625,-47.18017578125
2.1366100311279297,1582289674,0,-0.11862402409315109,0.43324989080429077,1.1149111986160278,-122.98583984375,146.91162109375,138.427734375
2.13661527633667,1582289693,0,-0.1405966877937317,0.45693153142929077,1.1009951829910278,-136.65771484375,147.705078125,122.9248046875
2.1447150707244873,1582289679,1,0.08092287182807922,0.330954909324646,0.9801138043403625,-27.77099609375,-16.29638671875,-41.6259765625
2.144742250442505,1582289698,1,0.09947755932807922,0.342185378074646,0.9415395855903625,-27.03857421875,-5.31005859375,-33.203125
2.15970516204834,1582289712,0,-0.11398535221815109,0.37587684392929077,1.0951358079910278,-140.68603515625,128.60107421875,112.60986328125
2.184730291366577,1582289717,1,0.057485371828079224,0.420798659324646,0.9627798199653625,-31.18896484375,3.90625,-26.30615234375
2.184735059738159,1582289736,1,0.053090840578079224,0.426169753074646,0.9327505230903625,-41.56494140625,-0.244140625,-11.23046875
2.1899499893188477,1582289731,0,-0.09323339909315109,0.33632606267929077,1.0817080736160278,-135.31494140625,108.09326171875,100.15869140625
2.1899540424346924,1582289750,0,-0.06833105534315109,0.35805457830429077,1.0973330736160278,-129.45556640625,109.130859375,90.4541015625
2.2373461723327637,1582289772,1,0.11461427807807922,0.304831862449646,0.8966177105903625,-33.935546875,-2.01416015625,-10.68115234375
2.2373523712158203,1582289791,1,0.11144044995307922,0.339988112449646,0.9146841168403625,-22.8271484375,-0.244140625,-16.9677734375
2.2482051849365234,1582289769,0,-0.08078222721815109,0.35536903142929077,1.1049014329910278,-132.99560546875,115.72265625,76.72119140625
2.2482831478118896,1582289788,0,-0.10251074284315109,0.30287879705429077,1.0785342454910278,-138.916015625,114.6240234375,52.06298828125
2.2490692138671875,1582289807,0,-0.10812597721815109,0.24037879705429077,1.1188174486160278,-141.05224609375,103.271484375,39.36767578125
2.264524221420288,1582289810,1,0.09410646557807922,0.376853346824646,0.9410513043403625,-22.52197265625,5.92041015625,-15.2587890625
2.286180257797241,1582289826,0,-0.09347753971815109,0.22377723455429077,1.1134463548660278,-130.2490234375,90.75927734375,47.79052734375
2.2940781116485596,1582289829,1,0.10484865307807922,0.339255690574646,0.9613149762153625,-25.57373046875,9.8876953125,-16.2353515625
2.29410719871521,1582289848,1,0.08775880932807922,0.290427565574646,0.9613149762153625,-26.611328125,11.65771484375,-24.71923828125
2.309711217880249,1582289862,0,-0.07321386784315109,0.19594520330429077,1.1092959642410278,-104.43115234375,109.55810546875,52.978515625
2.3332653045654297,1582289867,1,0.07335451245307922,0.256247878074646,0.9701040387153625,-24.71923828125,5.9814453125,-25.45166015625
2.3332691192626953,1582289886,1,0.09972169995307922,0.287986159324646,0.9229848980903625,-22.15576171875,-1.5869140625,-21.78955078125
2.339675188064575,1582289881,0,-0.08468847721815109,0.18300575017929077,1.0948916673660278,-99.365234375,111.4501953125,44.61669921875
2.339686155319214,1582289900,0,-0.09689550846815109,0.14931434392929077,1.0848819017410278,-95.15380859375,109.9853515625,38.4521484375
2.3546040058135986,1582289905,1,0.09386232495307922,0.283347487449646,0.9163931012153625,-16.6015625,-5.43212890625,-24.10888671875
2.3815271854400635,1582289919,0,-0.12472753971815109,0.08827919512987137,1.1022158861160278,-87.2802734375,111.328125,38.14697265625
2.388245105743408,1582289924,1,0.08165529370307922,0.2284158617258072,0.8768423199653625,-12.20703125,-10.6201171875,-22.705078125
2.388249158859253,1582289943,1,0.10948732495307922,0.2477029711008072,0.8502309918403625,-7.01904296875,-5.67626953125,-8.72802734375
2.3998711109161377,1582289938,0,-0.12057714909315109,0.02260536700487137,1.1139346361160278,-80.62744140625,106.4453125,42.48046875
2.3999223709106445,1582289957,0,-0.1305869221687317,-0.009132914245128632,1.1246768236160278,-80.87158203125,98.5107421875,41.015625
2.414677143096924,1582289962,1,0.13683107495307922,0.268943190574646,0.8451040387153625,-2.8076171875,3.41796875,-4.5166015625
2.437152147293091,1582289976,0,-0.10861425846815109,0.01674599200487137,1.0870791673660278,-80.9326171875,92.7734375,39.1845703125
2.437180280685425,1582289995,0,-0.11960058659315109,0.02284950762987137,1.0670596361160278,-85.0830078125,91.6748046875,39.4287109375
2.4449081420898438,1582289981,1,0.18028810620307922,0.2230447679758072,0.8226431012153625,1.8310546875,8.36181640625,-10.25390625
2.444939136505127,1582290000,1,0.22228029370307922,0.2127908617258072,0.7901723980903625,-3.662109375,6.9580078125,-22.39990234375
2.4596080780029297,1582290014,0,-0.08468847721815109,0.05409950762987137,1.0724307298660278,-87.82958984375,81.97021484375,38.02490234375
2.483419179916382,1582290036,1,0.19371584057807922,0.2364725023508072,0.7711294293403625,-13.671875,21.8505859375,-61.21826171875
2.4884181022644043,1582290033,0,-0.03244238346815109,0.04848427325487137,1.0751162767410278,-90.9423828125,78.0029296875,36.92626953125
2.4884233474731445,1582290052,0,-0.023897461593151093,0.03432411700487137,1.0890322923660278,-99.54833984375,76.84326171875,33.99658203125
2.505476236343384,1582290055,1,0.2632959187030792,0.2411111742258072,0.7867544293403625,-27.9541015625,21.66748046875,-66.71142578125
2.5197513103485107,1582290071,0,0.011991210281848907,0.02260536700487137,1.0394717454910278,-109.06982421875,80.26123046875,33.87451171875
2.538532257080078,1582290074,1,0.23473146557807922,0.2386697679758072,0.7894399762153625,-40.34423828125,16.54052734375,-59.26513671875
2.53853702545166,1582290093,1,0.23399904370307922,0.2152322679758072,0.8341177105903625,-54.19921875,17.4560546875,-64.14794921875
2.549790143966675,1582290090,0,-0.012666992843151093,0.02065224200487137,1.0345889329910278,-113.525390625,77.69775390625,33.5693359375
2.5646331310272217,1582290112,1,0.19444826245307922,0.1957010179758072,0.8590200543403625,-55.419921875,19.287109375,-89.66064453125
2.5868332386016846,1582290126,0,0.08450097590684891,-0.02378135174512863,1.0465518236160278,-132.75146484375,63.5986328125,20.69091796875
2.5868401527404785,1582290145,0,0.05520410090684891,-0.07187705487012863,1.1092959642410278,-147.52197265625,62.1337890625,1.03759765625
2.5932652950286865,1582290131,1,0.18956544995307922,0.1803201586008072,0.8263052105903625,-54.26025390625,11.474609375,-114.80712890625
2.5932791233062744,1582290150,1,0.19762209057807922,0.2049783617258072,0.8475454449653625,-47.79052734375,6.34765625,-125.42724609375
2.6105270385742188,1582290164,0,0.030790038406848907,-0.11338096112012863,1.0936709642410278,-157.3486328125,58.89892578125,-9.033203125
2.6324350833892822,1582290169,1,0.23741701245307922,0.1454080492258072,0.8372915387153625,-44.00634765625,9.21630859375,-133.11767578125
2.640010118484497,1582290183,0,0.022489257156848907,-0.15488487482070923,1.0919619798660278,-151.06201171875,60.302734375,-14.7705078125
2.64001727104187,1582290202,0,0.06472558528184891,-0.14682823419570923,1.0934268236160278,-141.54052734375,60.791015625,-21.728515625
2.6533122062683105,1582290188,1,0.2571924030780792,0.1280740648508072,0.8140981793403625,-41.259765625,12.5732421875,-138.7939453125
2.653350353240967,1582290207,1,0.23644044995307922,0.08510531485080719,0.8822134137153625,-33.3251953125,24.169921875,-150.5126953125
2.668419122695923,1582290221,0,0.04397363215684891,-0.16782432794570923,1.2472354173660278,-109.31396484375,69.39697265625,-41.1376953125
2.689570188522339,1582290226,1,0.23717287182807922,0.10366000235080719,1.0079458951950073,-22.03369140625,19.59228515625,-161.7431640625
2.6895763874053955,1582290245,1,0.15025880932807922,0.07436312735080719,1.0509146451950073,-25.146484375,-3.35693359375,-164.55078125
2.698233127593994,1582290240,0,0.0010048821568489075,-0.13022667169570923,1.3077822923660278,-89.78271484375,73.8525390625,-48.64501953125
2.698302984237671,1582290259,0,0.05642480403184891,-0.05576377362012863,1.2208682298660278,-100.40283203125,62.5,-59.87548828125
2.7131731510162354,1582290264,1,0.09532716870307922,0.09780062735080719,1.0186880826950073,-49.31640625,-30.21240234375,-144.83642578125
2.7352850437164307,1582290278,0,-0.03976660221815109,-0.01767783612012863,1.2264834642410278,-120.60546875,52.18505859375,-75.8056640625
2.7430121898651123,1582290300,1,-0.09949705004692078,0.09804476797580719,1.0916861295700073,-33.3251953125,-28.50341796875,-175.35400390625
2.7582802772521973,1582290297,0,-0.05050878971815109,-0.06259971112012863,1.3053408861160278,-135.986328125,38.4521484375,-93.75
2.758378028869629,1582290316,0,-0.07907324284315109,-0.06357627362012863,1.3888369798660278,-147.64404296875,24.2919921875,-131.04248046875
2.784088134765625,1582290319,1,-0.049692362546920776,0.1859353929758072,1.2940787076950073,-31.73828125,-29.23583984375,-165.1611328125
2.7904140949249268,1582290335,0,-0.1672080159187317,-0.16318565607070923,1.4989444017410278,-135.1318359375,17.2119140625,-136.5966796875
2.790419340133667,1582290354,0,-0.1625693440437317,-0.24912315607070923,1.6327334642410278,-129.638671875,16.9677734375,-136.5966796875
2.8033783435821533,1582290338,1,-0.10193845629692078,0.00429476797580719,1.4080923795700073,-30.3955078125,-26.2451171875,-168.39599609375
2.8034112453460693,1582290357,1,-0.13929197192192078,-0.08213101327419281,1.5055044889450073,-22.705078125,-32.28759765625,-181.21337890625
2.8382561206817627,1582290376,1,-0.22278806567192078,-0.06235562264919281,1.5357779264450073,-10.7421875,-32.28759765625,-192.07763671875
2.8382601737976074,1582290395,1,-0.4034521281719208,-0.08969937264919281,1.6222037076950073,6.7138671875,-21.05712890625,-195.6787109375
2.849951982498169,1582290390,0,-0.3652060627937317,-0.27231651544570923,1.7089053392410278,-134.58251953125,18.6767578125,-163.9404296875
2.8499841690063477,1582290409,0,-0.4360068440437317,-0.31894737482070923,1.7382022142410278,-134.1552734375,18.798828125,-166.8701171875
2.864521026611328,1582290414,1,-0.5723974704742432,-0.04380093514919281,1.7039908170700073,20.56884765625,-13.5498046875,-192.138671875
2.886752128601074,1582290428,0,-0.4128134846687317,-0.33457237482070923,1.7601748704910278,-112.73193359375,22.88818359375,-146.728515625
2.8933119773864746,1582290433,1,-0.6947119235992432,-0.08969937264919281,1.8026236295700073,36.7431640625,-16.29638671875,-172.79052734375
2.8933911323547363,1582290452,1,-0.8045752048492432,-0.09677945077419281,1.9190787076950073,63.5986328125,-23.01025390625,-161.1328125
2.9097461700439453,1582290447,0,-0.4252646565437317,-0.26352745294570923,1.7760440111160278,-91.552734375,24.5361328125,-144.10400390625
2.90976619720459,1582290466,0,-0.4142783284187317,-0.17466026544570923,1.9232608079910278,-71.6552734375,19.775390625,-152.89306640625
2.93405818939209,1582290471,1,-0.9461767673492432,0.00673617422580719,1.8399771451950073,95.15380859375,-13.97705078125,-148.37646484375
2.9404401779174805,1582290485,0,-0.5439170002937317,-0.11069541424512863,1.9972354173660278,-77.0263671875,30.70068359375,-152.16064453125
2.9404451847076416,1582290504,0,-0.7006552815437317,-0.18491417169570923,2.1175966262817383,-85.51025390625,41.3818359375,-140.19775390625
2.9546732902526855,1582290490,1,-1.1292822360992432,0.06386508047580719,1.8692740201950073,129.0283203125,-1.220703125,-122.61962890625
2.9547500610351562,1582290509,1,-1.2335302829742432,0.08754672110080719,1.8866080045700073,149.7802734375,-1.64794921875,-81.97021484375
2.970003366470337,1582290523,0,-0.7021201252937317,-0.25327354669570923,2.1722841262817383,-77.81982421875,59.5703125,-104.248046875
2.9884653091430664,1582290528,1,-1.3983252048492432,0.07778109610080719,1.9508169889450073,161.2548828125,14.6484375,-43.701171875
2.998605251312256,1582290542,0,-0.9264853596687317,-0.23911339044570923,2.1840028762817383,-52.30712890625,71.6552734375,-91.9189453125
2.9987499713897705,1582290561,0,-0.9587119221687317,-0.25669151544570923,2.2823915481567383,-30.45654296875,75.98876953125,-93.81103515625
3.0149571895599365,1582290564,1,-1.7291357517242432,0.08583773672580719,1.8590201139450073,201.35498046875,60.60791015625,-34.36279296875
3.0367989540100098,1582290580,0,-1.042207956314087,-0.41928917169570923,2.2711610794067383,-0.9765625,92.7734375,-68.359375
3.0446972846984863,1582290583,1,-1.8101904392242432,-0.01010952889919281,1.6744498014450073,241.63818359375,106.201171875,6.28662109375
3.044710159301758,1582290602,1,-1.7970068454742432,-0.06382046639919281,1.5455435514450073,257.568359375,119.873046875,40.10009765625
3.0596730709075928,1582290599,0,-1.060762643814087,-0.5591817498207092,2.2194032669067383,43.701171875,111.6943359375,-49.6826171875
3.059741258621216,1582290618,0,-1.105196237564087,-0.7222676873207092,2.1481142044067383,102.1728515625,142.578125,-29.47998046875
3.0840210914611816,1582290621,1,-1.7188818454742432,-0.11167202889919281,1.3944205045700073,241.02783203125,105.40771484375,64.63623046875
3.0903711318969727,1582290654,0,-0.9916709065437317,-0.7994161248207092,1.9144717454910278,166.6259765625,199.8291015625,6.7138671875
3.1048061847686768,1582290640,1,-1.5350439548492432,-0.306007981300354,1.2056998014450073,200.3173828125,79.345703125,101.13525390625
3.1048851013183594,1582290659,1,-1.3138525485992432,-0.400246262550354,0.9364126324653625,170.95947265625,59.9365234375,137.75634765625
3.1197073459625244,1582290673,0,-0.9660361409187317,-0.8650899529457092,1.7601748704910278,173.7060546875,222.47314453125,4.82177734375
3.138512134552002,1582290678,1,-1.0894873142242432,-0.463722825050354,0.6490591168403625,155.70068359375,79.28466796875,168.39599609375
3.1498491764068604,1582290692,0,-0.8940146565437317,-0.9209981560707092,1.6827822923660278,176.025390625,221.61865234375,-0.3662109375
3.1498780250549316,1582290711,0,-0.7414267659187317,-0.9937520623207092,1.5782901048660278,180.60302734375,234.375,-3.7841796875
3.164811134338379,1582290697,1,-0.8975927829742432,-0.455422043800354,0.5025747418403625,149.71923828125,119.93408203125,184.14306640625
3.164882183074951,1582290716,1,-0.7244970798492432,-0.511086106300354,0.46839508414268494,158.26416015625,186.34033203125,183.59375
3.187969207763672,1582290730,0,-0.5737021565437317,-1.1155781745910645,1.4791690111160278,175.29296875,275.0244140625,-3.90625
3.19521427154541,1582290735,1,-0.6737158298492432,-0.479591965675354,0.42054352164268494,165.22216796875,224.609375,155.76171875
3.1952662467956543,1582290754,1,-0.5626318454742432,-0.467873215675354,0.33924469351768494,138.73291015625,236.328125,146.42333984375
3.2097280025482178,1582290749,0,-0.4218466877937317,-1.2254414558410645,1.3170596361160278,153.50341796875,318.84765625,9.033203125
3.2097411155700684,1582290768,0,-0.3105185627937317,-1.2764668464660645,1.0922061204910278,129.57763671875,343.81103515625,26.18408203125
3.2340023517608643,1582290773,1,-0.4571630656719208,-0.472756028175354,0.25135406851768494,105.04150390625,229.6142578125,157.89794921875
3.240544080734253,1582290787,0,-0.2045615315437317,-1.2562031745910645,0.7057315111160278,101.07421875,364.3798828125,69.82421875
3.2521793842315674,1582290792,1,-0.3197118937969208,-0.547463059425354,0.18568022549152374,51.7578125,222.59521484375,169.49462890625
3.269836187362671,1582290806,0,-0.07541113346815109,-1.1299824714660645,0.36857330799102783,73.974609375,366.27197265625,132.080078125
3.2699272632598877,1582290825,0,0.03494042903184891,-0.9678731560707092,0.10905180871486664,39.36767578125,355.40771484375,201.7822265625
3.289189100265503,1582290828,1,0.06920412182807922,-0.496437668800354,0.09315092861652374,-4.94384765625,244.5068359375,153.01513671875
3.299934148788452,1582290844,0,0.1306435465812683,-0.8274922966957092,-0.03962983191013336,10.8642578125,335.693359375,252.5634765625
3.299967050552368,1582290863,0,0.2793251872062683,-0.6399922966957092,-0.17903412878513336,-33.50830078125,315.4296875,287.7197265625
3.3147361278533936,1582290847,1,0.17149904370307922,-0.457131028175354,0.07825835049152374,-10.19287109375,259.82666015625,126.220703125
3.3147692680358887,1582290866,1,0.2696435749530792,-0.373146653175354,0.08045561611652374,-17.578125,273.01025390625,95.0927734375
3.3355231285095215,1582290882,0,0.4543740153312683,-0.35996299982070923,-0.30964934825897217,-78.79638671875,288.39111328125,275.20751953125
3.3446803092956543,1582290885,1,0.3233545124530792,-0.325295090675354,0.12610991299152374,-24.96337890625,277.52685546875,74.15771484375
3.3447113037109375,1582290904,1,0.4144189655780792,-0.269631028175354,0.28138336539268494,-40.10009765625,266.78466796875,42.8466796875
3.359685182571411,1582290918,0,0.6162392497062683,-0.16831260919570923,-0.30232512950897217,-160.0341796875,187.43896484375,195.4345703125
3.3883230686187744,1582290937,0,0.7029091715812683,-0.04453330487012863,-0.15950287878513336,-167.48046875,132.568359375,191.40625
3.4033992290496826,1582290923,1,0.4947412312030792,-0.1541524976491928,0.40101227164268494,-78.4912109375,230.52978515625,35.15625
3.4034852981567383,1582290942,1,0.5872704982757568,-0.09604702889919281,0.5753286480903625,-125.67138671875,180.35888671875,50.9033203125
3.4035162925720215,1582290961,1,0.6851708889007568,-0.08603726327419281,0.6678579449653625,-147.216796875,150.0244140625,60.72998046875
3.4199013710021973,1582290956,0,0.8471962809562683,0.11293739825487137,-0.03596772253513336,-186.82861328125,114.3798828125,182.43408203125
3.419929265975952,1582290975,0,0.9387490153312683,0.22768348455429077,0.14762602746486664,-221.435546875,116.27197265625,176.20849609375
3.439197301864624,1582290980,1,0.7784326076507568,-0.05820523202419281,0.7047231793403625,-146.91162109375,139.6484375,42.8466796875
3.4498322010040283,1582290994,0,0.9524208903312683,0.29042762517929077,0.34000885486602783,-256.65283203125,134.33837890625,159.912109375
3.4498701095581055,1582291013,0,0.8994423747062683,0.32411903142929077,0.45548737049102783,-276.30615234375,141.90673828125,132.75146484375
3.4646592140197754,1582290999,1,0.6888329982757568,-0.01010952889919281,0.8477895855903625,-127.01416015625,150.93994140625,-6.103515625
3.4647233486175537,1582291018,1,0.5289208889007568,0.1559060961008072,0.9730337262153625,-108.82568359375,135.43701171875,-36.7431640625
3.4878852367401123,1582291032,0,0.7881142497062683,0.27309364080429077,0.6110049486160278,-282.89794921875,117.67578125,95.88623046875
3.4933881759643555,1582291037,1,0.3868310749530792,0.259909987449646,1.0455435514450073,-113.525390625,109.7412109375,-38.26904296875
3.4934022426605225,1582291056,1,0.3121240437030792,0.435691237449646,1.0726431608200073,-133.85009765625,76.23291015625,-46.44775390625
3.508331060409546,1582291051,0,0.7012001872062683,0.32949012517929077,0.7650576829910278,-264.0380859375,86.73095703125,90.9423828125
3.5083611011505127,1582291070,0,0.7024208903312683,0.39052528142929077,0.9278994798660278,-249.32861328125,70.6787109375,100.830078125
3.5378570556640625,1582291089,0,0.6323525309562683,0.40663856267929077,1.0975772142410278,-263.0615234375,79.65087890625,105.1025390625
3.553173065185547,1582291092,1,0.16026857495307922,0.613913893699646,1.1436880826950073,-155.029296875,45.47119140625,-68.4814453125
3.5532469749450684,1582291111,1,0.029409199953079224,0.652732253074646,1.1619986295700073,-154.6630859375,45.8984375,-75.25634765625
3.5683112144470215,1582291108,0,0.4863564372062683,0.45888465642929077,1.2716494798660278,-281.43310546875,96.86279296875,103.515625
3.568378210067749,1582291127,0,0.3240029215812683,0.48451942205429077,1.3612490892410278,-260.1318359375,79.9560546875,99.12109375
3.5894391536712646,1582291130,1,-0.07435056567192078,0.755271315574646,1.2017935514450073,-142.76123046875,43.212890625,-97.16796875
3.598339080810547,1582291146,0,0.2895790934562683,0.46205848455429077,1.4755069017410278,-212.40234375,32.1044921875,96.49658203125
3.6132972240448,1582291149,1,-0.10706540942192078,0.779929518699646,1.2296255826950073,-135.3759765625,38.39111328125,-103.08837890625
3.6133522987365723,1582291168,1,-0.039438456296920776,0.726218581199646,1.2408560514450073,-143.73779296875,30.70068359375,-94.970703125
3.6361021995544434,1582291182,0,0.2080361247062683,0.5992655158042908,1.6349307298660278,-199.64599609375,27.34375,80.62744140625
3.6431291103363037,1582291187,1,-0.009409159421920776,0.689353346824646,1.3568228483200073,-134.6435546875,31.43310546875,-109.92431640625
3.6431641578674316,1582291206,1,-0.3407079875469208,0.778708815574646,1.4793814420700073,-90.2099609375,47.7294921875,-178.89404296875
3.6581413745880127,1582291201,0,0.04958886653184891,0.5392069220542908,1.5983096361160278,-217.34619140625,49.8046875,54.931640625
3.6582112312316895,1582291220,0,-0.06100683659315109,0.41030067205429077,1.6097842454910278,-219.90966796875,54.443359375,40.771484375
3.6839370727539062,1582291225,1,-0.6495459079742432,0.943992018699646,1.5120962858200073,-53.7109375,44.43359375,-193.90869140625
3.689021348953247,1582291239,0,-0.05612402409315109,0.38027137517929077,1.6271182298660278,-190.185546875,34.1796875,60.791015625
3.7064220905303955,1582291244,1,-0.6673681735992432,0.899558424949646,1.5172232389450073,-46.56982421875,16.2353515625,-161.4990234375
3.706428289413452,1582291263,1,-0.5540869235992432,0.900779128074646,1.4635123014450073,-44.677734375,-15.2587890625,-141.357421875
3.719815254211426,1582291258,0,-0.05661230534315109,0.44594520330429077,1.6503115892410278,-167.05322265625,17.63916015625,66.89453125
3.719892978668213,1582291277,0,-0.1354697346687317,0.43666785955429077,1.6879092454910278,-175.29296875,26.4892578125,57.06787109375
3.736847162246704,1582291282,1,-0.7428076267242432,1.005027174949646,1.3658560514450073,-21.05712890625,-27.16064453125,-158.0810546875
3.74993896484375,1582291296,0,-0.3515341877937317,0.36562293767929077,1.6949893236160278,-201.59912109375,53.03955078125,39.55078125
3.7499730587005615,1582291315,0,-0.4465048909187317,0.19545692205429077,1.6676455736160278,-213.07373046875,60.4248046875,47.119140625
3.764838218688965,1582291301,1,-0.9769384860992432,0.992820143699646,1.2201040983200073,-10.68115234375,-49.98779296875,-170.41015625
3.7649080753326416,1582291320,1,-1.0286962985992432,0.948630690574646,1.1087759733200073,-30.21240234375,-74.40185546875,-154.96826171875
3.7886762619018555,1582291334,0,-0.4694541096687317,0.16591590642929077,1.6334658861160278,-219.23828125,44.7998046875,63.720703125
3.7945690155029297,1582291356,1,-0.9168798923492432,0.767722487449646,1.0504263639450073,-86.7919921875,-117.00439453125,-140.9912109375
3.809835195541382,1582291353,0,-0.4440634846687317,0.12929481267929077,1.7516299486160278,-234.2529296875,41.259765625,81.6650390625
3.809903144836426,1582291372,0,-0.5046103596687317,0.25649207830429077,1.7816592454910278,-267.88330078125,85.3271484375,62.744140625
3.8336520195007324,1582291375,1,-0.9752295017242432,0.616355299949646,1.0804556608200073,-88.68408203125,-122.6806640625,-181.5185546875
3.841602087020874,1582291391,0,-0.5988486409187317,0.19008582830429077,1.7587100267410278,-307.0068359375,123.22998046875,30.33447265625
3.8541860580444336,1582291394,1,-1.0726416110992432,0.332663893699646,0.006236869841814041,-58.7158203125,-128.7841796875,-210.75439453125
3.854220151901245,1582291413,1,-2.001108407974243,0.961326003074646,0.40467438101768494,-69.4580078125,-87.890625,-240.6005859375
3.870047092437744,1582291410,0,0.6716591715812683,1.8907694816589355,2.1278505325317383,-221.0693359375,65.0634765625,-192.44384765625
3.8890371322631836,1582291432,1,-1.6009619235992432,0.805076003074646,1.1422232389450073,-110.65673828125,-70.6787109375,-168.51806640625
3.9000372886657715,1582291446,0,-0.6247275471687317,-0.05576377362012863,2.0868349075317383,-290.46630859375,146.54541015625,-65.5517578125
3.900084972381592,1582291465,0,-1.104219675064087,-0.5674825310707092,1.8448916673660278,-305.84716796875,251.52587890625,-24.35302734375
3.91394305229187,1582291451,1,-1.1705420017242432,0.12197054922580719,1.2103384733200073,-44.98291015625,-127.685546875,-124.32861328125
3.9139740467071533,1582291470,1,-1.3148291110992432,0.11269320547580719,1.1771353483200073,-93.994140625,-223.0224609375,-181.2744140625
3.9367239475250244,1582291484,0,-1.135957956314087,-0.8367696404457092,1.6637393236160278,-241.76025390625,230.40771484375,-36.9873046875
3.944838285446167,1582291489,1,-1.4054052829742432,0.475974440574646,1.3280142545700073,-59.08203125,-270.3857421875,-116.51611328125
3.9596993923187256,1582291503,0,-1.207491159439087,-0.9991231560707092,1.4676944017410278,-165.95458984375,146.91162109375,2.25830078125
3.9597771167755127,1582291522,0,-0.9425986409187317,-0.8370137810707092,1.3873721361160278,-121.76513671875,137.939453125,-1.46484375
3.9847962856292725,1582291508,1,-1.3126318454742432,-0.1695333570241928,0.5216177105903625,-6.591796875,-203.61328125,-135.07080078125
3.98480224609375,1582291527,1,-0.8487646579742432,0.2035135179758072,1.1446646451950073,43.02978515625,-138.0615234375,-153.99169921875
3.990042209625244,1582291541,0,-0.9225791096687317,-0.7791524529457092,1.3307315111160278,-63.41552734375,206.1767578125,-8.85009765625
4.0046162605285645,1582291546,1,-0.7935888767242432,-0.1282735913991928,1.1820181608200073,96.37451171875,-116.02783203125,-119.62890625
4.004654169082642,1582291565,1,-1.1920263767242432,0.545798659324646,0.8180044293403625,122.9248046875,-70.00732421875,60.4248046875
4.018270969390869,1582291560,0,-0.5868857502937317,-0.9886251091957092,1.2189151048660278,-19.4091796875,261.3525390625,6.34765625
4.01828932762146,1582291579,0,-0.3874228596687317,-0.29135948419570923,0.30363190174102783,49.25537109375,234.31396484375,9.1552734375
4.03821325302124,1582291584,1,-0.20057126879692078,-0.338722825050354,0.9930532574653625,175.4150390625,-69.88525390625,7.32421875
4.049723148345947,1582291598,0,0.1601845622062683,-0.9942403435707092,0.36954987049102783,-108.09326171875,204.77294921875,-132.01904296875
4.0645530223846436,1582291620,1,-0.2767431437969208,0.1671365648508072,0.5379751324653625,133.60595703125,-66.89453125,4.5166015625
4.087532043457031,1582291617,0,-0.4015830159187317,-0.5835958123207092,0.5519229173660278,32.2265625,166.50390625,-32.40966796875
4.0875372886657715,1582291636,0,-0.3761923909187317,-0.21518760919570923,0.47819244861602783,175.59814453125,111.87744140625,57.43408203125
4.094728231430054,1582291639,1,-0.2535497844219208,0.1485818773508072,0.5174673199653625,154.96826171875,-25.20751953125,19.287109375
4.109670162200928,1582291655,0,-0.2887900471687317,-0.14267784357070923,0.5018740892410278,221.74072265625,101.50146484375,80.26123046875
4.109698057174683,1582291674,0,-0.3173545002937317,0.02309364825487137,0.41251862049102783,255.615234375,99.18212890625,129.7607421875
4.133324146270752,1582291658,1,-0.034311503171920776,0.09853304922580719,0.43738922476768494,187.1337890625,25.5126953125,3.60107421875
4.133328199386597,1582291677,1,-0.048959940671920776,0.274802565574646,0.38416656851768494,196.1669921875,74.27978515625,-22.5830078125
4.152903318405151,1582291696,1,-0.2950536906719208,0.457419753074646,0.49500641226768494,177.490234375,88.07373046875,49.37744140625
4.154701232910156,1582291715,1,-0.3092138469219208,0.503074049949646,0.46644195914268494,115.3564453125,39.48974609375,111.63330078125
4.169764280319214,1582291710,0,-0.08517675846815109,0.44350379705429077,0.29874908924102783,131.2255859375,106.38427734375,124.1455078125
4.169824123382568,1582291729,0,-0.10934668034315109,0.43495887517929077,0.29630768299102783,61.03515625,90.14892578125,106.4453125
4.189268112182617,1582291734,1,-0.15394040942192078,0.382224440574646,0.40491852164268494,48.2177734375,-4.0283203125,137.51220703125
4.200036287307739,1582291748,0,-0.11789160221815109,0.36366981267929077,0.39225494861602783,47.36328125,62.01171875,111.99951171875
4.2149622440338135,1582291753,1,-0.058237284421920776,0.334617018699646,0.34339508414268494,43.0908203125,25.20751953125,134.765625
4.214978218078613,1582291772,1,0.036000996828079224,0.289939284324646,0.31702789664268494,56.2744140625,93.68896484375,124.69482421875
4.235840082168579,1582291767,0,-0.07565527409315109,0.38881629705429077,0.41764557361602783,54.6875,59.63134765625,126.03759765625
4.235845327377319,1582291786,0,0.06496972590684891,0.40248817205429077,0.44547760486602783,24.169921875,67.5048828125,120.849609375
4.245005130767822,1582291791,1,0.039663106203079224,0.269187331199646,0.43348297476768494,56.7626953125,133.7890625,110.9619140625
4.2598161697387695,1582291805,0,0.11892480403184891,0.41518348455429077,0.5885440111160278,-22.216796875,60.72998046875,93.81103515625
4.259891986846924,1582291824,0,0.04934472590684891,0.35170692205429077,0.7941104173660278,-75.439453125,38.818359375,76.23291015625
4.283496379852295,1582291810,1,0.08800294995307922,0.258689284324646,0.5023306012153625,44.00634765625,106.75048828125,116.2109375
4.283501148223877,1582291829,1,0.19103029370307922,0.1527322679758072,0.46717438101768494,-4.82177734375,54.38232421875,104.98046875
4.290159225463867,1582291843,0,-0.06198339909315109,0.21791785955429077,0.9528018236160278,-96.25244140625,30.517578125,84.41162109375
4.304610252380371,1582291848,1,0.2928369343280792,0.1417459398508072,0.5318716168403625,-33.69140625,17.51708984375,60.546875
4.319976329803467,1582291862,0,-0.11007910221815109,0.17494910955429077,1.0633975267410278,-74.27978515625,31.67724609375,118.46923828125
4.319995164871216,1582291881,0,-0.012666992843151093,0.27602332830429077,1.1378604173660278,-67.07763671875,33.14208984375,131.2255859375
4.337769031524658,1582291884,1,0.21568849682807922,0.1620096117258072,0.6231802105903625,-26.06201171875,25.20751953125,-9.70458984375
4.362834215164185,1582291903,1,0.07579591870307922,0.2332986742258072,0.6202505230903625,-26.67236328125,54.19921875,-34.11865234375
4.364378213882446,1582291922,1,0.007924824953079224,0.343406081199646,0.6568716168403625,-12.39013671875,80.56640625,-47.30224609375
4.386034965515137,1582291900,0,-0.06051855534315109,0.31899207830429077,1.2902041673660278,-117.7978515625,38.9404296875,94.42138671875
4.38604211807251,1582291919,0,-0.2394736409187317,0.24257606267929077,1.4076358079910278,-152.34375,51.1474609375,83.6181640625
4.386048078536987,1582291938,0,-0.3918173909187317,0.03945107012987137,1.4528018236160278,-171.93603515625,73.91357421875,119.9951171875
4.394582033157349,1582291941,1,-0.16199705004692078,0.349997878074646,0.7772329449653625,-19.1650390625,97.22900390625,-56.82373046875
4.411488056182861,1582291974,0,-0.3503134846687317,0.10195107012987137,1.3280459642410278,-167.41943359375,91.4306640625,189.75830078125
4.434115171432495,1582291960,1,-0.16907712817192078,0.409812331199646,0.8099477887153625,-24.7802734375,73.79150390625,-54.01611328125
4.434122085571289,1582291979,1,-0.2562353312969208,0.431296706199646,0.8197134137153625,-42.54150390625,52.8564453125,-56.45751953125
4.440855026245117,1582291993,0,-0.4357627034187317,0.05629677325487137,1.3378115892410278,-155.8837890625,61.95068359375,164.794921875
4.4546661376953125,1582291998,1,-0.24231931567192078,0.442527174949646,0.8172720074653625,-62.6220703125,32.77587890625,-66.0400390625
4.48962926864624,1582292017,1,-0.3765966594219208,0.445456862449646,0.8646352887153625,-73.3642578125,43.15185546875,-89.78271484375
4.489634037017822,1582292036,1,-0.4630224406719208,0.417136549949646,0.9857290387153625,-80.38330078125,47.42431640625,-116.0888671875
4.498956203460693,1582292012,0,-0.5890830159187317,-0.03232627362012863,1.4083682298660278,-161.2548828125,49.8046875,155.57861328125
4.499054193496704,1582292031,0,-0.6174033284187317,-0.15976768732070923,1.4571963548660278,-205.99365234375,55.419921875,166.3818359375
4.499064207077026,1582292050,0,-0.5802939534187317,-0.006203226745128632,1.4203311204910278,-262.0849609375,80.87158203125,169.12841796875
4.514925241470337,1582292055,1,-0.5965673923492432,0.433005690574646,1.0907095670700073,-72.57080078125,37.59765625,-135.92529296875
4.515017032623291,1582292074,1,-0.7723486423492432,0.510154128074646,1.1629751920700073,-68.7255859375,-1.46484375,-155.33447265625
4.536315202713013,1582292069,0,-0.5165732502937317,0.16274207830429077,1.5113955736160278,-281.67724609375,89.2333984375,113.8916015625
4.536320209503174,1582292088,0,-0.6574423909187317,0.02724403887987137,1.5345889329910278,-269.22607421875,76.11083984375,59.38720703125
4.5445942878723145,1582292093,1,-0.9454443454742432,0.558738112449646,1.1561392545700073,-92.95654296875,-77.57568359375,-149.7802734375
4.5597381591796875,1582292107,0,-0.6008017659187317,0.04701942950487137,1.6681338548660278,-289.4287109375,79.4677734375,48.88916015625
4.583869934082031,1582292112,1,-0.8482763767242432,0.398826003074646,1.3033560514450073,-129.69970703125,-165.8935546875,-132.6904296875
4.590051174163818,1582292126,0,-0.4889853596687317,0.11391396075487137,1.9161807298660278,-314.0869140625,145.44677734375,57.9833984375
4.590057134628296,1582292145,0,-0.7585166096687317,0.32973426580429077,1.8929873704910278,-295.71533203125,187.6220703125,12.3291015625
4.60498833656311,1582292148,1,-1.0396826267242432,0.307273268699646,1.2794302701950073,-189.3310546875,-244.32373046875,-117.37060546875
4.619720220565796,1582292164,0,-0.5978720784187317,-0.11069541424512863,1.6405459642410278,-258.1787109375,176.1474609375,3.173828125
4.619751214981079,1582292183,0,-0.5407431721687317,0.8595194220542908,2.2501649856567383,-244.32373046875,44.677734375,27.40478515625
4.637718200683594,1582292167,1,-3.973032236099243,1.898093581199646,1.6060904264450073,-179.0771484375,-324.951171875,-94.42138671875
4.637724161148071,1582292186,1,-1.7796728610992432,1.069480299949646,0.6829946637153625,-159.11865234375,-228.08837890625,37.90283203125
4.648181200027466,1582292202,0,-1.471651315689087,-0.05063682049512863,1.5648623704910278,-169.3115234375,113.70849609375,-30.94482421875
4.663302183151245,1582292205,1,-1.2801611423492432,0.420066237449646,1.4596060514450073,-5.7373046875,-127.74658203125,30.09033203125
4.663374185562134,1582292224,1,-0.9447119235992432,0.512351393699646,1.3067740201950073,-1.64794921875,-164.6728515625,-30.029296875
4.686691045761108,1582292238,0,-1.053926706314087,-0.38364464044570923,1.2184268236160278,-215.02685546875,191.2841796875,2.38037109375
4.693088054656982,1582292243,1,-1.0284521579742432,0.525534987449646,1.1976431608200073,4.08935546875,-139.16015625,-62.98828125
4.707987308502197,1582292257,0,-1.077120065689087,-0.25180870294570923,1.2098819017410278,-164.36767578125,177.1240234375,-53.40576171875
4.732494115829468,1582292262,1,-0.9276220798492432,0.438132643699646,1.0338248014450073,53.40576171875,-67.56591796875,-57.373046875
4.732501029968262,1582292281,1,-0.9766943454742432,0.462546706199646,1.1981314420700073,121.2158203125,8.85009765625,2.74658203125
4.738043308258057,1582292276,0,-0.9643271565437317,-0.31333214044570923,1.1017276048660278,-102.84423828125,140.0146484375,-55.96923828125
4.7381272315979,1582292295,0,-0.8339560627937317,-0.47129112482070923,0.9767276048660278,-25.93994140625,108.2763671875,-19.8974609375
4.753117322921753,1582292300,1,-0.9972021579742432,-0.2208028882741928,0.23548491299152374,43.701171875,87.34130859375,20.8740234375
4.768317222595215,1582292314,0,-0.7526572346687317,-0.7056661248207092,0.8065615892410278,44.3115234375,92.10205078125,15.56396484375
4.76835823059082,1582292333,0,-0.5041220784187317,-0.5582051873207092,0.7687197923660278,66.58935546875,115.41748046875,8.056640625
4.789781093597412,1582292319,1,-0.2740575969219208,0.1502908617258072,1.1815298795700073,66.95556640625,-9.21630859375,54.19921875
4.789787292480469,1582292338,1,-0.18738767504692078,0.1419900804758072,0.8844106793403625,120.7275390625,-64.02587890625,27.9541015625
4.798411130905151,1582292352,0,-0.3508017659187317,-0.45395714044570923,0.7135440111160278,83.740234375,125.54931640625,14.5263671875
4.813086986541748,1582292357,1,-0.18934080004692078,0.1502908617258072,0.5919302105903625,110.7177734375,-47.66845703125,36.31591796875
4.813117265701294,1582292376,1,0.08800294995307922,-0.01035366952419281,0.40125641226768494,109.92431640625,35.70556640625,14.892578125
4.8351922035217285,1582292371,0,-0.3317587971687317,-0.28183799982070923,0.7704287767410278,111.63330078125,109.2529296875,31.6162109375
4.83519721031189,1582292390,0,-0.2040732502937317,-0.09970908612012863,0.7489444017410278,168.8232421875,103.69873046875,63.04931640625
4.858221054077148,1582292409,0,-0.1972373127937317,0.01772255450487137,0.6625186204910278,204.77294921875,96.49658203125,71.71630859375
4.88276219367981,1582292412,1,-0.11951658129692078,0.256492018699646,0.42884430289268494,142.76123046875,130.43212890625,19.6533203125
4.882767200469971,1582292431,1,-0.14734861254692078,0.312888503074646,0.43030914664268494,92.10205078125,66.7724609375,80.01708984375
4.889997243881226,1582292428,0,-0.1291220784187317,0.20546668767929077,0.5196963548660278,199.0966796875,87.95166015625,69.82421875
4.890077352523804,1582292447,0,-0.09982519596815109,0.27480262517929077,0.41203033924102783,151.7333984375,91.36962890625,71.47216796875
4.906722068786621,1582292450,1,-0.016733378171920776,0.2467264086008072,0.42103180289268494,67.5048828125,29.35791015625,88.80615234375
4.9315080642700195,1582292466,0,-0.05856543034315109,0.28041785955429077,0.39176666736602783,101.98974609375,82.33642578125,68.17626953125
4.937153100967407,1582292469,1,-0.00037595629692077637,0.2252420336008072,0.42884430289268494,65.61279296875,33.02001953125,85.51025390625
4.937157154083252,1582292488,1,0.07604005932807922,0.2467264086008072,0.5233266949653625,60.1806640625,63.96484375,90.33203125
4.949735164642334,1582292502,0,-0.06173925846815109,0.23525184392929077,0.45499908924102783,70.61767578125,26.2451171875,77.1484375
4.964808940887451,1582292507,1,0.020864278078079224,0.2398904711008072,0.5758169293403625,72.32666015625,104.1259765625,86.48681640625
4.964876174926758,1582292526,1,0.060170918703079224,0.2091287523508072,0.5614126324653625,71.6552734375,143.37158203125,86.0595703125
4.987611293792725,1582292521,0,0.05105371028184891,0.29360145330429077,0.5558291673660278,29.35791015625,10.19287109375,88.68408203125
4.987616062164307,1582292540,0,0.1599404215812683,0.31630653142929077,0.7709170579910278,-55.48095703125,23.5595703125,78.857421875
4.994538068771362,1582292545,1,0.09557130932807922,0.2323221117258072,0.5772817730903625,62.43896484375,159.72900390625,69.03076171875
5.0096211433410645,1582292559,0,0.08889550715684891,0.17861121892929077,1.0128604173660278,-117.7978515625,22.94921875,62.744140625
5.033288955688477,1582292564,1,0.15831544995307922,0.2171853929758072,0.6717641949653625,37.109375,126.28173828125,55.23681640625
5.033294200897217,1582292583,1,0.20274904370307922,0.2394021898508072,0.6724966168403625,3.84521484375,65.4296875,52.490234375
5.041244268417358,1582292578,0,-0.0075400397181510925,-0.0030293986201286316,1.2618838548660278,-124.93896484375,14.5263671875,82.6416015625
5.041248083114624,1582292597,0,-0.08786230534315109,-0.04843955487012863,1.2628604173660278,-85.14404296875,20.32470703125,104.67529296875
5.0545899868011475,1582292602,1,0.19444826245307922,0.2455057054758072,0.6275747418403625,-23.13232421875,32.2265625,38.330078125
5.069749116897583,1582292616,0,-0.026827149093151093,0.03163857012987137,1.1852236986160278,-44.3115234375,28.86962890625,141.41845703125
5.069809198379517,1582292635,0,0.07204980403184891,0.15761512517929077,1.1588565111160278,-54.62646484375,33.8134765625,125.67138671875
5.089749097824097,1582292621,1,0.17003419995307922,0.325827956199646,0.6090200543403625,-38.02490234375,12.51220703125,22.8271484375
5.089754104614258,1582292640,1,0.10924318432807922,0.332663893699646,0.6368520855903625,-43.15185546875,22.88818359375,-0.6103515625
5.1000871658325195,1582292654,0,0.05056542903184891,0.18544715642929077,1.2145205736160278,-88.2568359375,31.3720703125,95.88623046875
5.112978219985962,1582292676,1,-0.032846659421920776,0.410544753074646,0.6280630230903625,-54.931640625,57.2509765625,-61.1572265625
5.138390064239502,1582292673,0,-0.10544043034315109,0.10024208575487137,1.2860537767410278,-116.39404296875,20.56884765625,80.810546875
5.138395309448242,1582292692,0,-0.2106650471687317,0.03627724200487137,1.3270694017410278,-123.4130859375,26.611328125,107.7880859375
5.143822193145752,1582292695,1,-0.2601415812969208,0.558493971824646,0.7288931012153625,-42.6025390625,71.8994140625,-77.33154296875
5.160046100616455,1582292711,0,-0.1813681721687317,0.08168739825487137,1.3177920579910278,-121.52099609375,54.26025390625,142.333984375
5.185328245162964,1582292714,1,-0.3731786906719208,0.568747878074646,0.8031118512153625,-45.2880859375,58.10546875,-105.77392578125
5.18959903717041,1582292730,0,-0.11422949284315109,0.19765418767929077,1.3004580736160278,-126.220703125,66.89453125,143.1884765625
5.2046263217926025,1582292733,1,-0.4920751750469208,0.643699049949646,0.8077505230903625,-50.10986328125,28.4423828125,-106.14013671875
5.20465612411499,1582292752,1,-0.5511572360992432,0.638572096824646,0.8155630230903625,-66.7724609375,1.220703125,-100.7080078125
5.2308690547943115,1582292766,0,-0.3559287190437317,0.08241982012987137,1.3382998704910278,-145.56884765625,39.61181640625,88.0126953125
5.230874300003052,1582292785,0,-0.4050009846687317,0.012107320129871368,1.3973819017410278,-150.20751953125,35.82763671875,116.51611328125
5.236591100692749,1582292771,1,-0.6597998142242432,0.656638503074646,0.8416860699653625,-72.69287109375,-15.31982421875,-105.46875
5.23659610748291,1582292790,1,-0.7674658298492432,0.689841628074646,0.8614614605903625,-70.9228515625,-17.76123046875,-120.91064453125
5.248100280761719,1582292804,0,-0.3683798909187317,0.08803505450487137,1.4540225267410278,-162.4755859375,47.79052734375,140.19775390625
5.262307167053223,1582292809,1,-0.8311865329742432,0.702781081199646,0.8780630230903625,-66.10107421875,-25.45166015625,-130.4931640625
5.287914037704468,1582292823,0,-0.3920615315437317,0.15517371892929077,1.4916201829910278,-177.30712890625,64.8193359375,141.29638671875
5.287920236587524,1582292842,0,-0.4484580159187317,0.16445106267929077,1.4676944017410278,-191.7724609375,61.58447265625,123.71826171875
5.294661283493042,1582292828,1,-0.8765966892242432,0.700827956199646,0.8739126324653625,-71.47216796875,-41.19873046875,-120.7275390625
5.294682264328003,1582292847,1,-0.8848974704742432,0.613913893699646,0.8609731793403625,-91.064453125,-64.208984375,-111.99951171875
5.309576988220215,1582292861,0,-0.4750693440437317,0.18105262517929077,1.5026065111160278,-211.24267578125,58.16650390625,110.53466796875
5.334927082061768,1582292866,1,-0.8692724704742432,0.467673659324646,0.8324087262153625,-106.8115234375,-76.96533203125,-140.31982421875
5.334932088851929,1582292885,1,-0.9637548923492432,0.438865065574646,0.9176138043403625,-107.23876953125,-85.693359375,-177.24609375
5.3396830558776855,1582292880,0,-0.5050986409187317,0.26650184392929077,1.5992861986160278,-236.4501953125,74.15771484375,118.7744140625
5.339714050292969,1582292899,0,-0.5197470784187317,0.35683387517929077,1.6903506517410278,-273.8037109375,121.58203125,109.31396484375
5.35302209854126,1582292904,1,-1.1688330173492432,0.627585768699646,1.0770376920700073,-77.0263671875,-106.4453125,-177.3681640625
5.369971036911011,1582292918,0,-0.6584189534187317,0.29311317205429077,1.6805850267410278,-307.67822265625,159.3017578125,80.38330078125
5.388806343078613,1582292940,1,-1.2042334079742432,0.502341628074646,0.9754751324653625,-34.97314453125,-139.58740234375,-94.78759765625
5.399855136871338,1582292937,0,-0.8036826252937317,0.13368934392929077,1.6644717454910278,-326.171875,166.259765625,54.01611328125
5.3999552726745605,1582292956,0,-0.3886435627937317,-0.30869346857070923,1.4193545579910278,-302.3681640625,123.1689453125,50.59814453125
5.414572238922119,1582292959,1,-1.8099462985992432,1.253806471824646,0.9603384137153625,-44.98291015625,-212.58544921875,-45.34912109375
5.437995195388794,1582292975,0,0.1848427653312683,0.23744910955429077,1.4318057298660278,-263.61083984375,68.78662109375,73.66943359375
5.438030242919922,1582292994,0,-0.9489462971687317,-0.27426964044570923,1.6600772142410278,-168.5791015625,118.408203125,23.193359375
5.444931268692017,1582292978,1,-1.3697607517242432,0.740134596824646,0.6331899762153625,0.91552734375,-89.17236328125,-26.30615234375
5.444936990737915,1582292997,1,-1.2503759860992432,0.451072096824646,0.9141958355903625,14.0380859375,-38.75732421875,4.150390625
5.483323335647583,1582293016,1,-0.8487646579742432,0.373191237449646,1.2391470670700073,42.66357421875,-109.92431640625,4.150390625
5.483328104019165,1582293035,1,-0.9046728610992432,0.04238070547580719,0.5958364605903625,40.71044921875,-57.31201171875,-21.484375
5.4900062084198,1582293030,0,-0.6481650471687317,-0.45273643732070923,1.2599307298660278,-119.384765625,171.9970703125,-4.08935546875
5.490038156509399,1582293049,0,-0.7109091877937317,-0.5535665154457092,1.1349307298660278,-72.57080078125,125.54931640625,-20.5078125
5.517776250839233,1582293068,0,-0.5834677815437317,-0.48813682794570923,1.0189639329910278,-30.517578125,136.8408203125,-0.6103515625
5.538289308547974,1582293054,1,-0.7752783298492432,0.381247878074646,0.8653677105903625,98.44970703125,-22.76611328125,-8.1787109375
5.538294076919556,1582293073,1,-0.8558447360992432,0.400046706199646,0.6383169293403625,115.66162109375,10.80322265625,3.7841796875
5.538297176361084,1582293092,1,-0.7127783298492432,0.444724440574646,0.6573598980903625,91.85791015625,17.333984375,55.72509765625
5.549961090087891,1582293087,0,-0.5856650471687317,-0.46372276544570923,0.9862490892410278,-5.859375,157.8369140625,1.40380859375
5.550055265426636,1582293106,0,-0.3696005940437317,-0.42221885919570923,0.8036319017410278,13.85498046875,145.01953125,-1.3427734375
5.564688205718994,1582293111,1,-0.3094579875469208,0.2144998461008072,0.6261098980903625,92.529296875,10.009765625,68.42041015625
5.587522029876709,1582293125,0,-0.4533408284187317,-0.47690635919570923,0.9459658861160278,52.79541015625,135.19287109375,14.58740234375
5.587526321411133,1582293144,0,-0.2956259846687317,-0.29966026544570923,0.8614932298660278,87.0361328125,119.81201171875,15.625
5.594693183898926,1582293130,1,-0.2833349406719208,0.2301248461008072,0.7032583355903625,95.15380859375,7.62939453125,60.72998046875
5.594726324081421,1582293149,1,-0.24817869067192078,0.296286940574646,0.6551626324653625,109.619140625,4.57763671875,80.078125
5.6118152141571045,1582293163,0,-0.3024619221687317,-0.26963096857070923,0.9435244798660278,130.31005859375,114.07470703125,38.4521484375
5.638785123825073,1582293182,0,-0.2348349690437317,-0.08872275799512863,0.9281436204910278,181.7626953125,111.81640625,63.96484375
5.641494035720825,1582293201,0,-0.1955283284187317,0.06069130450487137,0.8382998704910278,194.39697265625,110.65673828125,66.650390625
5.654717206954956,1582293168,1,-0.2657568156719208,0.311179518699646,0.5318716168403625,100.89111328125,14.7705078125,89.2333984375
5.654728174209595,1582293204,1,-0.09778806567192078,0.308738112449646,0.5335806012153625,84.77783203125,37.41455078125,79.58984375
5.669947147369385,1582293220,0,-0.2023642659187317,0.17909950017929077,0.6871768236160278,178.40576171875,116.51611328125,73.18115234375
5.690742015838623,1582293223,1,-0.11219236254692078,0.363913893699646,0.43738922476768494,90.14892578125,38.0859375,84.04541015625
5.690749168395996,1582293242,1,-0.10242673754692078,0.367820143699646,0.41517242789268494,75.439453125,34.11865234375,86.669921875
5.6998960971832275,1582293239,0,-0.1965048909187317,0.19472450017929077,0.5834170579910278,156.79931640625,116.8212890625,84.228515625
5.699965238571167,1582293258,0,-0.1510947346687317,0.26161903142929077,0.46696197986602783,126.3427734375,105.46875,94.42138671875
5.7151172161102295,1582293261,1,-0.12684080004692078,0.369773268699646,0.36048492789268494,60.4248046875,24.71923828125,91.85791015625
5.7359442710876465,1582293294,0,-0.08078222721815109,0.29360145330429077,0.42252838611602783,61.95068359375,66.22314453125,97.7783203125
5.745603084564209,1582293280,1,-0.10975095629692078,0.364402174949646,0.27820953726768494,36.68212890625,36.43798828125,99.4873046875
5.745611190795898,1582293299,1,-0.054819315671920776,0.359763503074646,0.23963530361652374,26.55029296875,66.46728515625,92.1630859375
5.759016275405884,1582293313,0,-0.010713867843151093,0.33681434392929077,0.48307526111602783,19.22607421875,42.724609375,99.9755859375
5.783562183380127,1582293318,1,0.014516621828079224,0.268699049949646,0.26844391226768494,12.51220703125,102.96630859375,79.1015625
5.789693355560303,1582293332,0,0.04348535090684891,0.35781043767929077,0.6442080736160278,-31.06689453125,43.15185546875,96.6796875
5.789780139923096,1582293351,0,-0.011446289718151093,0.26869910955429077,0.8094912767410278,-84.89990234375,54.50439453125,90.087890625
5.8048882484436035,1582293337,1,0.07506349682807922,0.269675612449646,0.32728180289268494,14.70947265625,119.2626953125,64.88037109375
5.804931163787842,1582293356,1,0.07262209057807922,0.298728346824646,0.40589508414268494,5.31005859375,108.3984375,39.85595703125
5.8195881843566895,1582293370,0,-0.03317480534315109,0.17812293767929077,0.8841983079910278,-102.6611328125,54.13818359375,113.8916015625
5.837783098220825,1582293375,1,0.035512715578079224,0.347800612449646,0.49036774039268494,-13.18359375,73.42529296875,25.81787109375
5.837788343429565,1582293394,1,0.013295918703079224,0.371238112449646,0.46570953726768494,-34.66796875,38.51318359375,5.67626953125
5.849936246871948,1582293389,0,-0.0029013678431510925,0.14199012517929077,0.9186221361160278,-92.8955078125,42.90771484375,119.07958984375
5.850003242492676,1582293408,0,0.014920897781848907,0.15907996892929077,0.9313174486160278,-92.1630859375,27.9541015625,119.81201171875
5.863123178482056,1582293413,1,-0.10218259692192078,0.428611159324646,0.5030630230903625,-44.7998046875,17.4560546875,-14.404296875
5.887357950210571,1582293427,0,0.0056435540318489075,0.19252723455429077,0.9794131517410278,-101.37939453125,16.4794921875,106.3232421875
5.894536256790161,1582293432,1,-0.21009275317192078,0.456443190574646,0.5091665387153625,-66.89453125,11.04736328125,-38.2080078125
5.909651279449463,1582293446,0,-0.06369238346815109,0.17592567205429077,1.0502139329910278,-122.25341796875,15.13671875,93.81103515625
5.909679174423218,1582293465,0,-0.11764746159315109,0.14931434392929077,1.0585147142410278,-143.1884765625,29.1748046875,101.5625
5.933264255523682,1582293468,1,-0.3592626750469208,0.623435378074646,0.6131704449653625,-88.31787109375,0.8544921875,-35.09521484375
5.940561294555664,1582293484,0,-0.05148535221815109,0.19301551580429077,1.0619326829910278,-160.21728515625,42.236328125,110.77880859375
5.940566062927246,1582293503,0,0.03176660090684891,0.25258582830429077,1.0821963548660278,-178.40576171875,39.85595703125,87.46337890625
5.954687118530273,1582293487,1,-0.3494970500469208,0.568747878074646,0.7076528668403625,-94.970703125,-13.61083984375,-36.9873046875
5.954706192016602,1582293506,1,-0.3895361125469208,0.572165846824646,0.7767446637153625,-91.36962890625,-33.14208984375,-48.33984375
5.989112138748169,1582293525,1,-0.4498388469219208,0.583640456199646,0.7918813824653625,-90.14892578125,-41.8701171875,-65.3076171875
6.0002970695495605,1582293522,0,-0.03927832096815109,0.21718543767929077,1.1608096361160278,-178.3447265625,18.73779296875,51.26953125
6.0003111362457275,1582293558,0,-0.2380087971687317,0.10292763262987137,1.3199893236160278,-164.1845703125,13.427734375,72.08251953125
6.014894247055054,1582293544,1,-0.4554540812969208,0.572409987449646,0.7943227887153625,-94.90966796875,-46.0205078125,-73.54736328125
6.014963150024414,1582293563,1,-0.4769384562969208,0.599509596824646,0.8070181012153625,-102.96630859375,-42.78564453125,-71.71630859375
6.036020040512085,1582293577,0,-0.2048056721687317,0.08632607012987137,1.3685733079910278,-164.24560546875,22.64404296875,95.03173828125
6.044677257537842,1582293582,1,-0.4815771281719208,0.544822096824646,0.8624380230903625,-106.93359375,-34.1796875,-79.833984375
6.044705152511597,1582293601,1,-0.5316259860992432,0.520408034324646,0.9051626324653625,-98.81591796875,-27.587890625,-101.07421875
6.05982518196106,1582293596,0,-0.1513388752937317,0.17592567205429077,1.4083682298660278,-162.7197265625,32.53173828125,103.94287109375
6.059855222702026,1582293615,0,-0.2919638752937317,0.17616981267929077,1.4237490892410278,-168.701171875,37.9638671875,80.810546875
6.084684133529663,1582293620,1,-0.5929052829742432,0.513083815574646,0.9212759137153625,-90.39306640625,-25.87890625,-125.6103515625
6.089698076248169,1582293634,0,-0.3925498127937317,0.08412880450487137,1.4806338548660278,-173.095703125,38.2080078125,84.1064453125
6.089763164520264,1582293653,0,-0.3954795002937317,0.12685340642929077,1.5301944017410278,-179.26025390625,37.65869140625,96.61865234375
6.104820966720581,1582293639,1,-0.6790869235992432,0.533591628074646,0.9610708355903625,-86.73095703125,-35.82763671875,-142.15087890625
6.104894161224365,1582293658,1,-0.7147314548492432,0.561423659324646,1.0047720670700073,-84.16748046875,-47.2412109375,-135.80322265625
6.119701147079468,1582293672,0,-0.4108603596687317,0.18569129705429077,1.5992861986160278,-194.2138671875,59.02099609375,102.23388671875
6.1381611824035645,1582293677,1,-0.7733252048492432,0.536277174949646,1.0011099576950073,-84.3505859375,-62.3779296875,-122.1923828125
6.138166189193726,1582293696,1,-0.8092138767242432,0.433005690574646,0.9942739605903625,-87.58544921875,-66.83349609375,-128.7841796875
6.149682283401489,1582293691,0,-0.4425986409187317,0.16200965642929077,1.5890322923660278,-205.56640625,94.29931640625,111.328125
6.149693250656128,1582293710,0,-0.5099814534187317,0.21205848455429077,1.5231143236160278,-220.21484375,114.1357421875,106.689453125
6.185539245605469,1582293729,0,-0.5300009846687317,0.22206825017929077,1.4842959642410278,-238.70849609375,114.3798828125,97.22900390625
6.194821119308472,1582293732,1,-0.9979345798492432,0.502585768699646,1.1336783170700073,-56.5185546875,-71.96044921875,-178.28369140625
6.194854259490967,1582293751,1,-2.279672861099243,0.967429518699646,0.9556997418403625,-19.95849609375,-137.451171875,-107.84912109375
6.209679126739502,1582293748,0,-0.2289755940437317,0.10317177325487137,1.4193545579910278,-254.2724609375,108.70361328125,75.439453125
6.20970606803894,1582293767,0,-1.002413034439087,0.6891092658042908,1.0021182298660278,-273.3154296875,45.59326171875,56.396484375
6.23301100730896,1582293770,1,-1.1915380954742432,0.691062331199646,0.8580434918403625,-10.68115234375,-56.396484375,-4.638671875
6.240161180496216,1582293786,0,-0.4709189534187317,-0.08359580487012863,1.8143740892410278,-212.890625,107.666015625,53.3447265625
6.2547831535339355,1582293789,1,-1.4859716892242432,0.493552565574646,0.8014028668403625,33.3251953125,-31.55517578125,-64.0869140625
6.254857063293457,1582293808,1,-1.3734228610992432,0.602195143699646,1.1639517545700073,45.0439453125,-48.27880859375,-71.1669921875
6.269171953201294,1582293822,0,-0.6032431721687317,-0.16318565607070923,1.4320498704910278,-192.3828125,164.9169921875,-24.84130859375
6.288618087768555,1582293827,1,-1.1004736423492432,0.504783034324646,0.8170278668403625,21.6064453125,-95.947265625,-13.7939453125
6.288623094558716,1582293846,1,-0.7408545017242432,0.2328103929758072,0.6646841168403625,50.47607421875,-60.546875,-14.46533203125
6.29990029335022,1582293841,0,-0.8024619221687317,-0.5176778435707092,1.6503115892410278,-179.5654296875,121.337890625,-56.884765625
6.299931287765503,1582293860,0,-0.8717978596687317,-0.5872579216957092,1.8214541673660278,-127.0751953125,136.16943359375,3.11279296875
6.314527988433838,1582293865,1,-1.0850927829742432,0.283835768699646,0.7142446637153625,143.6767578125,38.87939453125,-51.8798828125
6.3372111320495605,1582293879,0,-0.5053427815437317,-0.46225792169570923,1.4445010423660278,-52.1240234375,165.83251953125,-7.568359375
6.344890117645264,1582293884,1,-1.1229345798492432,0.357566237449646,0.7325552105903625,109.43603515625,14.2822265625,-20.6298828125
6.344923257827759,1582293903,1,-1.0299170017242432,0.501120924949646,0.8216665387153625,118.408203125,-28.50341796875,43.39599609375
6.359922170639038,1582293898,0,-0.6152060627937317,-0.17881065607070923,1.3653994798660278,33.75244140625,174.37744140625,-11.71875
6.359999179840088,1582293917,0,-0.4413779377937317,-0.27451378107070923,0.9464541673660278,55.0537109375,146.54541015625,3.96728515625
6.382991313934326,1582293922,1,-0.7784521579742432,0.281882643699646,0.5919302105903625,76.47705078125,-39.9169921875,96.923828125
6.389718055725098,1582293936,0,-0.5082724690437317,-0.5738301873207092,1.1998721361160278,19.4091796875,135.986328125,-11.29150390625
6.389794111251831,1582293955,0,-0.3031943440437317,-0.43198448419570923,1.0482608079910278,45.34912109375,180.35888671875,15.19775390625
6.404770135879517,1582293941,1,-0.2992040812969208,0.07509554922580719,0.7335317730903625,37.29248046875,-74.0966796875,86.669921875
6.40483832359314,1582293960,1,-0.3851415812969208,0.258689284324646,0.6468618512153625,77.2705078125,-41.6259765625,111.99951171875
6.419840097427368,1582293974,0,-0.3503134846687317,-0.47300010919570923,1.0753604173660278,42.66357421875,154.78515625,24.35302734375
6.4375550746917725,1582293996,1,-0.20057126879692078,0.271628737449646,0.5077016949653625,114.1357421875,38.51318359375,72.6318359375
6.449914216995239,1582293993,0,-0.2641318440437317,-0.32675987482070923,1.1571475267410278,119.62890625,138.916015625,59.26513671875
6.449930191040039,1582294012,0,-0.2946494221687317,-0.09531455487012863,0.9947940111160278,192.32177734375,115.53955078125,55.96923828125
6.464666128158569,1582294015,1,-0.3148290812969208,0.317038893699646,0.34730133414268494,100.341796875,68.42041015625,95.947265625
6.486130952835083,1582294031,0,-0.2829306721687317,-0.08896689862012863,0.8412295579910278,223.93798828125,100.52490234375,76.59912109375
6.4946980476379395,1582294034,1,-0.2515966594219208,0.279441237449646,0.26966461539268494,82.6416015625,75.25634765625,104.8583984375
6.494764089584351,1582294053,1,-0.2931005656719208,0.316062331199646,0.24036772549152374,61.1572265625,71.96044921875,117.98095703125
6.5100133419036865,1582294050,0,-0.2966025471687317,-0.04648642987012863,0.6832705736160278,217.46826171875,109.31396484375,90.39306640625
6.533591032028198,1582294072,1,-0.07142087817192078,0.260642409324646,0.36048492789268494,63.04931640625,67.0166015625,106.93359375
6.539687156677246,1582294086,0,-0.2299521565437317,0.03432411700487137,0.36344635486602783,129.7607421875,128.96728515625,107.2998046875
6.539727210998535,1582294105,0,-0.1965048909187317,0.08901161700487137,0.24772368371486664,97.2900390625,115.29541015625,126.40380859375
6.554136037826538,1582294091,1,-0.13245603442192078,0.313132643699646,0.34315094351768494,68.603515625,75.1953125,95.21484375
6.55417013168335,1582294110,1,-0.11536619067192078,0.327536940574646,0.31409820914268494,56.5185546875,93.07861328125,103.45458984375
6.569932222366333,1582294124,0,-0.08712988346815109,0.15395301580429077,0.20304594933986664,61.46240234375,93.1396484375,133.6669921875
6.5877649784088135,1582294129,1,-0.09705564379692078,0.288718581199646,0.33558258414268494,21.17919921875,113.76953125,97.412109375
6.599765062332153,1582294143,0,0.027860350906848907,0.19448035955429077,0.27628815174102783,15.869140625,54.38232421875,132.568359375
6.599828004837036,1582294162,0,0.12038964778184891,0.27699989080429077,0.45817291736602783,-25.146484375,29.6630859375,124.755859375
6.614675283432007,1582294148,1,0.058706074953079224,0.298728346824646,0.46912750601768494,7.080078125,120.17822265625,83.31298828125
6.614704132080078,1582294167,1,0.09117677807807922,0.289206862449646,0.5223501324653625,-0.1220703125,110.90087890625,66.650390625
6.637415170669556,1582294181,0,0.10867089778184891,0.28774207830429077,0.6359072923660278,-64.453125,28.01513671875,109.130859375
6.6450700759887695,1582294186,1,0.12608888745307922,0.287742018699646,0.6070669293403625,-24.7802734375,85.0830078125,45.71533203125
6.64507532119751,1582294205,1,0.12315919995307922,0.318015456199646,0.6900747418403625,-28.99169921875,59.814453125,13.7939453125
6.659799098968506,1582294200,0,0.04006738215684891,0.22768348455429077,0.6954776048660278,-100.28076171875,39.48974609375,123.9013671875
6.659858226776123,1582294219,0,0.0044228509068489075,0.18813270330429077,0.7574893236160278,-120.42236328125,49.560546875,134.58251953125
6.684208154678345,1582294224,1,0.042836934328079224,0.402243971824646,0.7042348980903625,-24.84130859375,35.58349609375,-22.0947265625
6.68841814994812,1582294238,0,0.07278222590684891,0.19692176580429077,0.7855654954910278,-149.23095703125,46.08154296875,149.84130859375
6.704744338989258,1582294260,1,-0.14539548754692078,0.512107253074646,0.6229360699653625,-54.3212890625,0.8544921875,-54.0771484375
6.719868183135986,1582294257,0,0.08645410090684891,0.24330848455429077,0.8258486986160278,-182.373046875,20.81298828125,128.173828125
6.719896078109741,1582294276,0,0.07912988215684891,0.21425575017929077,1.0101748704910278,-208.8623046875,4.45556640625,97.5341796875
6.736952066421509,1582294279,1,-0.21375486254692078,0.550193190574646,0.6495473980903625,-68.115234375,-16.6015625,-50.84228515625
6.749926328659058,1582294295,0,0.03713769465684891,0.18056434392929077,1.1324893236160278,-214.05029296875,5.79833984375,90.51513671875
6.749982118606567,1582294314,0,0.03689355403184891,0.18154090642929077,1.1871768236160278,-210.63232421875,18.24951171875,98.7548828125
6.764686107635498,1582294298,1,-0.23816892504692078,0.575095534324646,0.6400259137153625,-74.76806640625,-43.27392578125,-51.3916015625
6.76469612121582,1582294317,1,-0.3057958781719208,0.587302565574646,0.6324575543403625,-86.97509765625,-57.6171875,-69.82421875
6.792809009552002,1582294336,1,-0.3678075969219208,0.587790846824646,0.6593130230903625,-95.0927734375,-61.70654296875,-90.33203125
6.794440984725952,1582294355,1,-0.4390966594219208,0.620505690574646,0.7108266949653625,-98.2666015625,-60.97412109375,-111.572265625
6.809807300567627,1582294350,0,0.030545897781848907,0.26357215642929077,1.2377139329910278,-209.228515625,20.56884765625,85.693359375
6.809812068939209,1582294369,0,-0.008028320968151093,0.24574989080429077,1.3649111986160278,-221.37451171875,15.07568359375,68.7255859375
6.834122180938721,1582294374,1,-0.5328466892242432,0.696433424949646,0.8009145855903625,-90.087890625,-59.38720703125,-118.10302734375
6.839837312698364,1582294388,0,-0.06198339909315109,0.15761512517929077,1.5211611986160278,-229.736328125,21.66748046875,60.11962890625
6.8549511432647705,1582294393,1,-0.5682470798492432,0.687400221824646,0.8673208355903625,-76.904296875,-64.94140625,-109.80224609375
6.8549933433532715,1582294412,1,-0.6273291110992432,0.664939284324646,0.8905141949653625,-69.88525390625,-71.6552734375,-112.9150390625
6.86992621421814,1582294407,0,-0.1371787190437317,0.13368934392929077,1.5792666673660278,-226.13525390625,37.41455078125,67.68798828125
6.869992256164551,1582294426,0,-0.2199423909187317,0.12172646075487137,1.6185733079910278,-209.89990234375,58.77685546875,91.30859375
6.888824224472046,1582294431,1,-0.6922705173492432,0.642722487449646,0.8741567730903625,-66.71142578125,-70.49560546875,-132.6904296875
6.899784326553345,1582294445,0,-0.2072470784187317,0.17836707830429077,1.6940127611160278,-197.8759765625,60.48583984375,94.78759765625
6.899796009063721,1582294464,0,-0.6584189534187317,0.48476356267929077,1.4318057298660278,-208.6181640625,52.67333984375,59.99755859375
6.914682149887085,1582294450,1,-1.8931982517242432,1.361228346824646,0.38831695914268494,-77.20947265625,-67.87109375,-134.21630859375
6.914712190628052,1582294469,1,-1.1917822360992432,0.914206862449646,0.7237661480903625,-111.51123046875,-39.85595703125,-53.955078125
6.935652256011963,1582294483,0,-0.2045615315437317,0.04799599200487137,1.9398623704910278,-236.9384765625,5.2490234375,67.7490234375
6.9450461864471436,1582294488,1,-1.1097509860992432,0.853904128074646,1.0450552701950073,-59.6923828125,-41.56494140625,-63.1103515625
6.959841012954712,1582294502,0,-0.3266318440437317,0.15492957830429077,2.0455751419067383,-229.55322265625,78.2470703125,62.07275390625
6.959913015365601,1582294521,0,-0.3918173909187317,0.12709754705429077,1.9777041673660278,-204.16259765625,116.2109375,87.40234375
6.9854700565338135,1582294524,1,-1.2625830173492432,0.846091628074646,0.9202993512153625,-66.2841796875,-96.74072265625,-77.2705078125
6.98936915397644,1582294540,0,-0.4814170002937317,0.22866004705429077,1.8656436204910278,-186.46240234375,128.35693359375,96.3134765625
7.003178119659424,1582294543,1,-1.2574560642242432,0.848044753074646,0.9173696637153625,-46.20361328125,-86.9140625,-64.75830078125
7.003212213516235,1582294562,1,-1.2511084079742432,0.810935378074646,0.8448598980903625,-30.57861328125,-81.97021484375,-47.607421875
7.018315076828003,1582294559,0,-0.5290244221687317,0.28383582830429077,1.8697940111160278,-182.2509765625,135.43701171875,88.07373046875
7.01832914352417,1582294578,0,-0.6254599690437317,0.10829872637987137,1.7325869798660278,-175.23193359375,138.00048828125,69.091796875
7.03708815574646,1582294581,1,-1.1685888767242432,0.646628737449646,0.7913931012153625,-15.31982421875,-86.669921875,-22.88818359375
7.0480780601501465,1582294614,0,-0.7409384846687317,-0.07236533612012863,1.4974795579910278,-127.01416015625,120.91064453125,40.46630859375
7.063272953033447,1582294600,1,-1.1886084079742432,0.510886549949646,0.8341177105903625,-10.31494140625,-89.05029296875,-20.6298828125
7.063348054885864,1582294619,1,-1.1434423923492432,0.509909987449646,0.9227407574653625,3.0517578125,-70.80078125,-26.123046875
7.086028099060059,1582294633,0,-0.6039755940437317,-0.12485557049512863,1.4051944017410278,-129.39453125,138.5498046875,26.55029296875
7.093031167984009,1582294638,1,-1.0260107517242432,0.556052565574646,0.9913442730903625,43.02978515625,-45.34912109375,-17.51708984375
7.108155250549316,1582294652,0,-0.6025107502937317,-0.27109581232070923,1.3041201829910278,-122.55859375,165.10009765625,-7.6904296875
7.108217239379883,1582294671,0,-0.5976279377937317,-0.46030479669570923,1.3348819017410278,-85.02197265625,178.28369140625,-27.40478515625
7.132827281951904,1582294657,1,-1.1090185642242432,0.288474440574646,0.5802114605903625,26.0009765625,-24.10888671875,22.705078125
7.13283109664917,1582294676,1,-0.8199560642242432,0.332908034324646,0.8065298199653625,49.1943359375,-73.73046875,39.1845703125
7.137977123260498,1582294690,0,-0.5480673909187317,-0.44443565607070923,1.2443057298660278,-35.46142578125,180.84716796875,-26.18408203125
7.1533613204956055,1582294695,1,-0.7259619235992432,0.1895975023508072,0.6612661480903625,75.0732421875,-88.37890625,33.38623046875
7.153393268585205,1582294714,1,-0.6058447360992432,0.265769362449646,0.7022817730903625,80.50537109375,-82.763671875,52.001953125
7.168221950531006,1582294709,0,-0.5768759846687317,-0.39853721857070923,1.2635928392410278,6.40869140625,192.138671875,-10.19287109375
7.16827917098999,1582294728,0,-0.3268759846687317,-0.5081563591957092,0.8226748704910278,13.48876953125,179.6875,-4.150390625
7.189126253128052,1582294733,1,-0.3990575969219208,0.1710428148508072,0.6051138043403625,60.546875,-79.89501953125,92.1630859375
7.198288202285767,1582294747,0,-0.4233115315437317,-0.45493370294570923,0.9779483079910278,60.48583984375,156.6162109375,12.6953125
7.213747978210449,1582294752,1,-0.14661619067192078,0.07338656485080719,0.5387075543403625,73.54736328125,-60.791015625,96.25244140625
7.2361133098602295,1582294766,0,-0.4308798909187317,-0.5547872185707092,1.1713076829910278,119.384765625,166.1376953125,29.11376953125
7.2361180782318115,1582294785,0,-0.09591894596815109,-0.19467979669570923,0.6171084642410278,125.244140625,127.86865234375,1.15966796875
7.257791996002197,1582294804,0,-0.3359091877937317,-0.22788292169570923,0.7865420579910278,160.7666015625,110.29052734375,25.7568359375
7.259413003921509,1582294823,0,-0.2592490315437317,-0.07187705487012863,0.6962100267410278,203.06396484375,114.2578125,56.94580078125
7.282474994659424,1582294788,1,-0.052133768796920776,0.1861795336008072,0.34559234976768494,94.66552734375,-20.751953125,80.38330078125
7.2824811935424805,1582294807,1,0.028920918703079224,0.2406228929758072,0.30189117789268494,109.68017578125,6.591796875,62.01171875
7.282485008239746,1582294826,1,0.053823262453079224,0.2108377367258072,0.27210602164268494,100.76904296875,33.50830078125,49.8046875
7.28963303565979,1582294842,0,-0.2250693440437317,0.010398335754871368,0.6105166673660278,194.88525390625,119.384765625,76.59912109375
7.3067522048950195,1582294845,1,0.19176271557807922,0.504783034324646,0.18812163174152374,80.56640625,38.87939453125,58.65478515625
7.306758165359497,1582294864,1,-0.22767087817192078,0.427146315574646,0.33729156851768494,18.310546875,-1.40380859375,103.3935546875
7.3198041915893555,1582294878,0,-0.1288779377937317,0.12807410955429077,0.30851471424102783,167.54150390625,65.5517578125,163.9404296875
7.337929964065552,1582294883,1,-0.011606425046920776,0.359031081199646,0.22767241299152374,16.357421875,-2.3193359375,103.271484375
7.34963321685791,1582294897,0,-0.026583008468151093,0.25087684392929077,0.34806549549102783,124.93896484375,85.02197265625,146.17919921875
7.364673137664795,1582294902,1,0.056508809328079224,0.344626784324646,0.28333649039268494,15.19775390625,29.4189453125,105.1025390625
7.3647541999816895,1582294921,1,0.20592287182807922,0.278952956199646,0.36121734976768494,22.03369140625,26.85546875,78.369140625
7.388430118560791,1582294916,0,0.10159081965684891,0.33510535955429077,-0.04207123816013336,46.142578125,106.01806640625,115.3564453125
7.388435363769531,1582294935,0,0.1399208903312683,0.41567176580429077,0.23087798058986664,-32.89794921875,88.07373046875,96.74072265625
7.3946921825408936,1582294940,1,0.2777002155780792,0.306052565574646,0.22034819424152374,11.41357421875,93.6279296875,33.87451171875
7.411314964294434,1582294954,0,0.12161035090684891,0.33119910955429077,0.36393463611602783,-101.01318359375,72.20458984375,89.66064453125
7.41132116317749,1582294973,0,0.1858193278312683,0.32997840642929077,0.5570498704910278,-123.6572265625,49.560546875,94.54345703125
7.433876991271973,1582294959,1,0.22545412182807922,0.358298659324646,0.47376617789268494,0.1220703125,128.84521484375,24.84130859375
7.433883190155029,1582294978,1,0.23814943432807922,0.361228346824646,0.47767242789268494,-12.26806640625,127.3193359375,16.90673828125
7.43983006477356,1582294992,0,0.12258691340684891,0.27529090642929077,0.7347842454910278,-146.97265625,33.935546875,111.51123046875
7.454992294311523,1582294997,1,0.19957521557807922,0.353415846824646,0.5606802105903625,-40.0390625,119.68994140625,-9.8876953125
7.455037355422974,1582295016,1,0.12608888745307922,0.445212721824646,0.7091177105903625,-67.93212890625,69.03076171875,-43.76220703125
7.469821929931641,1582295011,0,0.11892480403184891,0.17055457830429077,0.8216983079910278,-162.2314453125,27.40478515625,120.1171875
7.469828128814697,1582295030,0,0.1733681559562683,0.17031043767929077,0.9701358079910278,-189.0869140625,27.2216796875,127.5634765625
7.497573137283325,1582295049,0,0.1328408122062683,0.04018349200487137,1.0655947923660278,-217.46826171875,31.3720703125,112.4267578125
7.5149030685424805,1582295052,1,-0.045541971921920776,0.486960768699646,0.7564809918403625,-124.1455078125,-40.95458984375,-64.14794921875
7.514933109283447,1582295071,1,-0.043100565671920776,0.395163893699646,0.7432973980903625,-155.70068359375,-69.03076171875,-66.40625
7.537289142608643,1582295068,0,0.07864160090684891,0.05532021075487137,1.2086611986160278,-238.46435546875,34.48486328125,95.52001953125
7.537300109863281,1582295087,0,0.09817285090684891,0.07167763262987137,1.3632022142410278,-259.1552734375,46.08154296875,82.3974609375
7.544820070266724,1582295090,1,-0.17908689379692078,0.413962721824646,0.7435415387153625,-138.7939453125,-47.4853515625,-76.23291015625
7.559816360473633,1582295106,0,-0.019991211593151093,0.09120888262987137,1.3558779954910278,-264.16015625,56.94580078125,81.35986328125
7.583856105804443,1582295109,1,-0.18958494067192078,0.472800612449646,0.9205434918403625,-109.0087890625,-27.7099609375,-94.66552734375
7.5838611125946045,1582295128,1,-0.2616064250469208,0.464499831199646,1.0245474576950073,-114.3798828125,-33.38623046875,-107.0556640625
7.589565992355347,1582295142,0,-0.03488378971815109,0.07241005450487137,1.4120303392410278,-250.0,56.396484375,69.15283203125
7.60314416885376,1582295147,1,-0.3836767375469208,0.517478346824646,1.0794790983200073,-117.49267578125,-49.62158203125,-117.5537109375
7.603196144104004,1582295166,1,-0.4871923625469208,0.576560378074646,1.1380728483200073,-109.92431640625,-45.166015625,-114.31884765625
7.6198601722717285,1582295161,0,-0.07809668034315109,0.08144325762987137,1.4562197923660278,-240.966796875,64.453125,63.65966796875
7.619890213012695,1582295180,0,-0.1564658284187317,0.05068153887987137,1.5538760423660278,-240.17333984375,66.5283203125,49.49951171875
7.638774156570435,1582295185,1,-0.5321142673492432,0.537009596824646,1.2132681608200073,-94.970703125,-43.88427734375,-113.95263671875
7.6498072147369385,1582295199,0,-0.2729209065437317,0.03896278887987137,1.5912295579910278,-227.35595703125,76.23291015625,50.47607421875
7.66477108001709,1582295204,1,-0.6478369235992432,0.565085768699646,1.2017935514450073,-74.40185546875,-32.5927734375,-107.60498046875
7.6648032665252686,1582295223,1,-0.7664892673492432,0.586814284324646,1.2066763639450073,-57.18994140625,-19.47021484375,-110.107421875
7.687121152877808,1582295218,0,-0.3276084065437317,-0.005959086120128632,1.6310244798660278,-217.83447265625,74.76806640625,52.24609375
7.687126159667969,1582295237,0,-0.4357627034187317,-0.006203226745128632,1.7255069017410278,-207.03125,67.7490234375,57.2509765625
7.6946752071380615,1582295242,1,-0.9190771579742432,0.598044753074646,1.2086294889450073,-39.73388671875,-17.88330078125,-107.421875
7.708182096481323,1582295256,0,-0.4670127034187317,-0.015236429870128632,1.7684756517410278,-199.462890625,70.068359375,46.93603515625
7.70824408531189,1582295275,0,-0.6098349690437317,0.05849403887987137,1.8412295579910278,-177.734375,77.45361328125,30.2734375
7.734246253967285,1582295261,1,-1.0562841892242432,0.685202956199646,1.1136587858200073,-29.78515625,-21.97265625,-92.28515625
7.734251022338867,1582295280,1,-1.1910498142242432,0.675925612449646,1.1109732389450073,-26.4892578125,-28.50341796875,-68.29833984375
7.739561080932617,1582295294,0,-0.8056357502937317,0.21767371892929077,1.8763858079910278,-149.658203125,85.0830078125,30.1513671875
7.754807233810425,1582295316,1,-1.4202978610992432,0.637351393699646,1.0865591764450073,-51.81884765625,-67.07763671875,-20.32470703125
7.769858121871948,1582295313,0,-0.8339560627937317,0.11830849200487137,1.9818545579910278,-93.44482421875,81.72607421875,28.25927734375
7.770855188369751,1582295332,0,-0.8573935627937317,0.08266396075487137,1.7521182298660278,-98.32763671875,81.298828125,2.74658203125
7.788386106491089,1582295335,1,-1.2752783298492432,0.536277174949646,1.2545279264450073,6.65283203125,-93.32275390625,-3.90625
7.800137996673584,1582295351,0,-0.9528525471687317,0.02895302325487137,1.7362490892410278,-116.39404296875,104.1259765625,61.95068359375
7.813146114349365,1582295354,1,-1.4088232517242432,0.738425612449646,0.9613149762153625,65.36865234375,-50.47607421875,-19.04296875
7.81317925453186,1582295373,1,-1.2296240329742432,0.583152174949646,0.9151723980903625,31.494140625,-50.59814453125,26.7333984375
7.8350913524627686,1582295370,0,-0.7233603596687317,-0.14267784357070923,1.3365908861160278,-118.46923828125,114.74609375,67.0166015625
7.845170974731445,1582295392,1,-1.1449072360992432,0.596579909324646,0.9127309918403625,23.0712890625,-50.9033203125,50.6591796875
7.858205318450928,1582295406,0,-0.8642295002937317,-0.18784385919570923,1.3964053392410278,-101.9287109375,154.60205078125,-19.95849609375
7.858236312866211,1582295425,0,-0.7973349690437317,-0.29135948419570923,1.2255069017410278,-79.2236328125,166.50390625,-18.6767578125
7.883758068084717,1582295411,1,-0.9998877048492432,0.476706862449646,0.8536489605903625,52.67333984375,-63.8427734375,69.03076171875
7.883764028549194,1582295430,1,-0.7122900485992432,0.1432107836008072,0.47718414664268494,74.3408203125,-48.9501953125,66.95556640625
7.889758110046387,1582295444,0,-0.7018759846687317,-0.32163292169570923,1.0731631517410278,-74.70703125,221.00830078125,-19.95849609375
7.902996063232422,1582295449,1,-0.6881201267242432,0.313132643699646,0.7166860699653625,50.47607421875,-58.04443359375,70.12939453125
7.918173313140869,1582295463,0,-0.5361045002937317,-0.26670128107070923,0.9210635423660278,-54.931640625,205.99365234375,-17.9443359375
7.918255090713501,1582295482,0,-0.5050986409187317,-0.41196495294570923,0.8885928392410278,-0.3662109375,197.3876953125,-2.8076171875
7.9369142055511475,1582295468,1,-0.4405615031719208,0.270652174949646,0.7286489605903625,58.28857421875,-73.73046875,80.50537109375
7.936919212341309,1582295487,1,-0.2996923625469208,0.1788553148508072,0.6077993512153625,66.7724609375,-56.884765625,77.7587890625
7.948015213012695,1582295501,0,-0.4328330159187317,-0.42734581232070923,0.7291690111160278,34.0576171875,181.396484375,6.40869140625
7.963275194168091,1582295506,1,-0.22742673754692078,0.1966775804758072,0.5848501324653625,66.71142578125,-48.76708984375,74.89013671875
7.963356256484985,1582295525,1,-0.11512205004692078,0.2110818773508072,0.5203970074653625,80.87158203125,-40.283203125,75.74462890625
7.986017227172852,1582295520,0,-0.3395712971687317,-0.30600792169570923,0.6874209642410278,71.6552734375,169.677734375,20.8740234375
7.98699426651001,1582295539,0,-0.3617880940437317,-0.26035362482070923,0.6566592454910278,82.275390625,147.27783203125,20.99609375
7.99316930770874,1582295544,1,0.012075215578079224,0.1336892992258072,0.33167633414268494,100.52490234375,-16.357421875,55.0537109375
8.032348155975342,1582295580,1,-0.052377909421920776,0.253318190574646,0.34681305289268494,83.740234375,6.16455078125,40.95458984375
8.039168119430542,1582295558,0,-0.3090537190437317,-0.22348839044570923,0.6158877611160278,104.00390625,128.2958984375,49.6826171875
8.039198160171509,1582295577,0,-0.2907431721687317,-0.10581260174512863,0.6149111986160278,121.4599609375,98.20556640625,70.80078125
8.03926420211792,1582295596,0,-0.2387412190437317,-0.02549033612012863,0.6427432298660278,126.3427734375,87.158203125,81.298828125
8.054715156555176,1582295599,1,-0.059457987546920776,0.290671706199646,0.38294586539268494,76.11083984375,-3.90625,33.3251953125
8.070258378982544,1582295615,0,-0.2502158284187317,0.03896278887987137,0.6739932298660278,118.10302734375,85.87646484375,88.07373046875
8.070263147354126,1582295634,0,-0.1476767659187317,0.08461708575487137,0.7726260423660278,124.45068359375,78.0029296875,107.84912109375
8.089399099349976,1582295618,1,0.3228662312030792,0.371482253074646,0.37781891226768494,62.56103515625,-10.25390625,54.87060546875
8.089405298233032,1582295637,1,-0.16297361254692078,0.386863112449646,0.29383453726768494,33.75244140625,-3.173828125,23.62060546875
8.11350417137146,1582295656,1,-0.010874003171920776,0.393454909324646,0.30897125601768494,18.73779296875,-11.8408203125,90.51513671875
8.11473822593689,1582295675,1,0.19029787182807922,0.333884596824646,0.33655914664268494,13.97705078125,6.04248046875,67.32177734375
8.13449501991272,1582295670,0,-0.2258017659187317,0.19863075017929077,0.6608096361160278,94.05517578125,77.5146484375,131.53076171875
8.134499073028564,1582295689,0,-0.2226279377937317,0.26747840642929077,0.45255768299102783,13.5498046875,94.66552734375,124.0234375
8.145153045654297,1582295694,1,0.3165185749530792,0.294577956199646,0.5694692730903625,12.3291015625,1.52587890625,55.96923828125
8.16014814376831,1582295708,0,-0.08200293034315109,0.22914832830429077,0.37199127674102783,-87.40234375,92.7734375,151.55029296875
8.18403935432434,1582295713,1,0.16905763745307922,0.310691237449646,0.5250356793403625,2.38037109375,-8.11767578125,5.37109375
8.184044122695923,1582295732,1,0.16954591870307922,0.282859206199646,0.43519195914268494,20.8740234375,45.10498046875,12.451171875
8.18992018699646,1582295727,0,0.024686522781848907,0.35732215642929077,0.5279971361160278,-140.5029296875,69.580078125,142.02880859375
8.189924240112305,1582295746,0,-0.08224707096815109,0.19716590642929077,0.7789736986160278,-160.5224609375,38.87939453125,140.5029296875
8.203006982803345,1582295751,1,0.15465334057807922,0.469870924949646,0.5411489605903625,10.7421875,80.810546875,1.15966796875
8.218257188796997,1582295765,0,-0.08420019596815109,0.15981239080429077,0.9801455736160278,-127.62451171875,18.4326171875,163.4521484375
8.218337059020996,1582295784,0,-0.05758886784315109,0.20253700017929077,1.0350772142410278,-103.69873046875,11.71875,169.5556640625
8.23730993270874,1582295770,1,0.054311543703079224,0.557517409324646,0.5907095074653625,-11.04736328125,49.8046875,-4.45556640625
8.23731517791748,1582295789,1,0.035024434328079224,0.550681471824646,0.6278188824653625,-38.818359375,19.8974609375,-13.7939453125
8.248110055923462,1582295803,0,0.012967772781848907,0.21205848455429077,1.0995303392410278,-96.86279296875,16.78466796875,146.42333984375
8.262997150421143,1582295808,1,0.06529787182807922,0.552878737449646,0.6966665387153625,-52.42919921875,3.173828125,-25.69580078125
8.286502122879028,1582295822,0,-0.05343847721815109,0.22890418767929077,1.1036807298660278,-117.24853515625,25.7568359375,133.23974609375
8.28650712966919,1582295841,0,-0.08835058659315109,0.24477332830429077,1.0900088548660278,-147.64404296875,24.35302734375,119.81201171875
8.293182134628296,1582295844,1,-0.038217753171920776,0.573630690574646,0.8045766949653625,-80.13916015625,-7.99560546875,-46.9970703125
8.30792236328125,1582295860,0,-0.11447363346815109,0.24013465642929077,1.0792666673660278,-159.423828125,16.78466796875,118.10302734375
8.333059072494507,1582295863,1,-0.06751462817192078,0.567283034324646,0.8492544293403625,-64.3310546875,4.2724609375,-65.185546875
8.333064317703247,1582295882,1,-0.2552587687969208,0.654929518699646,0.9288442730903625,-41.19873046875,-4.150390625,-70.49560546875
8.33810830116272,1582295879,0,-0.06906347721815109,0.28261512517929077,1.0983096361160278,-172.79052734375,12.51220703125,120.54443359375
8.338141202926636,1582295898,0,-0.03927832096815109,0.30385535955429077,1.1893740892410278,-186.70654296875,27.099609375,95.88623046875
8.353041172027588,1582295901,1,-0.13123533129692078,0.855124831199646,0.8407095074653625,-23.37646484375,-50.59814453125,-42.90771484375
8.368335247039795,1582295934,0,-0.1872275471687317,0.25795692205429077,1.3627139329910278,-181.640625,34.72900390625,72.998046875
8.388193130493164,1582295920,1,-0.3082372844219208,0.713523268699646,0.8133657574653625,-52.001953125,-36.62109375,-38.818359375
8.388198137283325,1582295939,1,-0.3336279094219208,0.704245924949646,0.8407095074653625,-74.89013671875,-41.8701171875,-34.24072265625
8.39840316772461,1582295953,0,-0.2265341877937317,0.27162879705429077,1.3375674486160278,-179.19921875,29.11376953125,73.42529296875
8.413041353225708,1582295958,1,-0.4212743937969208,0.708884596824646,0.9322622418403625,-77.45361328125,-34.1796875,-23.25439453125
8.436500072479248,1582295972,0,-0.1965048909187317,0.32778114080429077,1.3771182298660278,-180.419921875,33.26416015625,80.810546875
8.436504125595093,1582295991,0,-0.2538779377937317,0.35878700017929077,1.4095889329910278,-182.2509765625,37.59765625,67.626953125
8.447092056274414,1582295977,1,-0.4893896281719208,0.844138503074646,0.9202993512153625,-78.55224609375,-10.31494140625,0.06103515625
8.44709825515747,1582295996,1,-0.5033056735992432,0.869040846824646,0.9779165387153625,-88.43994140625,-16.11328125,-5.859375
8.459614038467407,1582296010,0,-0.2292197346687317,0.34926551580429077,1.4449893236160278,-184.38720703125,27.7099609375,51.3916015625
8.484317302703857,1582296015,1,-0.4906103312969208,0.855613112449646,1.0274771451950073,-88.68408203125,-30.57861328125,-31.494140625
8.484323263168335,1582296034,1,-0.4588720500469208,0.839743971824646,1.0594595670700073,-82.58056640625,-30.70068359375,-45.59326171875
8.489705085754395,1582296029,0,-0.3246787190437317,0.26064246892929077,1.5187197923660278,-177.55126953125,35.82763671875,49.4384765625
8.489736318588257,1582296048,0,-0.3730185627937317,0.21279090642929077,1.5338565111160278,-173.583984375,47.119140625,69.15283203125
8.504498958587646,1582296053,1,-0.5877783298492432,0.836326003074646,1.0643423795700073,-66.34521484375,-28.01513671875,-66.95556640625
8.519692182540894,1582296067,0,-0.3832724690437317,0.29091590642929077,1.5062686204910278,-166.015625,63.04931640625,65.185546875
8.53717303276062,1582296072,1,-0.5855810642242432,0.832419753074646,1.0582388639450073,-54.19921875,-21.484375,-81.0546875
8.549885988235474,1582296086,0,-0.4264853596687317,0.17714637517929077,1.6000186204910278,-164.9169921875,76.7822265625,56.45751953125
8.549954175949097,1582296105,0,-0.5177939534187317,0.24428504705429077,1.5922061204910278,-160.888671875,80.322265625,57.4951171875
8.564621210098267,1582296108,1,-0.7025244235992432,0.821921706199646,0.9176138043403625,-24.4140625,-9.1552734375,-84.5947265625
8.589385032653809,1582296124,0,-0.5898154377937317,0.16225379705429077,1.6361514329910278,-154.84619140625,84.5947265625,68.54248046875
8.589391231536865,1582296143,0,-0.5929892659187317,0.19521278142929077,1.6332217454910278,-161.1328125,104.18701171875,78.43017578125
8.594728231430054,1582296127,1,-0.8475439548492432,0.870261549949646,0.8902700543403625,-12.0849609375,0.8544921875,-85.205078125
8.609815120697021,1582296162,0,-0.6098349690437317,0.18569129705429077,1.6251651048660278,-173.15673828125,116.943359375,60.302734375
8.633369207382202,1582296146,1,-0.9530127048492432,0.880759596824646,0.8846548199653625,-4.94384765625,-2.685546875,-73.1201171875
8.633373260498047,1582296165,1,-1.0033056735992432,0.851218581199646,0.8641470074653625,3.2958984375,2.13623046875,-59.14306640625
8.63968825340271,1582296198,0,-0.6503623127937317,0.005271382629871368,1.5782901048660278,-150.93994140625,114.990234375,32.77587890625
8.654932022094727,1582296184,1,-1.0269873142242432,0.872702956199646,0.8648794293403625,-14.7705078125,-25.81787109375,-40.58837890625
8.655001163482666,1582296203,1,-0.9942724704742432,0.781394362449646,0.8363149762153625,-11.65771484375,-36.376953125,-16.05224609375
8.669793128967285,1582296217,0,-0.6244834065437317,-0.11728721112012863,1.5687686204910278,-135.43701171875,119.62890625,12.8173828125
8.689189195632935,1582296222,1,-1.0015966892242432,0.743796706199646,0.9437368512153625,-15.56396484375,-41.32080078125,-1.0986328125
8.689197063446045,1582296241,1,-0.8980810642242432,0.621482253074646,0.9459341168403625,5.4931640625,-51.025390625,18.61572265625
8.699846267700195,1582296236,0,-0.6496298909187317,-0.25840049982070923,1.5321475267410278,-104.67529296875,115.1123046875,-10.8642578125
8.699859380722046,1582296255,0,-0.5675986409187317,-0.30381065607070923,1.4789248704910278,-64.94140625,135.1318359375,-34.48486328125
8.714664936065674,1582296260,1,-0.7813818454742432,0.525046706199646,0.9854848980903625,35.58349609375,-54.01611328125,34.3017578125
8.734929323196411,1582296274,0,-0.4508994221687317,-0.32041221857070923,1.2819033861160278,-41.015625,174.6826171875,-48.9501953125
8.734934091567993,1582296293,0,-0.4433310627937317,-0.38315635919570923,1.1232119798660278,-33.75244140625,190.4296875,-52.91748046875
8.745979309082031,1582296279,1,-0.6375830173492432,0.349753737449646,0.8087270855903625,27.83203125,-44.12841796875,36.07177734375
8.745984077453613,1582296298,1,-0.4644872844219208,0.333640456199646,0.9068716168403625,43.02978515625,-58.4716796875,43.27392578125
8.760064125061035,1582296312,0,-0.3893759846687317,-0.31675010919570923,0.9762393236160278,-3.84521484375,187.3779296875,-48.2177734375
8.783643245697021,1582296317,1,-0.3414404094219208,0.286277174949646,0.8018911480903625,89.7216796875,-47.119140625,46.7529296875
8.783648014068604,1582296336,1,-0.24598142504692078,0.2188943773508072,0.6949575543403625,103.33251953125,-18.12744140625,33.0810546875
8.78963828086853,1582296331,0,-0.3822959065437317,-0.37607628107070923,1.0453311204910278,22.03369140625,178.89404296875,-35.7666015625
8.789725303649902,1582296350,0,-0.3249228596687317,-0.30356651544570923,0.9877139329910278,76.171875,168.15185546875,11.23046875
8.817477226257324,1582296369,0,-0.3634970784187317,-0.26303917169570923,0.9928408861160278,86.669921875,157.77587890625,20.5078125
8.837914228439331,1582296372,1,-0.15711423754692078,0.273093581199646,0.5013540387153625,105.16357421875,-12.39013671875,57.2509765625
8.837918996810913,1582296391,1,-0.16492673754692078,0.374411940574646,0.42762359976768494,84.04541015625,-13.3056640625,67.93212890625
8.849914312362671,1582296388,0,-0.3620322346687317,-0.18882042169570923,0.8717471361160278,117.5537109375,148.49853515625,57.55615234375
8.849945068359375,1582296407,0,-0.3942587971687317,-0.11020713299512863,0.7838565111160278,149.10888671875,140.68603515625,82.94677734375
8.864670038223267,1582296410,1,-0.07239744067192078,0.359763503074646,0.35950836539268494,76.35498046875,-2.9296875,80.38330078125
8.887861013412476,1582296426,0,-0.3852255940437317,-0.13901573419570923,0.5831729173660278,144.10400390625,143.98193359375,106.3232421875
8.894841194152832,1582296429,1,-0.07435056567192078,0.388083815574646,0.39710602164268494,69.27490234375,3.41796875,69.39697265625
8.894923210144043,1582296448,1,0.13292482495307922,0.261618971824646,0.35657867789268494,75.50048828125,24.35302734375,77.2705078125
8.90959119796753,1582296462,0,-0.030489258468151093,0.07363075762987137,0.46549713611602783,92.4072265625,147.0947265625,135.986328125
8.934094190597534,1582296467,1,-0.19764158129692078,0.353415846824646,0.10218413174152374,83.251953125,17.27294921875,5.126953125
8.934099197387695,1582296486,1,-0.061411112546920776,0.352195143699646,0.20350249111652374,82.275390625,77.69775390625,22.03369140625
8.939197301864624,1582296481,0,-0.08737402409315109,0.43837684392929077,-0.021075144410133362,80.99365234375,78.18603515625,85.51025390625
8.939202070236206,1582296500,0,-0.1930869221687317,0.29164832830429077,0.38737213611602783,64.14794921875,61.8896484375,84.3505859375
8.954736232757568,1582296505,1,-0.041635721921920776,0.328513503074646,0.006481010466814041,59.87548828125,95.0927734375,46.32568359375
8.969813108444214,1582296519,0,-0.1818564534187317,0.26503700017929077,0.37711822986602783,13.12255859375,81.72607421875,120.17822265625
8.98975419998169,1582296524,1,0.045278340578079224,0.2464822679758072,0.10755522549152374,21.3623046875,102.60009765625,41.015625
8.989758968353271,1582296543,1,0.12364748120307922,0.2420877367258072,0.16810210049152374,-0.732421875,98.32763671875,32.04345703125
8.99971318244934,1582296538,0,-0.03268652409315109,0.28700965642929077,0.44279205799102783,-44.73876953125,78.91845703125,146.240234375
8.999740362167358,1582296557,0,-0.03903418034315109,0.23305457830429077,0.5270205736160278,-127.44140625,67.9931640625,158.0810546875
9.01464033126831,1582296562,1,0.14342287182807922,0.259665846824646,0.35389313101768494,-33.8134765625,81.35986328125,19.1650390625
9.038393259048462,1582296576,0,0.020536132156848907,0.15712684392929077,0.7091494798660278,-182.4951171875,51.1474609375,152.83203125
9.038400173187256,1582296595,0,0.025174804031848907,0.03627724200487137,0.8907901048660278,-189.5751953125,48.095703125,136.962890625
9.044909238815308,1582296581,1,0.21227052807807922,0.297751784324646,0.49793609976768494,-60.48583984375,47.18017578125,8.97216796875
