sync_time,timestamp_ms,device_id,ax,ay,az,gx,gy,gz
0.015055179595947266,-1266455563,0,0.2525511682033539,0.058773476630449295,1.0880720615386963,0.67138671875,15.7470703125,9.58251953125
0.01677227020263672,-1266455544,0,0.2610960900783539,0.065121129155159,1.1290876865386963,0.244140625,17.15087890625,10.986328125
0.03374910354614258,-1266455563,1,-0.0740925669670105,-0.2197478711605072,0.9691181182861328,1.28173828125,10.7421875,13.916015625
0.03375697135925293,-1266455544,1,-0.059199992567300797,-0.2209685742855072,0.9808368682861328,-1.52587890625,8.72802734375,16.17431640625
0.04509902000427246,-1266455525,0,0.3050414025783539,0.066097691655159,1.1303083896636963,-2.38037109375,15.380859375,12.14599609375
0.052262306213378906,-1266455525,1,-0.037959758192300797,-0.2197478711605072,1.0306415557861328,-1.52587890625,7.01904296875,16.66259765625
0.08489799499511719,-1266455506,0,0.3277464807033539,0.080257847905159,1.1522810459136963,-3.23486328125,19.6533203125,14.404296875
0.08490490913391113,-1266455487,0,0.3409300744533539,0.097835972905159,1.1766951084136963,-5.06591796875,20.99609375,18.4326171875
0.08881902694702148,-1266455506,1,-0.033076945692300797,-0.2182830274105072,1.0406513214111328,-6.65283203125,10.31494140625,16.357421875
0.08882617950439453,-1266455487,1,-0.037227336317300797,-0.1955779492855072,1.0872821807861328,-8.85009765625,12.6953125,20.01953125
0.10498309135437012,-1266455468,0,0.3253050744533539,0.125668004155159,1.1950056552886963,-6.53076171875,22.27783203125,19.287109375
0.1128702163696289,-1266455468,1,-0.060176555067300797,-0.1799529492855072,1.1009540557861328,-12.6953125,14.5263671875,21.05712890625
0.11298727989196777,-1266455449,1,-0.1002156138420105,-0.1982634961605072,1.0789813995361328,-22.39990234375,15.869140625,17.822265625
0.13570618629455566,-1266455449,0,0.3069945275783539,0.115169957280159,1.1742537021636963,-9.33837890625,24.5361328125,20.3857421875
0.13571405410766602,-1266455430,0,0.2833128869533539,0.134945347905159,1.1581404209136963,-12.8173828125,29.541015625,23.5595703125
0.14257311820983887,-1266455430,1,-0.0989949107170105,-0.2158416211605072,1.0137958526611328,-25.32958984375,16.90673828125,24.59716796875
0.1649479866027832,-1266455394,0,0.2115355283021927,0.099300816655159,1.1034529209136963,-9.21630859375,32.71484375,35.58349609375
0.18305206298828125,-1266455394,1,-0.1082722544670105,-0.2063201367855072,0.9591083526611328,-24.90234375,15.380859375,31.18896484375
0.1947340965270996,-1266455375,0,0.2068968564271927,0.080501988530159,1.1312849521636963,-8.1787109375,30.70068359375,35.46142578125
0.20256686210632324,-1266455375,1,-0.1270710825920105,-0.2197478711605072,0.9896259307861328,-22.216796875,14.22119140625,31.3720703125
0.23433613777160645,-1266455356,0,0.2105589658021927,0.033626992255449295,1.1339704990386963,-9.521484375,32.8369140625,30.09033203125
0.2343430519104004,-1266455337,0,0.1807738095521927,-0.046939413994550705,1.1610701084136963,-7.26318359375,36.68212890625,27.52685546875
0.23762726783752441,-1266455356,1,-0.1558796763420105,-0.2717498242855072,1.0169696807861328,-22.3388671875,21.05712890625,26.67236328125
0.23767518997192383,-1266455337,1,-0.1412312388420105,-0.4175017774105072,0.9940204620361328,-28.86962890625,15.7470703125,22.94921875
0.25504422187805176,-1266455318,0,0.2296019345521927,-0.091861292719841,1.2062361240386963,-6.89697265625,46.9970703125,35.15625
0.26262712478637695,-1266455318,1,-0.0755574107170105,-0.5158904194831848,0.9842548370361328,-38.51318359375,16.54052734375,36.1328125
0.2627110481262207,-1266455299,1,-0.1014363169670105,-0.5725310444831848,0.9659442901611328,-32.958984375,7.62939453125,65.85693359375
0.2886040210723877,-1266455299,0,0.1487913876771927,-0.145328089594841,1.2184431552886963,2.685546875,36.92626953125,63.3544921875
0.28861212730407715,-1266455280,0,0.1592894345521927,-0.180240198969841,1.1984236240386963,21.17919921875,32.53173828125,81.72607421875
0.29214906692504883,-1266455280,1,-0.0860554575920105,-0.5381072163581848,0.9874286651611328,-22.15576171875,4.150390625,84.9609375
0.31495094299316406,-1266455261,0,0.2139769345521927,-0.174624964594841,1.2125837802886963,31.6162109375,40.71044921875,88.134765625
0.3150651454925537,-1266455242,0,0.1502562314271927,-0.139712855219841,1.1754744052886963,34.85107421875,49.37744140625,101.1962890625
0.33600687980651855,-1266455261,1,-0.0799519419670105,-0.5757048726081848,0.9879169464111328,-15.380859375,12.87841796875,99.18212890625
0.3360152244567871,-1266455242,1,-0.1158406138420105,-0.5710662007331848,0.9249286651611328,-17.4560546875,10.55908203125,119.07958984375
0.34491801261901855,-1266455223,0,0.2108031064271927,-0.051578085869550705,1.1513044834136963,49.01123046875,41.93115234375,136.77978515625
0.35221409797668457,-1266455223,1,-0.0057331956923007965,-0.5425017476081848,0.8636493682861328,-14.892578125,-9.765625,152.77099609375
0.4041709899902344,-1266455204,0,0.2388792783021927,-0.020816367119550705,1.1019880771636963,56.70166015625,36.7431640625,175.35400390625
0.4078810214996338,-1266455185,0,0.2354613095521927,0.057796914130449295,1.0697615146636963,70.3125,27.89306640625,192.626953125
0.40789008140563965,-1266455166,0,0.2169066220521927,0.103207066655159,1.0768415927886963,76.0498046875,52.06298828125,169.49462890625
0.4129452705383301,-1266455204,1,0.0011027418076992035,-0.3628142774105072,0.8599872589111328,2.74658203125,-19.22607421875,191.83349609375
0.41312098503112793,-1266455185,1,-0.0887410044670105,-0.2021697461605072,1.0064716339111328,17.15087890625,-16.4794921875,202.63671875
0.41320204734802246,-1266455166,1,-0.1549031138420105,-0.1828826367855072,1.0115985870361328,14.892578125,9.521484375,183.16650390625
0.4373171329498291,-1266455130,0,0.07628162205219269,0.029964882880449295,1.0829451084136963,54.99267578125,72.75390625,154.052734375
0.4421110153198242,-1266455130,1,-0.1458699107170105,-0.4594939649105072,0.8463153839111328,-18.73779296875,5.7373046875,168.76220703125
0.4649159908294678,-1266455111,0,0.11583240330219269,0.022152382880449295,1.0741560459136963,55.60302734375,69.4580078125,181.57958984375
0.4650280475616455,-1266455092,0,0.08336170017719269,0.021908242255449295,1.0326521396636963,57.373046875,92.8955078125,191.46728515625
0.48274898529052734,-1266455111,1,-0.1260945200920105,-0.4060271680355072,0.9017353057861328,-25.93994140625,7.87353515625,194.64111328125
0.4827582836151123,-1266455092,1,-0.1929890513420105,-0.3254607617855072,0.8836688995361328,-28.4423828125,31.55517578125,205.74951171875
0.49495911598205566,-1266455073,0,0.034045297652482986,-0.010806601494550705,0.9706404209136963,54.38232421875,118.896484375,178.28369140625
0.5022530555725098,-1266455073,1,-0.2271687388420105,-0.3320525586605072,0.8272724151611328,-35.21728515625,43.3349609375,194.9462890625
0.5349361896514893,-1266455054,0,-0.09290783107280731,-0.040103476494550705,0.9445173740386963,55.72509765625,119.68994140625,164.4287109375
0.5349493026733398,-1266455035,0,-0.0045289210975170135,-0.027164023369550705,0.9992048740386963,60.1806640625,86.60888671875,168.51806640625
0.5380990505218506,-1266455054,1,-0.2547566294670105,-0.4040740430355072,0.7564716339111328,-55.419921875,46.5087890625,181.7626953125
0.53810715675354,-1266455035,1,-0.010127726942300797,-0.6125701069831848,0.6185321807861328,-109.19189453125,24.5361328125,189.0869140625
0.554955005645752,-1266455016,0,0.020373422652482986,0.159115269780159,1.1940290927886963,18.6767578125,113.1591796875,192.81005859375
0.5622961521148682,-1266455016,1,-0.1485554575920105,-0.4734099805355072,0.7137470245361328,-79.89501953125,16.4794921875,205.87158203125
0.5881452560424805,-1266454997,0,-0.055066030472517014,0.056332070380449295,1.1205427646636963,0.48828125,95.76416015625,215.087890625
0.5885601043701172,-1266454978,0,-0.029675405472517014,0.079769566655159,1.2055037021636963,9.21630859375,51.513671875,216.73583984375
0.5926721096038818,-1266454997,1,-0.1927449107170105,-0.3318084180355072,0.7596454620361328,-72.32666015625,-15.68603515625,206.84814453125
0.5929081439971924,-1266454978,1,-0.2049519419670105,-0.2849334180355072,0.8629169464111328,-55.419921875,-46.9970703125,193.42041015625
0.6148512363433838,-1266454959,0,0.1348753720521927,0.134457066655159,1.2096540927886963,24.7802734375,16.6015625,217.7734375
0.6356070041656494,-1266454959,1,-0.1199910044670105,-0.3049529492855072,0.9718036651611328,-34.11865234375,-76.11083984375,191.71142578125
0.6356151103973389,-1266454940,1,-0.020381633192300797,-0.2788299024105072,1.0216083526611328,-22.15576171875,-97.71728515625,207.763671875
0.6450800895690918,-1266454940,0,0.2276488095521927,0.198666051030159,1.2186872959136963,40.1611328125,-2.8076171875,227.72216796875
0.6451830863952637,-1266454921,0,0.3380003869533539,0.5175136923789978,1.1290876865386963,44.00634765625,-3.11279296875,228.33251953125
0.6521670818328857,-1266454921,1,-0.029414836317300797,-0.054464664310216904,1.0863056182861328,-9.27734375,-99.4873046875,212.7685546875
0.6839780807495117,-1266454902,0,0.4112425744533539,0.5306972861289978,1.2916853427886963,39.61181640625,-25.93994140625,238.6474609375
0.6871869564056396,-1266454902,1,-0.011592570692300797,0.1359650194644928,1.2203388214111328,-11.474609375,-118.95751953125,204.77294921875
0.7051482200622559,-1266454866,0,0.4222289025783539,0.9535488486289978,0.8812849521636963,53.89404296875,-37.29248046875,169.00634765625
0.7125539779663086,-1266454866,1,-0.9815632700920105,0.9448029398918152,1.3304462432861328,-1.0986328125,5.18798828125,139.34326171875
0.7368471622467041,-1266454847,0,0.5972777009010315,0.5626797080039978,1.0187361240386963,45.34912109375,-7.9345703125,143.6767578125
0.737321138381958,-1266454828,0,0.6609984040260315,0.6776699423789978,1.0919783115386963,9.27734375,-1.52587890625,119.32373046875
0.7422740459442139,-1266454847,1,0.2371867299079895,0.3805939257144928,1.2948017120361328,-12.6953125,-81.9091796875,124.8779296875
0.7423779964447021,-1266454828,1,-0.054561320692300797,-0.010275211185216904,1.2152118682861328,-56.33544921875,-25.57373046875,99.365234375
0.7649133205413818,-1266454809,0,0.3306761682033539,0.4125332534313202,1.2555525302886963,7.568359375,-8.544921875,156.06689453125
0.7830479145050049,-1266454809,1,-0.4415242075920105,-0.1819060742855072,0.9610614776611328,-84.53369140625,-51.69677734375,126.46484375
0.7830550670623779,-1266454790,1,-0.3504597544670105,-0.2656463086605072,1.1668720245361328,-103.3935546875,-253.0517578125,169.00634765625
0.7971489429473877,-1266454790,0,0.2745238244533539,-0.100162073969841,1.2138044834136963,22.52197265625,-22.64404296875,222.0458984375
0.7971582412719727,-1266454771,0,0.8035765290260315,0.3153652846813202,1.3097517490386963,20.93505859375,-21.05712890625,371.4599609375
0.8021891117095947,-1266454771,1,-0.0775105357170105,-0.2868865430355072,0.7247333526611328,-102.35595703125,-311.46240234375,149.4140625
0.8340790271759033,-1266454752,0,0.3597289025783539,0.3737148940563202,1.0714704990386963,7.2021484375,-4.2724609375,287.04833984375
0.8340861797332764,-1266454733,0,0.4019652307033539,0.4452480971813202,0.7643415927886963,28.13720703125,-16.11328125,154.23583984375
0.8370461463928223,-1266454752,1,0.1781046986579895,-0.1675017774105072,1.1671161651611328,-74.03564453125,-365.17333984375,153.74755859375
0.8370561599731445,-1266454733,1,0.3304484486579895,0.1569611132144928,0.9854755401611328,-56.396484375,-374.267578125,117.67578125
0.8549199104309082,-1266454714,0,0.2535277307033539,-0.049869101494550705,0.8556501865386963,64.94140625,-85.205078125,120.30029296875
0.8871471881866455,-1266454695,0,0.5882444977760315,0.3849453628063202,0.8551619052886963,91.796875,-159.48486328125,170.47119140625
0.8871541023254395,-1266454676,0,0.7584105134010315,0.5612148642539978,0.9943220615386963,77.81982421875,-115.6005859375,140.56396484375
0.8926379680633545,-1266454714,1,0.1348918080329895,-0.2707732617855072,0.6622333526611328,-101.74560546875,-407.1044921875,117.3095703125
0.892988920211792,-1266454695,1,0.3580363392829895,-0.3850310742855072,0.9720478057861328,-59.87548828125,-395.93505859375,106.0791015625
0.8929972648620605,-1266454676,1,0.2738078236579895,-0.3515838086605072,1.1092548370361328,45.59326171875,-265.31982421875,85.75439453125
0.9148333072662354,-1266454657,0,0.7747679352760315,0.4703945815563202,0.8724958896636963,23.13232421875,-5.06591796875,105.8349609375
0.9356989860534668,-1266454657,1,-0.060420695692300797,-0.3130095899105072,1.3795185089111328,61.82861328125,-79.58984375,54.74853515625
0.9357070922851562,-1266454638,1,0.2860148549079895,-0.2112029492855072,1.0946063995361328,59.63134765625,-37.7197265625,50.9033203125
0.9448812007904053,-1266454638,0,0.7093382477760315,0.3908047378063202,0.7787458896636963,7.32421875,29.35791015625,93.32275390625
0.9865860939025879,-1266454602,0,0.7542601227760315,0.5297207236289978,0.6752302646636963,-22.216796875,39.6728515625,3.72314453125
0.9865942001342773,-1266454583,0,0.5345335602760315,0.4708828628063202,0.6285994052886963,-32.16552734375,59.326171875,-54.87060546875
0.9903659820556641,-1266454602,1,0.039676960557699203,-0.2253631055355072,1.4830341339111328,123.9013671875,114.80712890625,25.45166015625
0.9904179573059082,-1266454583,1,-0.4075886607170105,0.6562287211418152,0.7969989776611328,96.13037109375,119.140625,-44.12841796875
1.0051069259643555,-1266454564,0,0.7296019196510315,0.5011562705039978,0.7550642490386963,-8.056640625,70.6787109375,-92.34619140625
1.0137369632720947,-1266454564,1,-0.1758992075920105,0.2536408007144928,0.9420185089111328,20.32470703125,59.26513671875,-8.36181640625
1.0365190505981445,-1266454545,0,0.7046995759010315,0.4867520034313202,0.9325544834136963,-20.8740234375,68.05419921875,-82.8857421875
1.0365262031555176,-1266454526,0,0.5379515290260315,0.5404629111289978,0.8900740146636963,-63.29345703125,148.37646484375,-109.86328125
1.0422389507293701,-1266454545,1,0.0804484486579895,-0.0981658399105072,0.8592548370361328,29.9072265625,69.82421875,-3.7841796875
1.0423521995544434,-1266454526,1,0.2276652455329895,-0.2385466992855072,0.8480243682861328,55.908203125,79.4677734375,-13.3056640625
1.0647900104522705,-1266454507,0,0.5218382477760315,0.4010586440563202,0.7582380771636963,-105.8349609375,199.21875,-171.38671875
1.08396315574646,-1266454507,1,0.1617472767829895,-0.2571013867855072,0.8953876495361328,68.29833984375,85.0830078125,5.9814453125
1.083970069885254,-1266454488,1,0.0990031361579895,-0.5027068257331848,0.6539325714111328,73.3642578125,65.36865234375,41.56494140625
1.095154047012329,-1266454488,0,0.2105589658021927,-0.017398398369550705,0.8139021396636963,-160.0341796875,224.853515625,-203.369140625
1.0953001976013184,-1266454469,0,0.11656482517719269,-0.3455233871936798,0.9210798740386963,-123.53515625,190.85693359375,-159.60693359375
1.1021840572357178,-1266454469,1,0.4129679799079895,-0.6616423726081848,0.6114521026611328,124.1455078125,59.26513671875,55.908203125
1.1339693069458008,-1266454450,0,-0.10804454982280731,-0.232974573969841,1.0204451084136963,-3.72314453125,127.74658203125,-98.57177734375
1.1339762210845947,-1266454431,0,-0.1505250185728073,-0.123843714594841,1.0834333896636963,66.40625,77.2705078125,-90.39306640625
1.1369919776916504,-1266454450,1,0.3577921986579895,-0.5351775288581848,0.8038349151611328,159.912109375,76.5380859375,82.58056640625
1.136998176574707,-1266454431,1,0.3289836049079895,-0.1899627149105072,0.9219989776611328,164.61181640625,62.01171875,115.6005859375
1.1548879146575928,-1266454412,0,-0.2030152529478073,-0.013003867119550705,1.1600935459136963,57.0068359375,74.3408203125,-111.4501953125
1.1620979309082031,-1266454412,1,0.4122355580329895,-0.1784881055355072,1.0045185089111328,145.69091796875,34.3017578125,124.1455078125
1.1875181198120117,-1266454393,0,-0.3143433630466461,0.150082066655159,1.1647322177886963,-2.25830078125,63.8427734375,-86.42578125
1.192413091659546,-1266454393,1,0.5042765736579895,-0.1477263867855072,0.9476337432861328,119.2626953125,20.44677734375,105.40771484375
1.2148160934448242,-1266454374,0,-0.1834840029478073,-0.196353480219841,1.1691267490386963,-19.6533203125,38.6962890625,-30.57861328125
1.2336571216583252,-1266454374,1,0.5328410267829895,-0.0905974805355072,0.8326435089111328,101.74560546875,24.5361328125,87.7685546875
1.2336640357971191,-1266454338,1,0.3504679799079895,-0.026388492435216904,0.9310321807861328,36.0107421875,39.6728515625,43.8232421875
1.2449181079864502,-1266454338,0,-0.1519898623228073,0.154964879155159,1.0018904209136963,-1.03759765625,3.662109375,1.89208984375
1.245002031326294,-1266454319,0,-0.08582775294780731,0.3773770034313202,0.9557478427886963,13.5498046875,31.55517578125,-27.34375
1.2521789073944092,-1266454319,1,0.2113078236579895,0.1039825975894928,0.9344501495361328,4.8828125,34.7900390625,59.38720703125
1.2861089706420898,-1266454300,0,0.022326547652482986,0.5900234580039978,0.9718611240386963,-22.64404296875,39.1845703125,-47.607421875
1.286116123199463,-1266454281,0,0.0015745945274829865,0.5817226767539978,1.0641462802886963,-93.81103515625,85.8154296875,-73.73046875
1.2899971008300781,-1266454300,1,0.4730265736579895,-0.1821502149105072,1.1573505401611328,-1.3427734375,93.26171875,305.23681640625
1.290004014968872,-1266454281,1,0.2916300892829895,0.1349884569644928,1.0233173370361328,-84.16748046875,-1.40380859375,175.4150390625
1.3050172328948975,-1266454262,0,-0.013073842972517014,0.4393887221813202,1.1317732334136963,-141.11328125,97.0458984375,-93.3837890625
1.312481164932251,-1266454262,1,0.4813273549079895,0.049050960689783096,0.8216571807861328,-115.3564453125,-10.07080078125,73.8525390625
1.336442232131958,-1266454243,0,-0.08167736232280731,0.3615078628063202,1.1627790927886963,-157.53173828125,113.83056640625,-90.63720703125
1.3365681171417236,-1266454224,0,-0.12293712794780731,0.3505215346813202,1.1466658115386963,-151.7333984375,118.59130859375,-74.70703125
1.3439421653747559,-1266454243,1,0.3721964955329895,0.059060726314783096,1.0172138214111328,-114.501953125,-17.88330078125,78.125
1.3440661430358887,-1266454224,1,0.3680461049079895,-0.0849822461605072,1.0233173370361328,-112.79296875,-64.8193359375,91.4306640625
1.3648011684417725,-1266454205,0,-0.042614858597517014,0.2933926284313202,1.1561872959136963,-144.287109375,99.79248046875,-83.55712890625
1.3838610649108887,-1266454205,1,0.5980265736579895,-0.3183806836605072,0.9417743682861328,-42.90771484375,-38.330078125,100.9521484375
1.3960950374603271,-1266454186,0,-0.039441030472517014,0.213070347905159,1.2572615146636963,-141.6015625,87.70751953125,-110.77880859375
1.3962550163269043,-1266454167,0,-0.029675405472517014,0.052425820380449295,1.4088728427886963,-143.61572265625,85.5712890625,-127.74658203125
1.4038500785827637,-1266454186,1,0.4886515736579895,-0.2319549024105072,1.0990009307861328,43.9453125,65.673828125,106.8115234375
1.4039440155029297,-1266454167,1,0.5333293080329895,0.0939728319644928,1.0582294464111328,48.583984375,92.71240234375,130.859375
1.4345788955688477,-1266454148,0,-0.12269298732280731,-0.001773398369550705,1.4183943271636963,-133.544921875,109.06982421875,-112.9150390625
1.4375450611114502,-1266454148,1,0.5450480580329895,0.2074982225894928,1.1204853057861328,20.20263671875,80.99365234375,165.1611328125
1.437610149383545,-1266454129,1,0.4818156361579895,0.0973908007144928,1.1109638214111328,1.46484375,113.34228515625,156.79931640625
1.4549970626831055,-1266454129,0,-0.12440197169780731,0.073910191655159,1.2760603427886963,-117.98095703125,91.6748046875,-108.0322265625
1.4550621509552002,-1266454110,0,-0.1505250185728073,-0.022769492119550705,1.2504255771636963,-96.3134765625,54.443359375,-136.23046875
1.4623942375183105,-1266454110,1,0.4080851674079895,0.059549007564783096,1.0460224151611328,2.3193359375,143.00537109375,130.126953125
1.4873511791229248,-1266454074,0,-0.1829957216978073,0.004574257880449295,1.1403181552886963,-27.89306640625,-0.6103515625,-117.3095703125
1.4932100772857666,-1266454074,1,0.2098429799079895,0.0641876757144928,1.1309833526611328,16.2353515625,133.4228515625,129.7607421875
1.5165822505950928,-1266454055,0,-0.1495484560728073,0.007259804755449295,1.0419294834136963,-13.36669921875,-9.46044921875,-115.3564453125
1.5332770347595215,-1266454055,1,0.0894816517829895,-0.004904117435216904,1.0277118682861328,18.12744140625,113.46435546875,115.478515625
1.545212984085083,-1266454036,0,-0.1705445498228073,-0.087955042719841,0.9889509677886963,-0.6103515625,-14.892578125,-96.49658203125
1.5452880859375,-1266454017,0,-0.2083863466978073,-0.118716761469841,0.9706404209136963,14.58740234375,-28.6865234375,-67.9931640625
1.5523130893707275,-1266454036,1,0.1517375111579895,0.1193634569644928,1.0645771026611328,16.6015625,56.0302734375,36.80419921875
1.552389144897461,-1266454017,1,0.1246379017829895,-0.014425601810216904,0.9940204620361328,29.6630859375,31.55517578125,-3.0517578125
1.5855050086975098,-1266453998,0,-0.10682384669780731,-0.187564417719841,0.9945662021636963,23.8037109375,-28.01513671875,-59.2041015625
1.591001272201538,-1266453998,1,0.0931437611579895,-0.045675601810216904,1.0164813995361328,47.05810546875,17.39501953125,-9.94873046875
1.5910091400146484,-1266453979,1,0.1199992299079895,-0.020284976810216904,1.0106220245361328,59.99755859375,8.9111328125,-19.59228515625
1.6054441928863525,-1266453979,0,0.028674203902482986,-0.152164027094841,1.0380232334136963,47.119140625,20.5078125,-51.26953125
1.6055412292480469,-1266453960,0,-0.2269410341978073,-0.2774081528186798,1.1920759677886963,95.76416015625,41.32080078125,-62.3779296875
1.613328218460083,-1266453960,1,0.1812785267829895,-0.0739959180355072,0.9991474151611328,73.3642578125,2.25830078125,-21.97265625
1.641648292541504,-1266453941,1,0.1209757924079895,-0.0910857617855072,0.8988056182861328,95.88623046875,-8.1787109375,-16.357421875
1.6432960033416748,-1266453922,1,0.1749308705329895,-0.051290836185216904,0.9498310089111328,110.16845703125,-7.8125,-29.78515625
1.6659059524536133,-1266453941,0,-0.2633179724216461,-0.4214511215686798,1.2025740146636963,126.5869140625,2.25830078125,-67.87109375
1.66605806350708,-1266453922,0,-0.1390504091978073,-0.3941073715686798,1.0836775302886963,142.02880859375,-31.494140625,-48.7060546875
1.6661620140075684,-1266453903,0,0.025988657027482986,-0.172183558344841,1.1908552646636963,138.916015625,-76.84326171875,-15.68603515625
1.6827430725097656,-1266453903,1,0.2188761830329895,-0.040060367435216904,0.9407978057861328,111.87744140625,-7.14111328125,-30.82275390625
1.6951591968536377,-1266453884,0,0.10435779392719269,-0.011783163994550705,1.2611677646636963,103.515625,-71.83837890625,27.7099609375
1.6952550411224365,-1266453865,0,0.1827269345521927,0.126888707280159,1.2821638584136963,77.08740234375,-54.6875,70.1904296875
1.702404260635376,-1266453884,1,0.2471964955329895,0.010232601314783096,0.9310321807861328,105.77392578125,-9.09423828125,-30.82275390625
1.706023931503296,-1266453865,1,0.2237589955329895,0.052957210689783096,0.9036884307861328,76.66015625,-8.9111328125,-27.16064453125
1.7347331047058105,-1266453846,0,0.4786253869533539,0.3129238784313202,1.3292829990386963,20.56884765625,26.18408203125,80.26123046875
1.737691879272461,-1266453846,1,0.2115519642829895,0.041482601314783096,0.8909931182861328,54.443359375,-11.16943359375,-31.31103515625
1.7563891410827637,-1266453810,0,0.016955453902482986,0.144466832280159,1.1420271396636963,-44.86083984375,75.13427734375,65.4296875
1.7637600898742676,-1266453810,1,0.2791789174079895,0.1398712694644928,0.8511981964111328,31.3720703125,-20.751953125,-50.4150390625
1.7871229648590088,-1266453791,0,-0.2679566442966461,0.009457070380449295,0.9879744052886963,-33.3251953125,38.87939453125,31.8603515625
1.7871429920196533,-1266453772,0,-0.1571168154478073,-0.006167929619550705,1.0556013584136963,5.0048828125,22.8271484375,-9.3994140625
1.7931511402130127,-1266453791,1,0.2152140736579895,0.2238556444644928,0.8306903839111328,30.33447265625,-20.44677734375,-53.28369140625
1.7931599617004395,-1266453772,1,0.1888468861579895,0.1862579882144928,0.8580341339111328,26.18408203125,-27.4658203125,-48.33984375
1.8164880275726318,-1266453753,0,-0.07044689357280731,0.021908242255449295,1.0878279209136963,20.99609375,12.8173828125,2.74658203125
1.833319902420044,-1266453753,1,0.1182902455329895,0.1933380663394928,0.8836688995361328,17.08984375,-51.7578125,-51.6357421875
1.8465681076049805,-1266453734,0,0.013537485152482986,0.110531285405159,1.0651228427886963,33.203125,35.15625,-3.11279296875
1.8466360569000244,-1266453715,0,-0.1847047060728073,0.108578160405159,1.0067732334136963,42.48046875,47.36328125,-49.01123046875
1.8541061878204346,-1266453734,1,0.2825968861579895,0.1847931444644928,0.9129657745361328,6.2255859375,-55.96923828125,-65.36865234375
1.8541371822357178,-1266453715,1,0.2196086049079895,0.1926056444644928,0.9364032745361328,11.5966796875,-56.70166015625,-73.73046875
1.8840560913085938,-1266453696,0,-0.2972535192966461,0.047054726630449295,0.9660017490386963,49.25537109375,22.27783203125,-57.2509765625
1.8893718719482422,-1266453696,1,0.2357218861579895,0.2394806444644928,0.9354267120361328,21.66748046875,-48.33984375,-74.70703125
1.905104160308838,-1266453677,0,-0.2660035192966461,0.015316445380449295,0.9555037021636963,58.2275390625,-2.8076171875,-33.87451171875
1.905231237411499,-1266453658,0,-0.2833375036716461,0.090267613530159,0.8400251865386963,70.00732421875,-32.77587890625,3.90625
1.913987159729004,-1266453677,1,0.1959269642829895,0.2575470507144928,0.9466571807861328,31.43310546875,-35.400390625,-71.533203125
1.914057970046997,-1266453658,1,0.1991007924079895,0.3053986132144928,0.9063739776611328,40.58837890625,-31.79931640625,-78.125
1.9399611949920654,-1266453639,0,-0.2325562685728073,0.129818394780159,0.8827497959136963,83.0078125,-77.0263671875,12.20703125
1.9426050186157227,-1266453639,1,0.1253703236579895,0.3932892382144928,0.8824481964111328,36.80419921875,-26.4892578125,-81.72607421875
1.942673921585083,-1266453620,1,0.028934773057699203,0.4245392382144928,0.9412860870361328,23.4375,-26.4892578125,-67.5048828125
1.9654452800750732,-1266453620,0,-0.1810425966978073,0.3007168471813202,0.8915388584136963,75.98876953125,-94.8486328125,-12.451171875
1.9654572010040283,-1266453601,0,-0.2818726599216461,0.185726597905159,1.0853865146636963,42.78564453125,-89.78271484375,-42.3583984375
1.9828171730041504,-1266453601,1,0.052372273057699203,0.4562775194644928,1.0062274932861328,4.94384765625,-21.484375,-46.142578125
1.9948601722717285,-1266453582,0,-0.3407105505466461,0.225521519780159,1.0929548740386963,5.0048828125,-81.787109375,-43.51806640625
2.0024662017822266,-1266453582,1,0.0697062611579895,0.4655548632144928,1.0291767120361328,-1.5869140625,-10.31494140625,-43.27392578125
2.0347020626068115,-1266453546,0,-0.2830933630466461,0.2599453628063202,1.0470564365386963,-27.64892578125,-60.4248046875,-2.3193359375
2.037645101547241,-1266453546,1,-0.0074421800673007965,0.3967072069644928,0.9305438995361328,18.37158203125,2.44140625,-67.68798828125
2.056541919708252,-1266453527,0,-0.3204468786716461,0.3905605971813202,1.1058943271636963,-30.57861328125,-34.97314453125,-11.474609375
2.0566952228546143,-1266453508,0,-0.3951539099216461,0.4039883315563202,1.0990583896636963,-31.92138671875,-21.3623046875,-47.42431640625
2.063913106918335,-1266453527,1,-0.1453816294670105,0.5800568461418152,0.9727802276611328,57.18994140625,24.0478515625,-87.40234375
2.0640041828155518,-1266453508,1,-0.1519734263420105,0.6366974711418152,0.9952411651611328,68.9697265625,39.24560546875,-81.84814453125
2.0876240730285645,-1266453489,0,-0.4264039099216461,0.3256191909313202,0.9777204990386963,-54.8095703125,-44.0673828125,-57.373046875
2.094931125640869,-1266453489,1,-0.1497761607170105,0.6149689555168152,1.0645771026611328,52.1240234375,38.51318359375,-56.15234375
2.0949409008026123,-1266453470,1,-0.1575886607170105,0.6061798930168152,1.1407489776611328,34.7900390625,23.5595703125,-55.23681640625
2.114976167678833,-1266453470,0,-0.3985718786716461,0.2616543471813202,1.0385115146636963,-82.58056640625,-67.87109375,-51.57470703125
2.1150920391082764,-1266453451,0,-0.3280152380466461,0.183773472905159,1.2301619052886963,-94.970703125,-76.904296875,-41.015625
2.133286952972412,-1266453451,1,-0.1871296763420105,0.5988556742668152,1.1143817901611328,33.63037109375,10.92529296875,-87.21923828125
2.1465699672698975,-1266453432,0,-0.3311890661716461,0.222591832280159,1.2003767490386963,-105.8349609375,-61.58447265625,-39.6728515625
2.1466360092163086,-1266453413,0,-0.3424195349216461,0.210628941655159,1.2128279209136963,-113.58642578125,-30.70068359375,-39.24560546875
2.1539971828460693,-1266453432,1,-0.2840535044670105,0.6579377055168152,1.0360126495361328,40.58837890625,-6.2255859375,-98.7548828125
2.1541171073913574,-1266453413,1,-0.3240925669670105,0.7104279398918152,0.9166278839111328,49.8046875,-27.89306640625,-83.19091796875
2.184835195541382,-1266453394,0,-0.2830933630466461,0.164242222905159,1.1803572177886963,-79.1015625,-24.5361328125,-30.82275390625
2.1894919872283936,-1266453394,1,-0.3292195200920105,0.6750275492668152,0.8338642120361328,51.45263671875,-36.62109375,-57.7392578125
2.2051122188568115,-1266453375,0,-0.2227906435728073,0.246517613530159,1.1871931552886963,-31.494140625,-46.32568359375,-17.08984375
2.2051820755004883,-1266453356,0,-0.1888550966978073,0.244320347905159,1.3207380771636963,-1.40380859375,-53.22265625,-30.029296875
2.2128090858459473,-1266453375,1,-0.2911335825920105,0.6335236430168152,0.7684345245361328,46.875,-33.14208984375,-45.95947265625
2.2129180431365967,-1266453356,1,-0.2657429575920105,0.6171662211418152,0.7232685089111328,39.0625,-26.85546875,-42.724609375
2.2394301891326904,-1266453337,0,-0.1392945498228073,0.2601895034313202,1.3744490146636963,-14.46533203125,-28.1982421875,-24.35302734375
2.243957042694092,-1266453337,1,-0.2293660044670105,0.6381623148918152,0.6969013214111328,20.32470703125,-26.123046875,-29.296875
2.244009017944336,-1266453318,1,-0.1697956919670105,0.5978791117668152,0.6602802276611328,4.638671875,-27.4658203125,-16.05224609375
2.26789927482605,-1266453318,0,-0.2061890810728073,0.168880894780159,1.3536970615386963,-18.9208984375,1.708984375,-14.6484375
2.2942399978637695,-1266453282,0,-0.07435314357280731,0.183529332280159,1.2650740146636963,-7.50732421875,24.658203125,3.11279296875
2.294990062713623,-1266453263,0,-0.07581798732280731,0.247494176030159,1.3024275302886963,-14.7705078125,28.1982421875,-18.37158203125
2.303165912628174,-1266453282,1,-0.040889445692300797,0.5060822367668152,0.5584735870361328,8.85009765625,-15.7470703125,-24.71923828125
2.3032610416412354,-1266453263,1,-0.061641398817300797,0.5514923930168152,0.5201435089111328,14.22119140625,0.30517578125,-31.06689453125
2.337510108947754,-1266453244,0,-0.059948842972517014,0.080990269780159,1.2682478427886963,-20.1416015625,54.19921875,-54.6875
2.3407890796661377,-1266453244,1,-0.0645710825920105,0.5710236430168152,0.5045185089111328,9.1552734375,9.8876953125,-27.099609375
2.3565540313720703,-1266453225,0,-0.1319703310728073,0.061214882880449295,1.2160017490386963,-13.97705078125,46.08154296875,-55.17578125
2.3566720485687256,-1266453206,0,-0.11732189357280731,0.081234410405159,1.1798689365386963,-10.3759765625,39.00146484375,-41.8701171875
2.364063024520874,-1266453225,1,-0.026973430067300797,0.5729767680168152,0.5272235870361328,-5.126953125,20.44677734375,-16.11328125
2.36419415473938,-1266453206,1,0.026249226182699203,0.5356232523918152,0.5418720245361328,-19.4091796875,28.564453125,-13.3056640625
2.389918088912964,-1266453187,0,-0.1290406435728073,0.076839879155159,1.1371443271636963,-2.3193359375,31.18896484375,-35.46142578125
2.393954038619995,-1266453187,1,0.0047648511826992035,0.4921661913394928,0.5772724151611328,-14.5263671875,37.04833984375,-19.287109375
2.3939731121063232,-1266453168,1,-0.053096476942300797,0.4772736132144928,0.6719989776611328,-11.1083984375,46.630859375,-22.94921875
2.415708065032959,-1266453168,0,-0.1578492373228073,0.101498082280159,1.0787947177886963,7.01904296875,25.87890625,-30.94482421875
2.4158132076263428,-1266453149,0,-0.1685914248228073,0.125423863530159,1.0617048740386963,13.5498046875,22.64404296875,-21.54541015625
2.433089017868042,-1266453149,1,-0.1339070200920105,0.5358673930168152,0.7989521026611328,-15.07568359375,53.7109375,-14.95361328125
2.446613073348999,-1266453130,0,-0.1773804873228073,0.176693394780159,1.0365583896636963,15.0146484375,24.96337890625,-12.02392578125
2.4467451572418213,-1266453111,0,-0.2035035341978073,0.225277379155159,1.0267927646636963,13.3056640625,19.53125,-8.11767578125
2.452587127685547,-1266453130,1,-0.1451374888420105,0.5065705180168152,0.8961200714111328,-18.310546875,48.583984375,0.91552734375
2.4528262615203857,-1266453111,1,-0.1429402232170105,0.4440704882144928,0.9256610870361328,-5.43212890625,35.7666015625,-12.0849609375
2.4879000186920166,-1266453092,1,-0.2442585825920105,0.5163361430168152,0.9451923370361328,14.34326171875,21.1181640625,-35.64453125
2.505329132080078,-1266453092,0,-0.1878785341978073,0.220638707280159,1.0587751865386963,11.41357421875,4.57763671875,-6.77490234375
2.5054399967193604,-1266453073,0,-0.1566285341978073,0.216244176030159,1.0775740146636963,0.3662109375,-6.34765625,-0.3662109375
2.5064032077789307,-1266453054,0,-0.1541871279478073,0.199886754155159,1.0729353427886963,-7.26318359375,-6.2255859375,5.37109375
2.512794256210327,-1266453073,1,-0.3323933482170105,0.6159455180168152,0.9652118682861328,17.63916015625,12.0849609375,-33.75244140625
2.5128891468048096,-1266453054,1,-0.3716999888420105,0.6374298930168152,0.9522724151611328,5.126953125,6.77490234375,-3.7841796875
2.5412039756774902,-1266453018,1,-0.3048054575920105,0.5387970805168152,0.9376239776611328,10.009765625,-0.91552734375,-1.15966796875
2.5664920806884766,-1266453018,0,-0.1649293154478073,0.143001988530159,1.0958845615386963,-5.0048828125,-7.32421875,0.732421875
2.5666511058807373,-1266452999,0,-0.1529664248228073,0.091976597905159,1.0907576084136963,1.77001953125,-11.65771484375,-1.52587890625
2.5861639976501465,-1266452999,1,-0.3546101450920105,0.6305939555168152,0.8946552276611328,19.34814453125,-0.30517578125,-15.19775390625
2.5950520038604736,-1266452980,0,-0.1729859560728073,0.080990269780159,1.1017439365386963,1.77001953125,-15.7470703125,-3.72314453125
2.5951640605926514,-1266452961,0,-0.1683472841978073,0.019466836005449295,1.1747419834136963,-5.92041015625,-15.80810546875,1.46484375
2.6022462844848633,-1266452980,1,-0.4105183482170105,0.7177521586418152,0.8558368682861328,19.95849609375,3.5400390625,-3.7841796875
2.6023430824279785,-1266452961,1,-0.3970906138420105,0.6884552836418152,0.8289813995361328,19.10400390625,10.25390625,8.7890625
2.6339001655578613,-1266452942,0,-0.1666382998228073,-0.008365195244550705,1.1788923740386963,-9.033203125,-9.6435546875,7.568359375
2.6370670795440674,-1266452942,1,-0.3648640513420105,0.6449982523918152,0.8199481964111328,25.2685546875,23.4375,5.79833984375
2.6573660373687744,-1266452923,0,-0.2057007998228073,0.006039101630449295,1.1740095615386963,-10.6201171875,1.77001953125,17.02880859375
2.657377004623413,-1266452904,0,-0.2125367373228073,0.004818398505449295,1.1588728427886963,-9.521484375,3.173828125,20.81298828125
2.6632211208343506,-1266452923,1,-0.3336140513420105,0.6430451273918152,0.8165302276611328,35.33935546875,29.35791015625,-5.92041015625
2.6633150577545166,-1266452904,1,-0.3526570200920105,0.6938263773918152,0.8023700714111328,41.748046875,26.67236328125,-11.29150390625
2.6876349449157715,-1266452885,0,-0.2174195498228073,-0.007876913994550705,1.1549665927886963,-6.89697265625,-0.30517578125,28.86962890625
2.6922318935394287,-1266452885,1,-0.3612019419670105,0.7206818461418152,0.7728290557861328,40.1611328125,17.822265625,-6.103515625
2.7150330543518066,-1266452866,0,-0.2122925966978073,-0.012515585869550705,1.1972029209136963,-7.14111328125,-6.53076171875,35.46142578125
2.715157985687256,-1266452847,0,-0.2008179873228073,0.007503945380449295,1.2421247959136963,-5.37109375,-10.80322265625,43.15185546875
2.732511043548584,-1266452866,1,-0.3690144419670105,0.7033478617668152,0.7449970245361328,28.4423828125,7.50732421875,7.26318359375
2.73252010345459,-1266452847,1,-0.3399617075920105,0.6647736430168152,0.7442646026611328,13.73291015625,9.765625,13.671875
2.744887113571167,-1266452828,0,-0.1585816591978073,0.059261757880449295,1.2882673740386963,-9.8876953125,-6.2255859375,36.07177734375
2.752466917037964,-1266452828,1,-0.2987019419670105,0.6420685648918152,0.8013935089111328,2.25830078125,23.5595703125,8.7890625
2.7525880336761475,-1266452809,1,-0.2752644419670105,0.6120392680168152,0.8575458526611328,2.25830078125,31.6162109375,1.03759765625
2.784804105758667,-1266452809,0,-0.1617554873228073,0.037533242255449295,1.2897322177886963,-9.70458984375,4.8828125,22.705078125
2.7848122119903564,-1266452790,0,-0.1400269716978073,0.043880898505449295,1.2494490146636963,-4.33349609375,11.65771484375,29.35791015625
2.787869930267334,-1266452790,1,-0.2498738169670105,0.6020295023918152,0.8702411651611328,12.3291015625,31.18896484375,-10.43701171875
2.805185079574585,-1266452754,0,-0.08363048732280731,0.188656285405159,1.1959822177886963,8.30078125,20.32470703125,54.6875
2.812509059906006,-1266452754,1,-0.2608601450920105,0.6347443461418152,0.8382587432861328,31.005859375,28.1982421875,-5.55419921875
2.8382809162139893,-1266452735,0,-0.048962514847517014,0.2716641128063202,1.2050154209136963,9.70458984375,18.49365234375,44.3115234375
2.8421292304992676,-1266452735,1,-0.2471882700920105,0.6227814555168152,0.8328876495361328,35.21728515625,34.1796875,-0.3662109375
2.8649721145629883,-1266452716,0,-0.0028199367225170135,0.3097500503063202,1.2301619052886963,5.615234375,14.09912109375,31.005859375
2.865028142929077,-1266452697,0,0.041369516402482986,0.3290371596813202,1.2570173740386963,0.8544921875,16.7236328125,19.47021484375
2.8859751224517822,-1266452716,1,-0.2266804575920105,0.6464630961418152,0.8365497589111328,37.2314453125,37.109375,1.89208984375
2.8859829902648926,-1266452697,1,-0.2042195200920105,0.6620880961418152,0.8602313995361328,34.1796875,38.14697265625,-1.52587890625
2.8949201107025146,-1266452678,0,0.08140857517719269,0.3031582534313202,1.2650740146636963,-1.40380859375,18.73779296875,16.11328125
2.9023430347442627,-1266452678,1,-0.1651570200920105,0.6813752055168152,0.8709735870361328,31.79931640625,37.7197265625,-7.26318359375
2.902412176132202,-1266452659,1,-0.1361042857170105,0.7079865336418152,0.8753681182861328,33.99658203125,40.0390625,-10.43701171875
2.9344310760498047,-1266452659,0,0.1360960751771927,0.3007168471813202,1.2824079990386963,2.3193359375,21.91162109375,14.95361328125
2.9344382286071777,-1266452640,0,0.1985960751771927,0.3153652846813202,1.3302595615386963,9.27734375,26.06201171875,7.9345703125
2.9382591247558594,-1266452640,1,-0.0928913950920105,0.6889435648918152,0.8602313995361328,39.306640625,44.86083984375,-4.7607421875
2.955395221710205,-1266452621,0,0.2208128720521927,0.3131680190563202,1.3370954990386963,15.44189453125,37.04833984375,-4.7607421875
2.9554691314697266,-1266452602,0,0.2269163876771927,0.2704434096813202,1.2848494052886963,18.85986328125,49.13330078125,-18.12744140625
2.9623360633850098,-1266452621,1,-0.059199992567300797,0.6645295023918152,0.8546161651611328,44.49462890625,45.22705078125,-0.3662109375
2.9624252319335938,-1266452602,1,-0.026241008192300797,0.6359650492668152,0.8404560089111328,51.3916015625,46.0205078125,-2.44140625
3.014204263687134,-1266452583,0,0.1832152158021927,0.220882847905159,1.1852400302886963,23.25439453125,54.87060546875,-16.05224609375
3.015239953994751,-1266452564,0,0.1641722470521927,0.246517613530159,1.0707380771636963,29.72412109375,56.33544921875,-12.87841796875
3.015320062637329,-1266452545,0,0.1675902158021927,0.2736172378063202,1.0089704990386963,34.97314453125,50.1708984375,-13.18359375
3.0320780277252197,-1266452583,1,-0.035762492567300797,0.6528107523918152,0.8011493682861328,56.33544921875,46.5087890625,-10.68115234375
3.0320849418640137,-1266452564,1,-0.057246867567300797,0.6891877055168152,0.7650165557861328,54.13818359375,47.119140625,-6.04248046875
3.032090187072754,-1266452545,1,-0.052608195692300797,0.6684357523918152,0.7528095245361328,45.34912109375,50.1708984375,6.34765625
3.0470468997955322,-1266452526,0,0.2000609189271927,0.2802090346813202,1.0018904209136963,33.02001953125,49.9267578125,-19.34814453125
3.0522031784057617,-1266452526,1,-0.046260539442300797,0.6374298930168152,0.7589130401611328,41.32080078125,51.1474609375,13.73291015625
3.0836260318756104,-1266452490,0,0.11925037205219269,0.162533238530159,0.9323103427886963,14.09912109375,51.33056640625,-42.8466796875
3.0876121520996094,-1266452490,1,-0.0706745982170105,0.5749298930168152,0.7264423370361328,39.6728515625,56.82373046875,-1.46484375
3.105152130126953,-1266452471,0,0.08677966892719269,0.150082066655159,0.8815290927886963,6.7138671875,44.7998046875,-30.76171875
3.1052238941192627,-1266452452,0,0.08726795017719269,0.134457066655159,0.8493025302886963,1.220703125,41.9921875,-15.9912109375
3.1129541397094727,-1266452471,1,-0.0941120982170105,0.5844513773918152,0.6666278839111328,41.56494140625,58.41064453125,-12.20703125
3.1130220890045166,-1266452452,1,-0.1173054575920105,0.5817658305168152,0.6065692901611328,40.771484375,52.001953125,-13.97705078125
3.138587236404419,-1266452433,0,0.08458240330219269,0.164730504155159,0.8114607334136963,-0.48828125,43.3349609375,-3.7841796875
3.142143964767456,-1266452433,1,-0.0992390513420105,0.5510041117668152,0.5242938995361328,37.7197265625,42.724609375,-10.498046875
3.165489912033081,-1266452414,0,0.06749255955219269,0.153255894780159,0.8263533115386963,-7.8125,40.8935546875,-10.8642578125
3.1656041145324707,-1266452395,0,0.032824594527482986,0.085628941655159,0.8051130771636963,-18.00537109375,33.38623046875,-22.15576171875
3.1843340396881104,-1266452414,1,-0.0821492075920105,0.4921661913394928,0.4610614776611328,37.17041015625,41.68701171875,-17.02880859375
3.1843409538269043,-1266452395,1,-0.0640828013420105,0.4743439257144928,0.3824481964111328,40.46630859375,50.96435546875,-42.1142578125
3.19497013092041,-1266452376,0,-0.016980092972517014,0.034359414130449295,0.7745954990386963,-21.240234375,21.97265625,-15.5029296875
3.203749179840088,-1266452376,1,-0.1085163950920105,0.4904572069644928,0.3333759307861328,43.27392578125,61.03515625,-62.31689453125
3.234726905822754,-1266452357,0,-0.011853139847517014,0.038509804755449295,0.7731306552886963,-14.892578125,8.36181640625,-1.40380859375
3.234734058380127,-1266452338,0,0.022814828902482986,0.098812535405159,0.7767927646636963,-8.23974609375,9.765625,8.7890625
3.2386412620544434,-1266452357,1,-0.1839558482170105,0.5387970805168152,0.3409442901611328,30.029296875,65.673828125,-69.76318359375
3.2386481761932373,-1266452338,1,-0.1854206919670105,0.5458771586418152,0.3377704620361328,14.22119140625,61.09619140625,-66.34521484375
3.256439208984375,-1266452319,0,0.036974985152482986,0.134212926030159,0.7872908115386963,-12.26806640625,14.34326171875,-4.45556640625
3.263899087905884,-1266452319,1,-0.1722370982170105,0.5090119242668152,0.3162860870361328,4.0283203125,56.884765625,-66.22314453125
3.2640151977539062,-1266452300,1,-0.1929890513420105,0.4284454882144928,0.2882099151611328,10.80322265625,61.1572265625,-81.84814453125
3.2882020473480225,-1266452300,0,-0.0055054835975170135,0.094906285405159,0.7924177646636963,-21.97265625,12.451171875,-24.71923828125
3.288209915161133,-1266452281,0,-0.028942983597517014,0.015072304755449295,0.8151228427886963,-27.77099609375,-9.521484375,-30.1513671875
3.293657064437866,-1266452281,1,-0.2840535044670105,0.4516388475894928,0.3477802276611328,24.47509765625,62.6220703125,-107.7880859375
3.3156521320343018,-1266452262,0,0.025500375777482986,0.010433632880449295,0.8610212802886963,-23.49853515625,-26.06201171875,-4.94384765625
3.3333780765533447,-1266452262,1,-0.3487507700920105,0.5263459086418152,0.3853778839111328,16.66259765625,40.6494140625,-113.46435546875
3.346555233001709,-1266452226,0,0.08458240330219269,0.111019566655159,0.9962751865386963,-36.9873046875,-23.62060546875,-22.27783203125
3.3530702590942383,-1266452226,1,-0.2894245982170105,0.5278107523918152,0.3177509307861328,-21.3623046875,-4.94384765625,-79.9560546875
3.3840739727020264,-1266452207,0,0.059435922652482986,0.003353554755449295,1.0634138584136963,-63.4765625,-40.58837890625,-59.14306640625
3.3840861320495605,-1266452188,0,0.09801013767719269,-0.080630823969841,1.0807478427886963,-71.2890625,-47.42431640625,-63.29345703125
3.386564254760742,-1266452207,1,-0.3135945200920105,0.4042755663394928,0.3143329620361328,-21.91162109375,-3.60107421875,-93.3837890625
3.386571168899536,-1266452188,1,-0.3760945200920105,0.3901154100894928,0.3802509307861328,-5.615234375,10.986328125,-126.40380859375
3.406752109527588,-1266452169,0,0.1336546689271927,-0.106509730219841,1.0494978427886963,-64.51416015625,-50.6591796875,-33.935546875
3.4128079414367676,-1266452169,1,-0.4359089732170105,0.4677521288394928,0.4637470245361328,-8.30078125,9.765625,-139.09912109375
3.4128870964050293,-1266452150,1,-0.4302937388420105,0.4767853319644928,0.4766864776611328,-20.8740234375,0.48828125,-130.31005859375
3.4378628730773926,-1266452150,0,0.1983519345521927,-0.003482382744550705,1.0839216709136963,-60.48583984375,-57.43408203125,-22.15576171875
3.437871217727661,-1266452131,0,0.1983519345521927,0.018246132880449295,1.1686384677886963,-81.787109375,-62.3779296875,-50.6591796875
3.4423890113830566,-1266452131,1,-0.4425007700920105,0.3759552538394928,0.4927997589111328,-22.15576171875,-2.8076171875,-128.662109375
3.4666502475738525,-1266452112,0,0.1700316220521927,-0.087710902094841,1.1876814365386963,-99.79248046875,-56.640625,-77.69775390625
3.4667630195617676,-1266452093,0,0.1719847470521927,-0.151919886469841,1.1810896396636963,-101.07421875,-51.94091796875,-72.3876953125
3.4831559658050537,-1266452112,1,-0.5284382700920105,0.3215118944644928,0.5435810089111328,-12.26806640625,6.8359375,-147.15576171875
3.483164072036743,-1266452093,1,-0.6378132700920105,0.3334747850894928,0.6514911651611328,-1.220703125,10.07080078125,-162.41455078125
3.496502161026001,-1266452074,0,0.1746702939271927,-0.106753870844841,1.1693708896636963,-81.9091796875,-59.2041015625,-54.38232421875
3.502937078475952,-1266452074,1,-0.6580769419670105,0.3942658007144928,0.6961688995361328,-5.7373046875,-8.48388671875,-152.34375
3.5375192165374756,-1266452055,0,0.1736937314271927,-0.084781214594841,1.2614119052886963,-82.33642578125,-92.8955078125,-70.068359375
3.538511276245117,-1266452036,0,0.2361937314271927,-0.138003870844841,1.3759138584136963,-94.54345703125,-112.4267578125,-91.552734375
3.540262222290039,-1266452055,1,-0.6116902232170105,0.2966095507144928,0.7191181182861328,-16.9677734375,-26.9775390625,-128.90625
3.540266990661621,-1266452036,1,-0.7376667857170105,0.1469513475894928,0.7210712432861328,1.40380859375,-26.06201171875,-150.87890625
3.5548460483551025,-1266452017,0,0.2576781213283539,-0.211001917719841,1.4611189365386963,-92.28515625,-105.1025390625,-86.97509765625
3.5651021003723145,-1266452017,1,-0.8670613169670105,0.1452423632144928,0.7630634307861328,32.04345703125,-11.71875,-181.33544921875
3.5897440910339355,-1266451998,0,0.2444945126771927,-0.176333948969841,1.4650251865386963,-76.96533203125,-94.482421875,-77.33154296875
3.593780994415283,-1266451998,1,-0.8966023325920105,0.1911408007144928,0.8243427276611328,42.78564453125,-7.080078125,-180.7861328125
3.6150169372558594,-1266451962,0,0.2418089658021927,-0.114566370844841,1.5761091709136963,-79.345703125,-120.9716796875,-111.083984375
3.615133047103882,-1266451943,0,0.2640257775783539,-0.161685511469841,1.6088240146636963,-103.6376953125,-133.72802734375,-130.126953125
3.633855104446411,-1266451962,1,-1.0250203609466553,0.013406429439783096,0.8431415557861328,69.82421875,-13.671875,-163.75732421875
3.6338629722595215,-1266451943,1,-1.1033895015716553,-0.0019744299352169037,0.8446063995361328,100.40283203125,-20.99609375,-176.81884765625
3.645040273666382,-1266451924,0,0.2442503720521927,-0.175845667719841,1.6202986240386963,-118.65234375,-146.17919921875,-125.06103515625
3.652421236038208,-1266451924,1,-1.1336629390716553,0.031472835689783096,0.8558368682861328,113.09814453125,-40.6494140625,-161.62109375
3.6853182315826416,-1266451905,0,0.2134886533021927,-0.092593714594841,1.6561872959136963,-109.4970703125,-158.38623046875,-112.85400390625
3.6853270530700684,-1266451886,0,0.2230101376771927,0.002132851630449295,1.7284529209136963,-100.52490234375,-160.94970703125,-129.33349609375
3.6893539428710938,-1266451905,1,-1.1348836421966553,-0.0681365430355072,0.8358173370361328,106.62841796875,-60.85205078125,-138.97705078125
3.689361333847046,-1266451886,1,-1.2161824703216553,-0.2392791211605072,0.8031024932861328,118.71337890625,-66.2841796875,-147.5830078125
3.70481014251709,-1266451867,0,0.2361937314271927,-0.017154257744550705,1.8009626865386963,-106.3232421875,-160.15625,-161.07177734375
3.714102029800415,-1266451867,1,-1.3133504390716553,-0.2395232617855072,0.7725849151611328,140.0146484375,-60.9130859375,-165.83251953125
3.7394630908966064,-1266451848,0,0.2437620908021927,-0.152896448969841,1.9586775302886963,-106.75048828125,-148.74267578125,-184.38720703125
3.7394721508026123,-1266451829,0,0.1783324033021927,-0.215152308344841,2.0971052646636963,-79.833984375,-132.14111328125,-180.419921875
3.743671178817749,-1266451848,1,-1.4149129390716553,-0.1179412305355072,0.7137470245361328,154.96826171875,-66.46728515625,-163.0859375
3.766639232635498,-1266451810,0,0.2161742001771927,-0.3191561996936798,2.1979353427886963,-42.6025390625,-119.32373046875,-182.06787109375
3.7667179107666016,-1266451791,0,0.3189574182033539,-0.4968905746936798,2.3019392490386963,-19.287109375,-118.65234375,-195.49560546875
3.7829880714416504,-1266451829,1,-1.4708211421966553,-0.1047576367855072,0.6927509307861328,157.1044921875,-78.9794921875,-120.361328125
3.7829959392547607,-1266451810,1,-1.5274617671966553,-0.2063201367855072,0.6766376495361328,161.56005859375,-79.16259765625,-85.8154296875
3.783001184463501,-1266451791,1,-1.6519734859466553,-0.2348845899105072,0.6978778839111328,164.61181640625,-80.01708984375,-70.12939453125
3.7965331077575684,-1266451772,0,0.3858519494533539,-0.7637363076210022,2.4933454990386963,14.95361328125,-106.3232421875,-213.5009765625
3.8036999702453613,-1266451772,1,-1.7886922359466553,-0.0822966992855072,0.6522235870361328,164.306640625,-95.03173828125,-43.51806640625
3.837419033050537,-1266451753,0,0.3157835900783539,-0.9378085732460022,2.5851423740386963,73.05908203125,-68.84765625,-213.9892578125
3.8374269008636475,-1266451734,0,0.2945433557033539,-1.0628085136413574,2.5026228427886963,141.7236328125,-18.00537109375,-200.01220703125
3.8406269550323486,-1266451753,1,-1.6925008296966553,0.0754181444644928,0.5670185089111328,143.6767578125,-102.60009765625,20.263671875
3.8406872749328613,-1266451734,1,-1.6270711421966553,-0.021993961185216904,0.5548114776611328,122.86376953125,-82.1533203125,90.6982421875
3.8620071411132812,-1266451698,1,-1.5894734859466553,-0.1108611524105072,0.5716571807861328,106.201171875,-71.4111328125,148.92578125
3.8898019790649414,-1266451698,0,0.4439574182033539,-1.1257967948913574,2.3991072177886963,188.17138671875,35.15625,-204.04052734375
3.8898091316223145,-1266451679,0,0.6258421540260315,-1.2796053886413574,2.3759138584136963,188.41552734375,70.9228515625,-205.810546875
3.8941659927368164,-1266451679,1,-1.4549520015716553,-0.0625213086605072,0.5394306182861328,94.29931640625,-73.6083984375,161.80419921875
3.916476249694824,-1266451660,0,0.7471800446510315,-1.3967928886413574,2.2728865146636963,209.41162109375,119.93408203125,-185.791015625
3.9165890216827393,-1266451641,0,0.8770628571510315,-1.3745760917663574,2.0775740146636963,250.0,170.34912109375,-158.8134765625
3.933472156524658,-1266451660,1,-1.2874715328216553,-0.025656070560216904,0.5094013214111328,73.91357421875,-59.4482421875,179.13818359375
3.9334800243377686,-1266451641,1,-1.1717488765716553,-0.025656070560216904,0.5213642120361328,66.650390625,-28.3203125,189.0869140625
3.9513580799102783,-1266451622,1,-1.0902059078216553,-0.0905974805355072,0.5604267120361328,62.5,-7.75146484375,192.9931640625
3.9820990562438965,-1266451622,0,1.1055785417556763,-1.3154940605163574,1.9232771396636963,281.55517578125,190.673828125,-151.30615234375
3.9821062088012695,-1266451603,0,1.3433715105056763,-1.1990389823913574,1.7306501865386963,308.65478515625,209.1064453125,-147.03369140625
3.9821109771728516,-1266451584,0,1.4822875261306763,-1.0388827323913574,1.5282576084136963,305.96923828125,242.7978515625,-131.65283203125
3.984739065170288,-1266451603,1,-0.9786335825920105,-0.029806461185216904,0.5626239776611328,57.4951171875,-12.39013671875,186.03515625
3.9847450256347656,-1266451584,1,-0.8365437388420105,0.1069122850894928,0.5076923370361328,55.60302734375,-13.3056640625,187.6220703125
4.00678014755249,-1266451565,0,1.5457640886306763,-0.9414706826210022,1.2763044834136963,289.794921875,275.0244140625,-107.23876953125
4.014103174209595,-1266451565,1,-0.7493855357170105,0.1669708788394928,0.4796161651611328,56.33544921875,1.220703125,196.044921875
4.03720498085022,-1266451546,0,1.5228148698806763,-0.8357577919960022,1.0783064365386963,280.33447265625,299.072265625,-83.49609375
4.037225961685181,-1266451527,0,1.4730101823806763,-0.7498202919960022,0.8932478427886963,260.3759765625,310.05859375,-59.87548828125
4.063953161239624,-1266451508,0,1.4051390886306763,-0.7351718544960022,0.6923201084136963,255.92041015625,323.974609375,-39.794921875
4.082502126693726,-1266451546,1,-0.7281453013420105,0.2004181444644928,0.4173603057861328,41.259765625,6.591796875,205.74951171875
4.0825090408325195,-1266451527,1,-0.6275593638420105,0.1901642382144928,0.3839130401611328,7.2021484375,10.009765625,203.369140625
4.082515001296997,-1266451508,1,-0.4329792857170105,0.2272736132144928,0.3822040557861328,-11.23046875,36.07177734375,190.185546875
4.082520246505737,-1266451489,1,-0.3050495982170105,0.1254669725894928,0.4293231964111328,0.1220703125,75.0732421875,154.35791015625
4.094890117645264,-1266451489,0,1.3096801042556763,-0.6824374794960022,0.4838239848613739,273.98681640625,328.857421875,-8.48388671875
4.09496808052063,-1266451470,0,1.2220336198806763,-0.6441074013710022,0.3327009379863739,290.8935546875,328.18603515625,20.751953125
4.102179050445557,-1266451470,1,-0.3030964732170105,0.1652618944644928,0.4522724151611328,22.88818359375,111.26708984375,138.3056640625
4.134470224380493,-1266451434,0,0.9576292634010315,-0.5850253701210022,0.011656023561954498,333.3740234375,277.64892578125,51.7578125
4.1389172077178955,-1266451434,1,-0.2840535044670105,0.2023712694644928,0.4166278839111328,1.89208984375,128.90625,131.103515625
4.155635118484497,-1266451415,0,0.8692503571510315,-0.5564609169960022,-0.0725724920630455,345.15380859375,233.45947265625,49.37744140625
4.163750886917114,-1266451415,1,-0.2808796763420105,0.2433868944644928,0.4239521026611328,-22.76611328125,126.77001953125,125.3662109375
4.191508054733276,-1266451396,0,0.8394652009010315,-0.5310702919960022,-0.1270158588886261,342.34619140625,201.11083984375,49.49951171875
4.191516876220703,-1266451377,0,0.8206663727760315,-0.5215488076210022,-0.2112443745136261,338.92822265625,184.5703125,53.3447265625
4.192300081253052,-1266451396,1,-0.2737995982170105,0.2487579882144928,0.4349384307861328,-35.2783203125,126.89208984375,122.314453125
4.1923840045928955,-1266451377,1,-0.2737995982170105,0.2626740038394928,0.4451923370361328,-32.77587890625,146.484375,107.421875
4.214781999588013,-1266451358,0,0.9146605134010315,-0.5410800576210022,-0.2861955463886261,343.994140625,171.630859375,66.162109375
4.232258081436157,-1266451358,1,-0.2471882700920105,0.2682892382144928,0.4715595245361328,-15.869140625,185.97412109375,84.04541015625
4.232267141342163,-1266451339,1,-0.3091999888420105,0.3725372850894928,0.5174579620361328,7.2021484375,221.49658203125,59.99755859375
4.2450501918792725,-1266451339,0,1.0572386980056763,-0.5252109169960022,-0.3364885151386261,359.2529296875,157.89794921875,105.40771484375
4.2451581954956055,-1266451320,0,1.2706176042556763,-0.4761386215686798,-0.3694474995136261,366.51611328125,167.724609375,144.04296875
4.252136945724487,-1266451320,1,-0.3773152232170105,0.4953400194644928,0.5589618682861328,-4.638671875,216.73583984375,53.77197265625
4.284564971923828,-1266451301,0,1.3138304948806763,-0.4270663559436798,-0.4295060932636261,361.26708984375,194.7021484375,164.36767578125
4.284576177597046,-1266451282,0,1.3565551042556763,-0.4773593246936798,-0.5164201259613037,345.27587890625,221.0693359375,168.0908203125
4.287091016769409,-1266451301,1,-0.4222370982170105,0.5698029398918152,0.6226825714111328,-32.958984375,185.60791015625,64.8193359375
4.287098169326782,-1266451282,1,-0.4688679575920105,0.5778595805168152,0.5064716339111328,-85.44921875,172.79052734375,94.54345703125
4.306657075881958,-1266451263,0,1.3497191667556763,-0.5772128701210022,-0.5606095790863037,330.9326171875,233.58154296875,164.6728515625
4.314297199249268,-1266451263,1,-0.4493367075920105,0.4926544725894928,0.4659442901611328,-113.46435546875,198.05908203125,103.3935546875
4.337060213088989,-1266451244,0,1.4456664323806763,-0.7334628701210022,-0.5796525478363037,334.28955078125,219.29931640625,156.982421875
4.337522983551025,-1266451225,0,1.4964476823806763,-0.7586093544960022,-0.5667130947113037,353.6376953125,209.28955078125,145.69091796875
4.344410181045532,-1266451244,1,-0.4315144419670105,0.3598419725894928,0.5098896026611328,-109.619140625,238.34228515625,95.947265625
4.344418048858643,-1266451225,1,-0.4468953013420105,0.3024689257144928,0.5933856964111328,-77.1484375,290.22216796875,75.25634765625
4.38411021232605,-1266451206,1,-0.5633503794670105,0.2568146288394928,0.6136493682861328,-67.32177734375,328.125,46.7529296875
4.395099878311157,-1266451206,0,1.5035277605056763,-0.8274570107460022,-0.5396134853363037,371.826171875,192.2607421875,124.267578125
4.395212173461914,-1266451170,0,1.4363890886306763,-0.9741855263710022,-0.4744279682636261,342.22412109375,168.64013671875,110.16845703125
4.402428150177002,-1266451170,1,-0.6163288950920105,0.1283966600894928,0.6644306182861328,-147.705078125,303.03955078125,18.61572265625
4.436376094818115,-1266451151,0,1.4026976823806763,-1.1231112480163574,-0.4111955463886261,313.4765625,152.77099609375,104.1259765625
4.436385154724121,-1266451132,0,1.3316527605056763,-1.2639803886413574,-0.4602678120136261,339.41650390625,130.37109375,93.20068359375
4.441269159317017,-1266451151,1,-0.4337117075920105,-0.2011931836605072,0.7337665557861328,-195.61767578125,289.12353515625,-0.1220703125
4.44127631187439,-1266451132,1,-0.4525105357170105,-0.4223845899105072,0.8394794464111328,-157.89794921875,321.77734375,-61.5234375
4.455043077468872,-1266451113,0,1.3997679948806763,-1.3098788261413574,-0.4556291401386261,373.046875,104.67529296875,86.3037109375
4.4623212814331055,-1266451113,1,-0.6693074107170105,-0.3757537305355072,0.8409442901611328,-92.28515625,351.13525390625,-151.9775390625
4.494042158126831,-1266451094,0,1.4776488542556763,-1.2944979667663574,-0.4336564838886261,380.67626953125,97.65625,80.4443359375
4.494051218032837,-1266451075,0,1.5596801042556763,-1.3267245292663574,-0.4404924213886261,351.01318359375,109.4970703125,67.138671875
4.494617223739624,-1266451094,1,-0.7694050669670105,-0.3962615430355072,0.7608661651611328,-111.083984375,340.576171875,-196.71630859375
4.494636058807373,-1266451075,1,-0.5054890513420105,-0.9880583882331848,0.9090595245361328,-141.4794921875,344.6044921875,-269.95849609375
4.517557144165039,-1266451056,0,1.6685668230056763,-1.3799471855163574,-0.5562150478363037,304.6875,115.66162109375,46.630859375
4.536339044570923,-1266451056,1,-0.5677449107170105,-1.3144744634628296,1.1082782745361328,-75.13427734375,373.22998046875,-397.216796875
4.54509425163269,-1266451037,0,1.6985961198806763,-1.3257479667663574,-0.6951310634613037,283.0810546875,85.51025390625,23.3154296875
4.545250177383423,-1266451018,0,1.6317015886306763,-1.2554354667663574,-0.8504045009613037,243.896484375,11.77978515625,-8.11767578125
4.552441120147705,-1266451037,1,-0.8797566294670105,-1.3423064947128296,1.2984638214111328,2.13623046875,345.15380859375,-575.0732421875
4.552535057067871,-1266451018,1,-1.1407430171966553,-1.3562225103378296,1.5477313995361328,27.03857421875,262.87841796875,-699.21875
4.5887041091918945,-1266450999,1,-1.3907430171966553,-1.5119842290878296,1.8021259307861328,90.88134765625,191.5283203125,-773.8037109375
4.588712930679321,-1266450980,1,-1.6668660640716553,-1.6413787603378296,2.026735305786133,195.98388671875,158.26416015625,-829.16259765625
4.605229139328003,-1266450999,0,1.4202758073806763,-1.6316561698913574,-0.9270646572113037,141.78466796875,-47.91259765625,-8.48388671875
4.605315208435059,-1266450980,0,1.1009398698806763,-1.9981112480163574,-1.0191056728363037,91.6748046875,-83.67919921875,26.06201171875
4.606309175491333,-1266450961,0,1.0467406511306763,-1.6035799980163574,-0.8032853603363037,126.15966796875,-128.60107421875,90.02685546875
4.612605094909668,-1266450961,1,-2.2513387203216553,-1.3374236822128296,2.372682571411133,355.224609375,62.56103515625,-839.53857421875
4.638768196105957,-1266450942,0,1.2110472917556763,-0.5730624794960022,-0.4871232807636261,140.869140625,-129.150390625,51.025390625
4.642347097396851,-1266450942,1,-2.6844441890716553,-0.7807829976081848,2.357301712036133,445.9228515625,-93.20068359375,-698.486328125
4.66487193107605,-1266450906,0,1.2693969011306763,-0.8186679482460022,0.3859235942363739,83.984375,-24.47509765625,-267.15087890625
4.683320045471191,-1266450906,1,-2.6556355953216553,-1.3445037603378296,2.059938430786133,544.0673828125,-165.95458984375,-324.76806640625
4.694921016693115,-1266450887,0,1.0359984636306763,-0.9607577919960022,0.3842146098613739,70.3125,16.11328125,-305.419921875
4.695091009140015,-1266450868,0,0.8411741852760315,-0.7630038857460022,0.4144880473613739,87.646484375,-23.8037109375,-286.56005859375
4.702304124832153,-1266450887,1,-2.8196980953216553,-1.7212127447128296,1.9442157745361328,577.57568359375,-160.888671875,-184.4482421875
4.702424049377441,-1266450868,1,-2.8475301265716553,-1.7268279790878296,1.8353290557861328,477.5390625,-229.18701171875,-73.6083984375
4.735326051712036,-1266450849,0,1.1107054948806763,-0.3413729965686798,0.6500837802886963,99.7314453125,-70.4345703125,-321.10595703125
4.741141080856323,-1266450849,1,-2.7381551265716553,-1.6601775884628296,1.7701435089111328,451.66015625,-223.5107421875,-22.76611328125
4.741147994995117,-1266450830,1,-2.6409871578216553,-1.3374236822128296,1.7071552276611328,457.70263671875,-176.3916015625,52.8564453125
4.755130290985107,-1266450830,0,1.4246703386306763,-0.182925745844841,0.7328474521636963,98.20556640625,-70.25146484375,-426.08642578125
4.7552361488342285,-1266450811,0,1.4090453386306763,-0.6277499794960022,0.7648298740386963,93.3837890625,-29.72412109375,-501.5869140625
4.762448310852051,-1266450811,1,-2.3570516109466553,-1.2514861822128296,1.7679462432861328,434.14306640625,-156.43310546875,159.423828125
4.790712118148804,-1266450792,0,0.9993773102760315,-0.9099765419960022,0.5409529209136963,60.9130859375,-12.6953125,-481.93359375
4.790719985961914,-1266450773,0,0.7286253571510315,-0.8980136513710022,0.2421247661113739,62.255859375,-41.6259765625,-405.09033203125
4.792590141296387,-1266450792,1,-2.0794637203216553,-1.4236053228378296,2.075563430786133,422.18017578125,-168.02978515625,243.2861328125
4.792657136917114,-1266450773,1,-1.9378621578216553,-1.3652557134628296,1.9520282745361328,421.630859375,-178.3447265625,271.30126953125
4.814828157424927,-1266450754,0,0.6526976227760315,-0.6887851357460022,0.0936872735619545,88.56201171875,-84.77783203125,-351.4404296875
4.834819078445435,-1266450754,1,-1.7813680171966553,-1.1958221197128296,1.4678974151611328,384.033203125,-146.42333984375,287.2314453125
4.845074892044067,-1266450735,0,0.8194456696510315,-0.5994296669960022,-0.0335099920630455,76.2939453125,-113.34228515625,-356.5673828125
4.845188140869141,-1266450716,0,0.8990355134010315,-0.7918124794960022,0.1906110942363739,31.43310546875,-107.84912109375,-364.013671875
4.852347135543823,-1266450735,1,-1.1883504390716553,-1.1811736822128296,1.1849384307861328,348.876953125,-45.34912109375,254.150390625
4.85242223739624,-1266450716,1,-0.6251179575920105,-0.9968474507331848,1.2799091339111328,330.01708984375,42.96875,186.1572265625
4.884297132492065,-1266450697,0,0.9534788727760315,-0.8601718544960022,0.0971052423119545,-41.259765625,-67.56591796875,-355.65185546875
4.888380289077759,-1266450697,1,-1.2703816890716553,-0.3386443555355072,1.4901142120361328,339.9658203125,72.1435546875,250.3662109375
4.906438112258911,-1266450678,0,0.9305296540260315,-0.7415195107460022,-0.1077287420630455,-59.2041015625,-52.8564453125,-335.0830078125
4.912714958190918,-1266450678,1,-0.9063679575920105,-0.4350799024105072,1.4239521026611328,296.0205078125,-7.568359375,426.7578125
4.93831205368042,-1266450642,0,1.0704222917556763,-0.7537265419960022,-0.1306779682636261,-96.00830078125,-146.17919921875,-390.2587890625
4.938319206237793,-1266450623,0,1.0628539323806763,-0.8716464638710022,0.1268903911113739,-122.0703125,-156.31103515625,-377.74658203125
4.94233512878418,-1266450642,1,0.2471964955329895,-0.7361052632331848,1.6920185089111328,481.62841796875,-49.9267578125,95.947265625
4.942357063293457,-1266450623,1,-1.3956258296966553,0.5734650492668152,0.2398700714111328,268.5546875,-31.494140625,372.25341796875
4.964930057525635,-1266450604,0,0.8812132477760315,-0.8450351357460022,0.1820661723613739,-160.15625,-141.845703125,-328.79638671875
4.985008239746094,-1266450604,1,-0.9500691294670105,-0.9201872944831848,0.7547626495361328,219.42138671875,62.01171875,469.1162109375
4.9950761795043945,-1266450585,0,0.8035765290260315,-0.7178378701210022,0.0980818048119545,-167.6025390625,-177.30712890625,-311.03515625
4.995214223861694,-1266450566,0,0.9107542634010315,-0.8538241982460022,0.2257673442363739,-196.044921875,-250.42724609375,-319.27490234375
5.002366065979004,-1266450585,1,-0.6321980357170105,-1.2832244634628296,1.1322040557861328,268.73779296875,114.1357421875,421.20361328125
5.002474069595337,-1266450566,1,-0.1793171763420105,-1.1596893072128296,0.8787860870361328,196.22802734375,62.07275390625,289.36767578125
5.037241220474243,-1266450547,0,0.9112425446510315,-0.9942050576210022,0.4530622661113739,-233.94775390625,-286.865234375,-282.958984375
5.040635108947754,-1266450547,1,-0.1043660044670105,-0.6230681538581848,0.3172626495361328,162.78076171875,89.90478515625,200.98876953125
5.055130243301392,-1266450528,0,0.8753538727760315,-0.8843417763710022,0.5233747959136963,-258.72802734375,-304.6875,-206.23779296875
5.055207014083862,-1266450509,0,1.0411254167556763,-0.6460605263710022,0.4913923442363739,-279.35791015625,-370.4833984375,-173.15673828125
5.062375068664551,-1266450528,1,-0.3035847544670105,-0.2859099805355072,-0.1827373504638672,118.83544921875,168.3349609375,222.900390625
5.062507152557373,-1266450509,1,-0.4271199107170105,-0.6530974507331848,-0.1993389129638672,47.05810546875,214.05029296875,293.212890625
5.091567277908325,-1266450490,0,1.4000121355056763,-0.6712070107460022,0.5751326084136963,-329.9560546875,-468.6279296875,-193.78662109375
5.0915751457214355,-1266450471,0,1.6959105730056763,-0.8538241982460022,0.8261091709136963,-376.0986328125,-513.3056640625,-208.6181640625
5.113984107971191,-1266450452,0,1.9920531511306763,-1.0213046073913574,1.0885603427886963,-440.12451171875,-516.6015625,-180.96923828125
5.124177932739258,-1266450490,1,0.057987507432699203,-1.4367889165878296,0.05310250073671341,-37.2314453125,209.65576171875,293.3349609375
5.135295152664185,-1266450471,1,0.6214640736579895,-1.5522674322128296,0.07556343823671341,-42.1142578125,234.43603515625,174.560546875
5.135302305221558,-1266450452,1,0.4710734486579895,-0.9592497944831848,-0.09191703051328659,-36.68212890625,282.04345703125,93.26171875
5.145090103149414,-1266450433,0,2.3611936569213867,-1.0366854667663574,1.2765486240386963,-483.5205078125,-534.66796875,-185.36376953125
5.145153999328613,-1266450414,0,2.9293088912963867,-1.2713046073913574,1.6554548740386963,-524.47509765625,-558.77685546875,-265.380859375
5.152270078659058,-1266450433,1,0.1536906361579895,-0.7287810444831848,-0.09118460863828659,-110.77880859375,304.26025390625,109.0087890625
5.152388095855713,-1266450414,1,-0.1243855357170105,-1.1194061040878296,0.3079853057861328,-222.83935546875,322.93701171875,154.052734375
5.187345266342163,-1266450378,1,-0.2293660044670105,-1.7016814947128296,0.7362079620361328,-289.73388671875,274.71923828125,161.9873046875
5.205410003662109,-1266450378,0,2.5281858444213867,-1.8269686698913574,2.2743513584136963,-564.27001953125,-380.615234375,-335.75439453125
5.212526082992554,-1266450359,1,-0.5191609263420105,-1.8708709478378296,0.7298603057861328,-368.65234375,232.0556640625,184.63134765625
5.237666130065918,-1266450359,0,2.1263303756713867,-1.8181796073913574,2.3898298740386963,-434.326171875,-335.38818359375,-283.99658203125
5.23767614364624,-1266450340,0,2.3619260787963867,-1.3313632011413574,2.3959333896636963,-294.61669921875,-452.7587890625,-300.78125
5.237683057785034,-1266450321,0,2.3636350631713867,-1.5960116386413574,3.0624372959136963,-322.509765625,-471.19140625,-327.69775390625
5.242234230041504,-1266450340,1,-1.0045125484466553,-2.35695481300354,0.7662372589111328,-432.0068359375,258.056640625,206.787109375
5.242350101470947,-1266450321,1,-1.5782430171966553,-2.76515793800354,1.1876239776611328,-435.24169921875,271.728515625,186.279296875
5.2648820877075195,-1266450302,0,2.1529417037963867,-1.8638339042663574,3.1491072177886963,-404.9072265625,-342.83447265625,-274.169921875
5.2819859981536865,-1266450302,1,-2.1099812984466553,-2.55031418800354,1.4696063995361328,-463.92822265625,226.1962890625,165.46630859375
5.295117139816284,-1266450283,0,1.7918578386306763,-1.6233553886413574,2.7489607334136963,-509.94873046875,-213.134765625,-307.7392578125
5.295128107070923,-1266450264,0,1.4129515886306763,-1.6958651542663574,2.7374861240386963,-505.126953125,-160.64453125,-417.1142578125
5.302356958389282,-1266450283,1,-2.7266805171966553,-1.7878631353378296,1.7371845245361328,-541.56494140625,55.5419921875,283.8134765625
5.302476167678833,-1266450264,1,-2.5428426265716553,-2.14919114112854,1.4027118682861328,-709.16748046875,-247.4365234375,559.75341796875
5.333888053894043,-1266450245,0,1.2706176042556763,-2.2180819511413574,2.7164900302886963,-411.31591796875,-132.62939453125,-453.4912109375
5.3379058837890625,-1266450245,1,-1.8016316890716553,-3.08058762550354,1.0011005401611328,-663.51318359375,-426.6357421875,636.5966796875
5.355047941207886,-1266450226,0,0.9678831696510315,-2.4387850761413574,2.8685896396636963,-316.0400390625,-85.02197265625,-458.3740234375
5.355179071426392,-1266450207,0,0.8272581696510315,-2.3443026542663574,2.3397810459136963,-296.9970703125,29.72412109375,-407.2265625
5.362536907196045,-1266450226,1,-1.8582723140716553,-2.39504075050354,0.9315204620361328,-512.39013671875,-367.24853515625,577.392578125
5.362646102905273,-1266450207,1,-2.1075398921966553,-1.5320037603378296,1.6153583526611328,-312.98828125,-217.71240234375,621.88720703125
5.389254093170166,-1266450188,0,0.8726683259010315,-1.9417147636413574,2.8038923740386963,-187.19482421875,140.380859375,-414.9169921875
5.3924560546875,-1266450188,1,-2.4600789546966553,-1.9406951665878296,1.8162860870361328,-219.8486328125,-164.97802734375,681.82373046875
5.392560243606567,-1266450169,1,-2.2564656734466553,-2.10207200050354,2.007448196411133,-183.28857421875,-203.18603515625,701.59912109375
5.414957046508789,-1266450169,0,0.9483519196510315,-1.6922030448913574,1.8102400302886963,-21.97265625,132.080078125,-400.634765625
5.415015935897827,-1266450150,0,0.6148558259010315,-0.9968906044960022,1.2706892490386963,51.6357421875,126.5869140625,-343.26171875
5.434998035430908,-1266450150,1,0.3162882924079895,-2.06960129737854,2.370729446411133,-102.11181640625,-273.13232421875,524.84130859375
5.444875001907349,-1266450114,0,0.8314085602760315,-0.5183749794960022,1.6115095615386963,184.14306640625,122.00927734375,-189.88037109375
5.452089071273804,-1266450114,1,-1.0733602046966553,-1.8503631353378296,1.4896259307861328,-203.55224609375,-338.43994140625,739.1357421875
5.484490156173706,-1266450095,0,0.7679319977760315,-0.4448886215686798,1.3722517490386963,339.29443359375,204.58984375,-177.18505859375
5.488539934158325,-1266450095,1,-2.3411824703216553,-2.66676926612854,1.6019306182861328,116.3330078125,-263.73291015625,571.533203125
5.505296230316162,-1266450076,0,0.7195921540260315,0.138607457280159,0.2064802348613739,302.91748046875,210.38818359375,-175.96435546875
5.505408048629761,-1266450057,0,-0.027233999222517014,-0.9978671669960022,0.2467634379863739,143.9208984375,169.189453125,-111.083984375
5.512861967086792,-1266450076,1,-2.8922078609466553,-1.7505096197128296,-1.4097881317138672,91.9189453125,-178.77197265625,438.41552734375
5.513000965118408,-1266450057,1,-0.4183308482170105,-0.2680877149105072,1.4290790557861328,119.2626953125,-276.42822265625,441.58935546875
5.537363052368164,-1266450038,0,-0.0023316554725170135,-0.5359531044960022,0.4293806254863739,210.8154296875,112.548828125,-10.80322265625
5.542629241943359,-1266450038,1,-3.1827352046966553,-1.0703338384628296,1.5150165557861328,204.40673828125,-280.09033203125,544.921875
5.5426530838012695,-1266450019,1,-2.0281941890716553,-1.1897186040878296,1.7640399932861328,447.44873046875,-254.33349609375,495.1171875
5.5648839473724365,-1266450019,0,0.7115355134010315,1.0480313301086426,-0.2927873432636261,267.51708984375,146.240234375,-93.017578125
5.565004110336304,-1266450000,0,0.027453500777482986,-0.183414027094841,0.2919294536113739,370.05615234375,101.1962890625,-177.6123046875
5.584173202514648,-1266450000,1,-2.1773641109466553,-1.0686248540878296,1.5179462432861328,562.56103515625,-255.79833984375,476.37939453125
5.599165916442871,-1266449981,0,0.3145628869533539,0.058041054755449295,0.2689802348613739,521.3623046875,49.560546875,-202.45361328125
5.599175930023193,-1266449962,0,0.2610960900783539,0.088070347905159,0.1661970317363739,595.39794921875,84.65576171875,-211.12060546875
5.602449893951416,-1266449981,1,-1.9359090328216553,-0.8647673726081848,1.3682880401611328,441.10107421875,-277.7099609375,451.416015625
5.602619171142578,-1266449962,1,-1.6053426265716553,-0.9221404194831848,1.3819599151611328,311.03515625,-307.7392578125,403.4423828125
5.6377410888671875,-1266449943,1,-1.3067586421966553,-0.9294646382331848,1.4766864776611328,204.4677734375,-334.41162109375,300.23193359375
5.655341148376465,-1266449943,0,0.4798460900783539,0.162533238530159,0.0018903985619544983,586.5478515625,99.42626953125,-191.22314453125
5.655524253845215,-1266449924,0,0.6099730134010315,0.3055996596813202,-0.2310197651386261,522.3388671875,127.9296875,-206.11572265625
5.65554404258728,-1266449905,0,0.4620238244533539,0.157406285405159,-0.1968400776386261,462.2802734375,161.1328125,-175.72021484375
5.6622819900512695,-1266449924,1,-1.2960164546966553,-0.8950408101081848,1.6070575714111328,152.2216796875,-360.7177734375,183.9599609375
5.662358999252319,-1266449905,1,-1.6480672359466553,-0.9092009663581848,1.7498798370361328,96.25244140625,-413.2080078125,74.03564453125
5.688985109329224,-1266449886,0,0.2513304650783539,0.173519566655159,-0.2630021870136261,402.16064453125,196.35009765625,-75.01220703125
5.692476987838745,-1266449886,1,-1.8511922359466553,-0.7920134663581848,1.7567157745361328,52.24609375,-478.69873046875,-13.97705078125
5.714991092681885,-1266449850,0,0.3311644494533539,-0.204898402094841,-0.1663224995136261,462.0361328125,170.10498046875,13.916015625
5.734153985977173,-1266449850,1,-1.8673055171966553,-0.6123259663581848,1.7789325714111328,45.8984375,-544.189453125,-109.55810546875
5.744860887527466,-1266449831,0,0.5433226227760315,-0.4136386215686798,0.1078474298119545,565.24658203125,105.712890625,15.2587890625
5.744985103607178,-1266449812,0,0.6378050446510315,-0.7402988076210022,0.5536482334136963,500.42724609375,209.8388671875,92.10205078125
5.752293109893799,-1266449831,1,-1.9859578609466553,-0.9092009663581848,1.6746845245361328,81.9091796875,-545.2880859375,-171.5087890625
5.752360105514526,-1266449812,1,-2.1871297359466553,-0.7890837788581848,1.5738544464111328,106.99462890625,-507.080078125,-229.1259765625
5.785717964172363,-1266449793,0,0.9986448884010315,-1.0242342948913574,0.4386579692363739,390.7470703125,376.15966796875,187.19482421875
5.7897021770477295,-1266449793,1,-2.7442586421966553,-0.1921599805355072,1.8148212432861328,102.60009765625,-492.3095703125,-229.6142578125
5.805315256118774,-1266449774,0,1.4405394792556763,-1.2263827323913574,0.0309431329369545,310.24169921875,479.67529296875,287.9638671875
5.805418968200684,-1266449755,0,1.9576293230056763,-1.3682284355163574,-0.1958635151386261,339.17236328125,465.27099609375,377.50244140625
5.814642906188965,-1266449774,1,-2.9022176265716553,-0.044699039310216904,2.142457962036133,113.4033203125,-548.095703125,-181.33544921875
5.814652919769287,-1266449755,1,-2.8724324703216553,-0.1487029492855072,2.262819290161133,172.4853515625,-551.69677734375,-213.68408203125
5.837757110595703,-1266449736,0,2.4754514694213867,-1.4336581230163574,-0.2520158588886261,403.38134765625,468.75,466.97998046875
5.842220067977905,-1266449736,1,-3.3463094234466553,0.1742950975894928,2.401002883911133,283.3251953125,-494.2626953125,-279.1748046875
5.864851951599121,-1266449717,0,2.7115354537963867,-1.4192538261413574,-0.3858049213886261,417.29736328125,493.2861328125,519.10400390625
5.864959955215454,-1266449698,0,2.9869260787963867,-1.4580721855163574,-0.4077775776386261,386.5966796875,498.779296875,528.80859375
5.883278131484985,-1266449717,1,-4.641475200653076,1.2699981927871704,2.696657180786133,296.38671875,-506.77490234375,-240.966796875
5.883285999298096,-1266449698,1,-4.689326763153076,1.0685821771621704,2.448610305786133,217.83447265625,-580.56640625,-52.30712890625
5.894876003265381,-1266449679,0,2.8567991256713867,-1.6033358573913574,-0.3975236713886261,358.2763671875,455.01708984375,487.060546875
5.902281045913696,-1266449679,1,-4.162959575653076,-0.0674041211605072,2.137575149536133,200.8056640625,-565.4296875,-36.68212890625
5.935089111328125,-1266449660,0,2.6885862350463867,-1.8191561698913574,-0.3731096088886261,370.60546875,407.40966796875,453.79638671875
5.935096025466919,-1266449641,0,2.2930784225463867,-1.8008456230163574,-0.0488908514380455,373.1689453125,304.38232421875,419.61669921875
5.938129186630249,-1266449660,1,-4.115840435028076,-0.5009978413581848,1.8228778839111328,330.26123046875,-491.69921875,-126.15966796875
5.938135147094727,-1266449641,1,-4.589717388153076,-0.5005095601081848,1.4781513214111328,423.33984375,-473.20556640625,-107.97119140625
5.954782962799072,-1266449622,0,2.0511350631713867,-1.8325839042663574,0.1102888360619545,397.03369140625,204.2236328125,355.46875
5.962234258651733,-1266449622,1,-4.747920513153076,-0.7422087788581848,1.1512470245361328,440.24658203125,-477.9052734375,-18.9208984375
5.9874420166015625,-1266449586,0,1.4217406511306763,-1.9422030448913574,0.2050153911113739,429.74853515625,145.1416015625,191.10107421875
5.992223024368286,-1266449586,1,-4.318721294403076,-0.8879607319831848,0.6041278839111328,481.38427734375,-354.79736328125,26.611328125
6.015089988708496,-1266449567,0,1.2435179948806763,-2.1079745292663574,0.1803571879863739,430.11474609375,159.1796875,187.68310546875
6.015205144882202,-1266449548,0,1.4935179948806763,-1.8777499198913574,-0.014467023313045502,475.7080078125,105.8349609375,161.19384765625
6.0344390869140625,-1266449567,1,-4.322627544403076,-0.7256072163581848,0.08874703198671341,441.2841796875,-289.306640625,120.42236328125
6.0344531536102295,-1266449548,1,-4.022090435028076,-1.0200408697128296,-0.6131572723388672,405.2734375,-191.2841796875,145.99609375
6.044755935668945,-1266449529,0,1.6663695573806763,-1.3325839042663574,-0.0249650701880455,492.00439453125,55.11474609375,26.55029296875
6.052315950393677,-1266449529,1,-3.6312215328216553,-1.1228240728378296,-1.4239482879638672,357.0556640625,-45.166015625,195.00732421875
6.052412271499634,-1266449510,1,-3.0484578609466553,-1.1267303228378296,-1.5401592254638672,271.3623046875,50.10986328125,227.783203125
6.086740016937256,-1266449510,0,1.1780883073806763,-1.4937167167663574,0.1544782817363739,383.72802734375,59.99755859375,-140.7470703125
6.086750030517578,-1266449491,0,0.5357542634010315,-1.8682284355163574,0.0946638360619545,320.80078125,91.064453125,-187.56103515625
6.09112024307251,-1266449491,1,-2.8485066890716553,-0.8349822163581848,-1.5433330535888672,230.3466796875,153.50341796875,245.9716796875
6.105461120605469,-1266449472,0,0.4434691369533539,-1.7427401542663574,-0.0156877264380455,306.884765625,93.68896484375,-194.39697265625
6.105584144592285,-1266449453,0,0.1954222470521927,-1.3616366386413574,0.3488142192363739,332.21435546875,59.9365234375,-215.02685546875
6.11313009262085,-1266449472,1,-2.5613973140716553,-0.7619841694831848,-1.2750225067138672,174.62158203125,260.19287109375,272.3388671875
6.113235950469971,-1266449453,1,-2.2532918453216553,-0.8239958882331848,-0.9454326629638672,146.91162109375,332.09228515625,265.625
6.139173269271851,-1266449434,0,-1.9110230207443237,-2.7962069511413574,0.6420271396636963,271.54541015625,-58.65478515625,62.255859375
6.163983106613159,-1266449415,0,0.2503539025783539,0.5338711142539978,1.8842146396636963,590.14892578125,-158.50830078125,247.1923828125
6.16490912437439,-1266449396,0,1.7227660417556763,2.1122403144836426,1.3073103427886963,288.0859375,90.88134765625,-332.21435546875
6.182593107223511,-1266449434,1,-1.9224812984466553,-0.8501189351081848,-1.0914287567138672,101.37939453125,388.00048828125,263.00048828125
6.182600975036621,-1266449415,1,-1.7098348140716553,-0.8313201069831848,-1.1075420379638672,46.32568359375,409.5458984375,260.009765625
6.1949992179870605,-1266449377,0,0.3477660119533539,-1.1543612480163574,2.3141462802886963,302.8564453125,80.13916015625,-671.5087890625
6.204151153564453,-1266449396,1,-1.7445027828216553,-0.6460173726081848,-1.1109600067138672,-0.3662109375,471.3134765625,283.0810546875
6.204161167144775,-1266449377,1,-2.0706746578216553,-0.8491423726081848,-0.7198467254638672,-17.333984375,553.3447265625,289.00146484375
6.204166889190674,-1266449358,1,-1.8936727046966553,-0.8467009663581848,-0.05187796801328659,-16.11328125,584.8388671875,249.69482421875
6.234604120254517,-1266449358,0,-0.6251344084739685,-1.6572909355163574,1.2951033115386963,158.14208984375,112.36572265625,-441.7724609375
6.254186153411865,-1266449322,0,0.8538694977760315,0.6373867392539978,1.0158064365386963,106.5673828125,-112.48779296875,-168.51806640625
6.2548980712890625,-1266449303,0,0.8380003571510315,0.2887539565563202,0.6347029209136963,113.34228515625,-71.1669921875,-359.68017578125
6.262564182281494,-1266449322,1,-2.2987020015716553,-1.0713104009628296,0.9652118682861328,-177.42919921875,499.3896484375,169.49462890625
6.262648105621338,-1266449303,1,-2.3760945796966553,-1.3977264165878296,1.0177021026611328,-272.88818359375,463.623046875,161.19384765625
6.288159132003784,-1266449284,0,0.4080687463283539,-0.2883944809436798,0.2831403911113739,99.609375,-24.7802734375,-547.2412109375
6.292245149612427,-1266449284,1,-2.6597859859466553,-2.25319504737854,1.3011493682861328,-355.1025390625,403.74755859375,151.0009765625
6.315415143966675,-1266449265,0,-0.3248414099216461,-1.1909823417663574,0.1671735942363739,-6.591796875,-27.587890625,-440.85693359375
6.315540075302124,-1266449246,0,-0.6444215178489685,-0.8853183388710022,-0.0723283514380455,-54.443359375,-103.45458984375,-148.37646484375
6.334522247314453,-1266449265,1,-2.1514852046966553,-2.64015793800354,1.1480731964111328,-382.080078125,346.25244140625,138.671875
6.33453106880188,-1266449246,1,-1.2808797359466553,-2.88136887550354,1.3258075714111328,-368.10302734375,352.05078125,128.7841796875
6.344815254211426,-1266449227,0,-0.4513062536716461,-0.218814417719841,-0.2747209370136261,-66.162109375,-130.126953125,-50.4150390625
6.352228164672852,-1266449227,1,-0.6710163950920105,-2.68483567237854,1.9386005401611328,-236.26708984375,332.70263671875,-0.67138671875
6.387169122695923,-1266449208,0,-0.6593140959739685,0.238216832280159,-0.7134416103363037,-155.1513671875,-77.69775390625,-149.5361328125
6.387176036834717,-1266449189,0,-0.8910035490989685,-0.6135898232460022,-0.3106096088886261,-227.294921875,-123.47412109375,-300.10986328125
6.3932459354400635,-1266449208,1,-0.8709675669670105,-1.9792693853378296,2.135133743286133,-208.55712890625,285.400390625,-54.8095703125
6.393254280090332,-1266449189,1,-0.9986531138420105,-0.8593962788581848,1.6817646026611328,-362.060546875,326.66015625,13.97705078125
6.405274152755737,-1266449170,0,-1.0865601301193237,-1.6734042167663574,1.3685896396636963,-177.55126953125,-183.53271484375,-159.72900390625
6.405408143997192,-1266449151,0,-1.0265015363693237,-1.6045565605163574,1.2191755771636963,-167.8466796875,-162.04833984375,84.28955078125
6.412872076034546,-1266449170,1,-0.4219929575920105,-0.6684783101081848,2.001832962036133,-528.076171875,317.81005859375,-53.22265625
6.412912130355835,-1266449151,1,-0.3157917857170105,-0.1748259961605072,2.437135696411133,-619.44580078125,220.703125,-109.2529296875
6.440812110900879,-1266449132,0,-0.3697632849216461,-1.0015292167663574,1.0326521396636963,-190.91796875,-148.8037109375,215.27099609375
6.442228078842163,-1266449132,1,-0.5823933482170105,-0.1047576367855072,3.085817337036133,-611.328125,191.22314453125,-126.77001953125
6.466536045074463,-1266449113,0,0.3284789025783539,-0.7505527138710022,0.8761579990386963,-227.72216796875,-156.1279296875,90.02685546875
6.466623067855835,-1266449094,0,0.9454222321510315,-1.1948885917663574,1.3038923740386963,-334.41162109375,-110.4736328125,-103.6376953125
6.483954906463623,-1266449113,1,0.3397257924079895,0.6266877055168152,4.216920852661133,-633.7890625,201.66015625,207.03125
6.483964204788208,-1266449094,1,0.5789836049079895,1.3146759271621704,5.888551712036133,-231.87255859375,285.82763671875,304.74853515625
6.501391172409058,-1266449058,1,-1.5098836421966553,-0.0935271680355072,5.292116165161133,-100.5859375,33.447265625,514.0380859375
6.534603118896484,-1266449058,0,1.3917113542556763,-1.6524081230163574,1.3024275302886963,-530.1513671875,13.97705078125,-114.92919921875
6.534617185592651,-1266449039,0,1.9214965105056763,-1.4658846855163574,0.6535017490386963,-590.02685546875,57.6171875,-124.81689453125
6.537213087081909,-1266449039,1,-1.2950398921966553,-2.33937668800354,4.189088821411133,-61.1572265625,-94.6044921875,540.4052734375
6.556678295135498,-1266449020,0,2.3218870162963867,-1.3533358573913574,0.7372419834136963,-643.73779296875,47.79052734375,-225.89111328125
6.556811094284058,-1266449001,0,2.5198850631713867,-1.6126132011413574,0.9132673740386963,-736.572265625,88.68408203125,-357.177734375
6.564050912857056,-1266449020,1,-0.9969441294670105,-3.02638840675354,3.206422805786133,87.0361328125,-163.26904296875,538.2080078125
6.564122200012207,-1266449001,1,-0.5418660044670105,-2.60988450050354,2.931520462036133,272.216796875,-186.1572265625,516.4794921875
6.587785959243774,-1266448982,0,2.3734006881713867,-2.1543612480163574,1.0116560459136963,-776.0009765625,165.95458984375,-438.78173828125
6.5946221351623535,-1266448982,1,-1.1707723140716553,-1.7822479009628296,2.097291946411133,501.40380859375,-240.966796875,439.94140625
6.6154561042785645,-1266448963,0,2.2942991256713867,-2.2988924980163574,0.8109724521636963,-735.4736328125,188.04931640625,-509.09423828125
6.615567207336426,-1266448944,0,2.4539670944213867,-1.6111483573913574,1.1288435459136963,-703.30810546875,181.884765625,-650.81787109375
6.634253025054932,-1266448963,1,-0.4051472544670105,-2.43117356300354,2.373414993286133,525.69580078125,-201.96533203125,403.74755859375
6.634261131286621,-1266448944,1,-0.9598347544670105,-1.7863982915878296,1.2996845245361328,486.14501953125,-186.6455078125,444.091796875
6.644719123840332,-1266448925,0,2.9376096725463867,-2.8919100761413574,1.7011091709136963,-685.9130859375,282.89794921875,-771.97265625
6.652160167694092,-1266448925,1,-0.8311726450920105,-0.8889372944831848,0.6766376495361328,314.75830078125,-85.63232421875,543.5791015625
6.689685106277466,-1266448906,1,0.4281046986579895,-2.45924973487854,2.922731399536133,456.35986328125,-123.291015625,310.24169921875
6.689692974090576,-1266448887,1,-0.5211140513420105,-1.6845916509628296,1.6119403839111328,448.6083984375,-282.958984375,160.82763671875
6.7049400806427,-1266448906,0,2.2164182662963867,-3.0674471855163574,1.9977400302886963,-524.4140625,419.921875,-735.3515625
6.705044984817505,-1266448887,0,1.8543578386306763,-2.2793612480163574,0.9965193271636963,-321.77734375,438.4765625,-675.72021484375
6.712729215621948,-1266448868,1,-0.9603230357170105,-0.9687712788581848,0.10852242261171341,244.384765625,-263.0615234375,251.89208984375
6.712826251983643,-1266448849,1,0.8475382924079895,-2.04640793800354,0.5384540557861328,71.1669921875,-118.896484375,113.09814453125
6.74325704574585,-1266448868,0,2.3907346725463867,-1.4971346855163574,0.1459333598613739,-299.072265625,336.73095703125,-683.04443359375
6.743269205093384,-1266448849,0,1.7051879167556763,-0.6953769326210022,-0.5476701259613037,-311.46240234375,303.22265625,-698.91357421875
6.7438061237335205,-1266448830,1,0.5907023549079895,-1.5371307134628296,1.4622821807861328,196.2890625,-157.77587890625,-218.32275390625
6.76491904258728,-1266448830,0,0.7613402009010315,-2.4810214042663574,1.5155622959136963,-5.06591796875,407.65380859375,-561.46240234375
6.765036106109619,-1266448794,0,0.3851195275783539,-2.5088534355163574,1.9872419834136963,118.408203125,258.36181640625,-708.8623046875
6.782804012298584,-1266448794,1,-0.051631633192300797,-0.6892302632331848,0.1886005401611328,249.08447265625,-229.736328125,-183.59375
6.794934988021851,-1266448775,0,2.2838010787963867,-0.8215976357460022,1.6281111240386963,608.88671875,203.2470703125,-578.67431640625
6.802141904830933,-1266448775,1,-0.1951863169670105,-0.4812224805355072,0.006959922611713409,354.736328125,-121.2158203125,-155.82275390625
6.834968090057373,-1266448756,0,1.9085570573806763,-1.1362948417663574,1.0951521396636963,492.919921875,331.35986328125,-469.78759765625
6.834975004196167,-1266448737,0,1.5811644792556763,-0.8262363076210022,0.8473494052886963,383.4228515625,321.2890625,-337.2802734375
6.838256120681763,-1266448756,1,-0.0823933482170105,-0.3977263867855072,-0.09264945238828659,356.8115234375,-89.35546875,-144.1650390625
6.8382651805877686,-1266448737,1,0.054325398057699203,-0.4206756055355072,-0.1915264129638672,336.3037109375,-70.00732421875,-135.68115234375
6.854748010635376,-1266448718,0,1.3831664323806763,-0.5466952919960022,0.8942244052886963,296.5087890625,307.92236328125,-273.74267578125
6.862237930297852,-1266448718,1,0.0650675892829895,-0.4094451367855072,-0.3817119598388672,363.58642578125,-35.400390625,-129.57763671875
6.862337112426758,-1266448699,1,0.1424601674079895,-0.3654998242855072,-0.6561260223388672,358.70361328125,-37.17041015625,-170.41015625
6.887202024459839,-1266448699,0,1.1583129167556763,-0.4451327621936798,0.9288923740386963,205.9326171875,302.30712890625,-255.615234375
6.887210130691528,-1266448680,0,1.1478148698806763,-0.3587069809436798,1.0187361240386963,185.6689453125,310.85205078125,-187.01171875
6.892487049102783,-1266448680,1,0.046757038682699203,-0.4033416211605072,-0.8953838348388672,323.8525390625,-63.65966796875,-229.98046875
6.914934158325195,-1266448661,0,1.1067992448806763,-0.2542147934436798,1.0968611240386963,203.61328125,332.8857421875,-98.388671875
6.915083169937134,-1266448642,0,1.3338500261306763,-0.2793612778186798,1.0939314365386963,232.11669921875,360.107421875,-14.0380859375
6.933490991592407,-1266448661,1,-0.1971394419670105,-0.4297088086605072,-1.1634502410888672,299.49951171875,-68.603515625,-260.7421875
6.93349814414978,-1266448642,1,-0.4451863169670105,-0.4282439649105072,-1.3673076629638672,284.11865234375,-11.29150390625,-248.6572265625
6.944684028625488,-1266448623,0,1.2960082292556763,-0.232242152094841,0.9789412021636963,256.7138671875,370.42236328125,47.4853515625
6.952153205871582,-1266448623,1,-0.5494343638420105,-0.3647674024105072,-1.1419658660888672,286.376953125,68.359375,-216.30859375
6.9846789836883545,-1266448604,0,1.4337035417556763,-0.217837855219841,0.8226912021636963,276.06201171875,348.7548828125,74.3408203125
6.984687089920044,-1266448585,0,1.4349242448806763,-0.226871058344841,0.7169783115386963,306.5185546875,332.6416015625,67.3828125
6.9881370067596436,-1266448604,1,-0.5963093638420105,-0.4668181836605072,-0.8052959442138672,327.392578125,91.24755859375,-221.19140625
6.988147020339966,-1266448585,1,-0.6888386607170105,-0.4643767774105072,-0.8140850067138672,356.50634765625,65.5517578125,-250.3662109375
7.005167245864868,-1266448566,0,1.3519164323806763,-0.5127597451210022,0.6132185459136963,367.37060546875,292.05322265625,74.8291015625
7.012465953826904,-1266448566,1,-0.7725788950920105,-0.2968963086605072,-0.7010478973388672,315.97900390625,20.99609375,-236.083984375
7.039151191711426,-1266448530,0,1.4888793230056763,-0.9793124794960022,0.2802107036113739,501.0986328125,198.2421875,142.578125
7.042140960693359,-1266448530,1,-0.3912312388420105,-1.2094939947128296,-0.0028057023882865906,366.8212890625,-22.216796875,-250.42724609375
7.065068006515503,-1266448511,0,1.4822875261306763,-0.8137851357460022,0.1469099223613739,551.1474609375,155.94482421875,156.73828125
7.06518816947937,-1266448492,0,1.4642211198806763,-0.7842441201210022,-0.0620744451880455,573.91357421875,133.48388671875,86.48681640625
7.085058212280273,-1266448511,1,-0.7454792857170105,-1.5415252447128296,-0.6710186004638672,445.25146484375,-75.8056640625,-332.3974609375
7.085066080093384,-1266448492,1,-0.8294636607170105,-1.9167693853378296,-0.5164775848388672,361.75537109375,-151.42822265625,-377.13623046875
7.094860076904297,-1266448473,0,1.7000609636306763,-1.0266757011413574,-0.2124650776386261,561.1572265625,121.76513671875,25.57373046875
7.102161169052124,-1266448473,1,-0.8655964732170105,-2.38600754737854,-0.2076396942138672,381.04248046875,-168.3349609375,-410.09521484375
7.1348631381988525,-1266448454,0,1.8790160417556763,-1.2527499198913574,-0.2315080463886261,533.63037109375,145.32470703125,10.986328125
7.134871006011963,-1266448435,0,1.9202758073806763,-1.1736483573913574,-0.3682267963886261,511.16943359375,142.27294921875,-8.4228515625
7.138085126876831,-1266448454,1,-1.2701375484466553,-2.53664231300354,-0.2303447723388672,494.2626953125,-121.58203125,-467.71240234375
7.138148069381714,-1266448435,1,-1.8218953609466553,-2.33742356300354,0.1341571807861328,534.48486328125,-104.98046875,-463.07373046875
7.15618109703064,-1266448416,0,2.2093381881713867,-1.1602206230163574,-0.8152482509613037,425.78125,143.798828125,-87.890625
7.162292957305908,-1266448416,1,-2.0360066890716553,-2.36257004737854,0.7379169464111328,552.91748046875,-132.32421875,-415.34423828125
7.187107086181641,-1266448397,0,2.1780881881713867,-1.3338046073913574,-1.0208146572113037,277.83203125,108.33740234375,-101.50146484375
7.214185953140259,-1266448378,0,1.7615844011306763,-1.8955721855163574,-0.8562638759613037,267.02880859375,-15.0146484375,-42.05322265625
7.214969158172607,-1266448359,0,1.8848754167556763,-1.5081210136413574,0.4650251567363739,474.79248046875,-77.5146484375,-10.19287109375
7.215058088302612,-1266448340,0,2.1334104537963867,-0.7429843544960022,0.9176619052886963,455.50537109375,40.283203125,-148.0712890625
7.23183012008667,-1266448397,1,-2.1636922359466553,-2.62917160987854,1.1331806182861328,608.2763671875,-151.55029296875,-395.01953125
7.231837034225464,-1266448378,1,-2.2694051265716553,-2.35890793800354,1.2906513214111328,738.46435546875,-142.51708984375,-330.9326171875
7.231842041015625,-1266448359,1,-2.8900105953216553,-2.37550950050354,1.5633563995361328,787.90283203125,-151.30615234375,-168.212890625
7.231847047805786,-1266448340,1,-2.8372762203216553,-2.38942551612854,1.7803974151611328,656.55517578125,-254.0283203125,-54.74853515625
7.244765043258667,-1266448321,0,2.3460569381713867,-0.8074374794960022,0.7186872959136963,290.34423828125,168.5791015625,-369.32373046875
7.25222110748291,-1266448321,1,-2.6053426265716553,-2.51662278175354,1.6099872589111328,569.76318359375,-266.7236328125,-21.97265625
7.284359931945801,-1266448302,0,2.2571897506713867,-1.3950839042663574,0.6871931552886963,230.40771484375,157.1044921875,-458.3740234375
7.288956165313721,-1266448302,1,-2.1863973140716553,-2.57765793800354,1.3804950714111328,534.36279296875,-191.83349609375,-24.10888671875
7.305210113525391,-1266448266,0,2.0118284225463867,-1.4280428886413574,0.1649763286113739,152.28271484375,-14.83154296875,-408.8134765625
7.3124542236328125,-1266448266,1,-1.9468953609466553,-2.27882981300354,1.5130634307861328,527.34375,-58.9599609375,-18.85986328125
7.339946985244751,-1266448247,0,1.8755980730056763,-1.2822909355163574,0.5236189365386963,156.6162109375,-131.16455078125,-372.1923828125
7.33995509147644,-1266448228,0,1.8902465105056763,-1.1775546073913574,0.7850935459136963,164.24560546875,-153.1982421875,-382.568359375
7.342447280883789,-1266448247,1,-1.8485066890716553,-2.12306809425354,1.5870380401611328,461.3037109375,-68.359375,77.57568359375
7.342577219009399,-1266448228,1,-1.6695516109466553,-2.25710129737854,1.4447040557861328,409.5458984375,-61.279296875,163.63525390625
7.364687204360962,-1266448209,0,1.8226195573806763,-1.1917147636413574,0.8519880771636963,94.1162109375,-89.53857421875,-419.00634765625
7.386996030807495,-1266448209,1,-1.3917195796966553,-2.09816575050354,1.5572528839111328,414.00146484375,-36.62109375,182.18994140625
7.387003183364868,-1266448190,1,-1.2530477046966553,-2.36842942237854,1.3846454620361328,368.408203125,17.15087890625,189.8193359375
7.394891023635864,-1266448190,0,1.5467406511306763,-1.1575350761413574,0.7059919834136963,77.2705078125,-44.49462890625,-450.0732421875
7.3950042724609375,-1266448171,0,1.3660765886306763,-1.1541171073913574,0.5883162021636963,76.2939453125,-58.59375,-466.6748046875
7.402150869369507,-1266448171,1,-0.8931843638420105,-1.9736541509628296,1.3358173370361328,347.10693359375,39.6728515625,199.03564453125
7.434854984283447,-1266448152,0,1.2371703386306763,-1.5254549980163574,0.3593122661113739,62.8662109375,-59.08203125,-444.15283203125
7.435784101486206,-1266448133,0,0.9732542634010315,-1.8247714042663574,0.0285017266869545,-24.90234375,-19.83642578125,-335.51025390625
7.439337968826294,-1266448152,1,-0.5836140513420105,-1.9575408697128296,1.4122333526611328,311.82861328125,74.462890625,178.40576171875
7.439345121383667,-1266448133,1,0.9259074330329895,-0.7146208882331848,2.046266555786133,371.15478515625,60.60791015625,134.521484375
7.45853590965271,-1266448114,0,0.7750120759010315,-1.4246249198913574,-0.2420060932636261,-31.18896484375,-56.640625,-263.5498046875
7.4621901512146,-1266448114,1,-0.5653035044670105,0.045632991939783096,1.0916767120361328,460.26611328125,52.978515625,219.90966796875
7.488110065460205,-1266448095,0,0.8541136384010315,-1.0689120292663574,-0.1228654608130455,-52.978515625,-121.27685546875,-298.828125
7.488116979598999,-1266448076,0,1.0679808855056763,-1.2112460136413574,0.0438825860619545,-125.91552734375,-143.00537109375,-366.943359375
7.492247104644775,-1266448095,1,-0.7198445200920105,-0.5771697163581848,1.3299579620361328,282.958984375,-24.10888671875,467.7734375
7.4923601150512695,-1266448076,1,-0.1131550669670105,-1.0571502447128296,1.5323505401611328,383.056640625,-16.7236328125,539.24560546875
7.5147809982299805,-1266448057,0,0.9744749665260315,-1.5479159355163574,0.3861677348613739,-161.0107421875,-110.65673828125,-366.943359375
7.533795118331909,-1266448057,1,-0.1253620982170105,-1.0173553228378296,0.9478778839111328,341.1865234375,-21.66748046875,457.275390625
7.533802032470703,-1266448038,1,-0.021358195692300797,-0.9680388569831848,0.5604267120361328,264.95361328125,1.5869140625,350.7080078125
7.545051097869873,-1266448038,0,0.8096800446510315,-1.5269198417663574,0.4867536723613739,-156.982421875,-100.89111328125,-293.15185546875
7.584649085998535,-1266448002,0,1.0479613542556763,-0.8052402138710022,0.5756208896636963,-212.95166015625,-161.19384765625,-261.3525390625
7.584657907485962,-1266447983,0,1.2525511980056763,-0.7009921669960022,0.6715681552886963,-252.0751953125,-160.7666015625,-312.56103515625
7.588733911514282,-1266448002,1,-0.5242878794670105,-0.5400603413581848,-0.3485088348388672,139.70947265625,142.27294921875,234.375
7.588741302490234,-1266447983,1,-0.4271199107170105,-0.8730681538581848,-0.3861064910888672,40.52734375,195.1904296875,251.15966796875
7.606856107711792,-1266447964,0,1.2271605730056763,-0.7317538857460022,0.7057478427886963,-315.4296875,-131.34765625,-321.10595703125
7.61318826675415,-1266447964,1,0.028446491807699203,-1.0259002447128296,-0.1595439910888672,-13.85498046875,207.1533203125,205.322265625
7.641892194747925,-1266447945,1,0.2747843861579895,-0.6125701069831848,-0.2796611785888672,-46.38671875,224.4873046875,160.888671875
7.642738103866577,-1266447926,1,0.2657511830329895,-0.3381560742855072,-0.3231182098388672,-107.91015625,244.384765625,153.1982421875
7.665403127670288,-1266447945,0,1.0445433855056763,-0.5860019326210022,0.6769392490386963,-327.5146484375,-159.0576171875,-285.09521484375
7.665542125701904,-1266447926,0,1.0731078386306763,-0.4111972153186798,0.8578474521636963,-329.04052734375,-244.93408203125,-291.56494140625
7.665586948394775,-1266447907,0,1.2383910417556763,-0.4710116684436798,1.1058943271636963,-346.37451171875,-317.07763671875,-331.1767578125
7.666118860244751,-1266447888,0,1.4119750261306763,-0.5711093544960022,1.4364607334136963,-390.869140625,-392.578125,-399.0478515625
7.68489408493042,-1266447907,1,0.1815226674079895,-0.3357146680355072,-0.1258525848388672,-174.62158203125,272.705078125,172.79052734375
7.684946060180664,-1266447888,1,0.0936320424079895,-0.6396697163581848,0.3087177276611328,-213.623046875,277.587890625,183.04443359375
7.695793867111206,-1266447869,0,1.6827269792556763,-0.9236484169960022,1.6957380771636963,-442.9931640625,-448.42529296875,-451.11083984375
7.703778028488159,-1266447869,1,0.1815226674079895,-0.8506072163581848,0.5711688995361328,-236.63330078125,251.46484375,162.841796875
7.739353179931641,-1266447850,1,0.1607707142829895,-0.8615935444831848,0.6207294464111328,-256.7138671875,237.4267578125,148.681640625
7.739364147186279,-1266447831,1,-0.033809367567300797,-1.0610564947128296,0.6021747589111328,-309.4482421875,263.00048828125,169.5556640625
7.754879951477051,-1266447850,0,1.9588500261306763,-1.3960604667663574,2.0741560459136963,-464.599609375,-526.7333984375,-495.42236328125
7.754992246627808,-1266447831,0,2.0679807662963867,-1.8137850761413574,2.3519880771636963,-462.58544921875,-587.46337890625,-497.1923828125
7.756109237670898,-1266447812,0,1.9529906511306763,-2.2586092948913574,2.7382185459136963,-392.39501953125,-642.27294921875,-445.86181640625
7.7620689868927,-1266447812,1,-0.3797566294670105,-1.7986053228378296,0.9837665557861328,-335.87646484375,304.6875,194.03076171875
7.788149118423462,-1266447793,0,1.4752074480056763,-1.6702303886413574,2.9010603427886963,-233.5205078125,-687.98828125,-349.06005859375
7.788156986236572,-1266447774,0,2.6805295944213867,-2.8147616386413574,1.8309919834136963,-296.0205078125,-699.27978515625,-13.671875
7.793800115585327,-1266447793,1,-0.6959187388420105,-2.33962082862854,1.0528583526611328,-354.30908203125,246.76513671875,166.3818359375
7.793867111206055,-1266447774,1,-1.0631062984466553,-2.87502121925354,0.9412860870361328,-449.15771484375,162.17041015625,177.79541015625
7.833068132400513,-1266447738,1,-1.7928426265716553,-2.32765793800354,1.0672626495361328,-557.9833984375,-10.986328125,233.94775390625
7.8481621742248535,-1266447738,0,2.4937620162963867,-1.6616854667663574,3.8976423740386963,-400.5126953125,-558.04443359375,-292.724609375
7.8481762409210205,-1266447719,0,1.8506957292556763,-1.7197909355163574,3.3966658115386963,-425.23193359375,-302.30712890625,-271.17919921875
7.852480173110962,-1266447719,1,-2.1478230953216553,-2.07546067237854,2.125368118286133,-443.9697265625,-109.43603515625,331.0546875
7.883244037628174,-1266447700,0,1.4241820573806763,-1.7031893730163574,2.7123396396636963,-427.06298828125,-208.6181640625,-335.63232421875
7.8832550048828125,-1266447681,0,1.3416625261306763,-1.5764803886413574,2.3839704990386963,-417.96875,-219.17724609375,-337.21923828125
7.8864710330963135,-1266447700,1,-2.2708699703216553,-1.5554412603378296,0.8582782745361328,-635.7421875,-257.32421875,507.9345703125
7.8864781856536865,-1266447681,1,-1.8653523921966553,-2.29762864112854,0.9273700714111328,-628.2958984375,-364.19677734375,602.4169921875
7.90513014793396,-1266447662,0,1.2159301042556763,-1.6663241386413574,2.5140974521636963,-414.0625,-127.0751953125,-386.04736328125
7.91248893737793,-1266447662,1,-2.8904988765716553,-2.74928879737854,0.5323505401611328,-485.90087890625,-325.927734375,558.77685546875
7.938252210617065,-1266447643,0,1.3443480730056763,-0.9104648232460022,3.4303572177886963,-212.95166015625,49.31640625,-414.97802734375
7.938259124755859,-1266447624,0,1.5577269792556763,-0.8386874794960022,2.3483259677886963,-34.24072265625,125.54931640625,-426.20849609375
7.942454099655151,-1266447643,1,-2.9556844234466553,-2.54958176612854,1.5623798370361328,-450.0732421875,-336.3037109375,604.06494140625
7.942540168762207,-1266447624,1,-3.1204793453216553,-1.4653533697128296,1.2603778839111328,-420.7763671875,-360.9619140625,734.43603515625
7.9649059772491455,-1266447605,0,1.2332640886306763,-0.5325351357460022,1.9918806552886963,-45.59326171875,140.625,-434.26513671875
7.983242034912109,-1266447605,1,-2.5333211421966553,-2.05666184425354,1.1175556182861328,-336.73095703125,-354.6142578125,750.54931640625
7.994990110397339,-1266447586,0,1.0450316667556763,-0.6184726357460022,1.4728376865386963,-127.62451171875,146.1181640625,-387.939453125
7.995141267776489,-1266447567,0,0.9900999665260315,-0.2676425278186798,1.2238142490386963,-149.47509765625,165.4052734375,-331.54296875
8.002510070800781,-1266447586,1,-2.1070516109466553,-2.50685715675354,1.4864521026611328,-228.271484375,-344.482421875,695.12939453125
8.002588987350464,-1266447567,1,-2.1571004390716553,-2.01686692237854,1.8072528839111328,-65.673828125,-345.64208984375,627.9296875
8.036750078201294,-1266447548,0,0.8394652009010315,-0.7940097451210022,2.0822126865386963,97.16796875,200.5615234375,-258.544921875
8.039320230484009,-1266447548,1,-2.7801473140716553,-2.40382981300354,1.8201923370361328,14.404296875,-335.51025390625,646.6064453125
8.03932809829712,-1266447529,1,-0.8865925669670105,-3.00026535987854,1.0228290557861328,186.21826171875,-324.462890625,325.5615234375
8.054935216903687,-1266447529,0,1.0408812761306763,-0.142886683344841,1.1329939365386963,179.13818359375,265.56396484375,-206.6650390625
8.055060148239136,-1266447510,0,0.8336058259010315,-0.3784823715686798,0.3910505473613739,79.345703125,271.66748046875,-200.25634765625
8.064577102661133,-1266447510,1,-3.5350301265716553,1.0190216302871704,-1.4700908660888672,-315.36865234375,-229.248046875,707.45849609375
8.088395118713379,-1266447474,0,0.1575804501771927,-0.3985019028186798,1.3058454990386963,193.359375,169.00634765625,-85.87646484375
8.092124938964844,-1266447474,1,-1.2825887203216553,-1.0969451665878296,1.9954853057861328,416.68701171875,-280.45654296875,322.57080078125
8.114779233932495,-1266447455,0,0.7227659821510315,-0.105777308344841,0.6913435459136963,210.75439453125,263.7939453125,-188.90380859375
8.13303804397583,-1266447455,1,-2.4175984859466553,-0.4765838086605072,1.2518329620361328,575.62255859375,-365.17333984375,302.6123046875
8.145469903945923,-1266447436,0,0.2603636682033539,-0.025699179619550705,0.6171247959136963,383.85009765625,254.39453125,-220.947265625
8.145555973052979,-1266447417,0,0.2386351376771927,-0.046939413994550705,0.3165876567363739,510.6201171875,235.04638671875,-264.22119140625
8.15248417854309,-1266447436,1,-2.4329793453216553,-0.7236540913581848,1.0821552276611328,431.884765625,-437.07275390625,334.9609375
8.152595043182373,-1266447417,1,-1.9852254390716553,-0.6765349507331848,0.9547138214111328,272.5830078125,-435.85205078125,269.47021484375
8.184293270111084,-1266447398,0,0.2381468564271927,-0.027164023369550705,0.1425153911113739,523.5595703125,198.486328125,-275.87890625
8.188408136367798,-1266447398,1,-1.4705770015716553,-0.6479704976081848,0.9854755401611328,167.3583984375,-415.83251953125,207.82470703125
8.188415050506592,-1266447379,1,-1.1580770015716553,-0.7317107319831848,1.1107196807861328,139.5263671875,-380.4931640625,151.55029296875
8.204930067062378,-1266447379,0,0.2623167932033539,0.3312344253063202,-0.0650041326880455,423.88916015625,166.07666015625,-242.0654296875
8.205034017562866,-1266447360,0,0.1507445126771927,0.3895840346813202,-0.0921037420630455,243.408203125,159.5458984375,-170.22705078125
8.21249008178711,-1266447360,1,-0.8267781138420105,-0.7566130757331848,1.1461200714111328,191.7724609375,-324.3408203125,73.974609375
8.26425814628601,-1266447341,0,-0.08240978419780731,0.2946133315563202,0.1698591411113739,168.701171875,174.9267578125,-77.392578125
8.265303134918213,-1266447322,0,-0.041394155472517014,0.5236172080039978,0.1776716411113739,136.65771484375,218.1396484375,4.57763671875
8.2654709815979,-1266447303,0,0.1505003720521927,0.5304531455039978,0.0827009454369545,95.15380859375,246.2158203125,24.4140625
8.282929182052612,-1266447341,1,-0.7073933482170105,-0.5932829976081848,1.0428485870361328,232.23876953125,-283.50830078125,4.5166015625
8.282937049865723,-1266447322,1,-0.6927449107170105,-0.4782927930355072,1.0111103057861328,206.6650390625,-279.052734375,-31.8603515625
8.282947063446045,-1266447303,1,-0.6954304575920105,-0.4448455274105072,1.0020771026611328,162.41455078125,-297.42431640625,-47.7294921875
8.294964075088501,-1266447284,0,0.2317992001771927,0.2684902846813202,0.0922224298119545,101.13525390625,258.97216796875,40.6494140625
8.295103073120117,-1266447265,0,0.2330199033021927,0.3754238784313202,0.2377302348613739,168.02978515625,255.0048828125,70.9228515625
8.335772037506104,-1266447246,0,0.2066527158021927,0.3251309096813202,0.4213239848613739,306.884765625,260.80322265625,92.95654296875
8.34023928642273,-1266447284,1,-0.5884968638420105,-0.3069060742855072,0.9654560089111328,137.3291015625,-345.21484375,-82.09228515625
8.340246200561523,-1266447265,1,-0.6414753794670105,-0.2961638867855072,0.8114032745361328,113.83056640625,-361.572265625,-95.5810546875
8.340251207351685,-1266447246,1,-0.7198445200920105,-0.3359588086605072,0.6834735870361328,72.8759765625,-348.32763671875,-107.97119140625
8.354933977127075,-1266447210,0,0.1500120908021927,-0.3071933090686798,0.1361677348613739,379.57763671875,233.09326171875,177.24609375
8.389098167419434,-1266447191,0,0.3795042932033539,-0.3530917465686798,0.1220075860619545,277.40478515625,271.1181640625,208.92333984375
8.38910698890686,-1266447172,0,0.5103636384010315,-0.4089999496936798,0.2155134379863739,144.1650390625,355.52978515625,253.0517578125
8.392260074615479,-1266447210,1,-1.0042684078216553,-0.2063201367855072,0.9107685089111328,24.84130859375,-343.20068359375,-107.177734375
8.392398118972778,-1266447191,1,-1.0342977046966553,-0.2090056836605072,1.0889911651611328,36.2548828125,-343.017578125,-128.662109375
8.414709091186523,-1266447153,0,0.6710081696510315,-0.5628085732460022,0.2245466411113739,62.80517578125,430.2978515625,280.82275390625
8.434166193008423,-1266447172,1,-1.0399129390716553,-0.2839568555355072,1.3314228057861328,94.1162109375,-330.322265625,-187.68310546875
8.434173107147217,-1266447153,1,-1.1241414546966553,-0.3581756055355072,1.5003681182861328,139.09912109375,-319.091796875,-250.6103515625
8.445075988769531,-1266447134,0,0.8614378571510315,-0.7781406044960022,0.1569196879863739,33.50830078125,484.92431640625,341.4306640625
8.445305109024048,-1266447115,0,1.0706664323806763,-0.8706699013710022,0.1078474298119545,35.94970703125,465.33203125,418.3349609375
8.45404601097107,-1266447134,1,-1.3045613765716553,-0.3703826367855072,1.5203876495361328,148.0712890625,-321.1669921875,-284.60693359375
8.454055070877075,-1266447115,1,-1.4981648921966553,-0.2578338086605072,1.5003681182861328,132.080078125,-329.4677734375,-264.22119140625
8.484771251678467,-1266447096,0,1.1905394792556763,-0.9480624794960022,0.1593610942363739,50.9033203125,389.70947265625,466.4306640625
8.48891806602478,-1266447096,1,-1.5665242671966553,-0.3984588086605072,1.4927997589111328,95.3369140625,-342.59033203125,-225.7080078125
8.504987239837646,-1266447077,0,1.3179808855056763,-0.9763827919960022,0.2553083598613739,88.56201171875,315.73486328125,471.74072265625
8.505072116851807,-1266447058,0,1.4576293230056763,-0.9722324013710022,0.3348982036113739,126.40380859375,256.34765625,457.6416015625
8.512791156768799,-1266447077,1,-1.6566121578216553,-0.6963103413581848,1.5277118682861328,70.556640625,-337.46337890625,-232.421875
8.51288914680481,-1266447058,1,-1.8182332515716553,-1.0219939947128296,1.5435810089111328,76.35498046875,-304.74853515625,-310.05859375
8.537748098373413,-1266447039,0,1.6011840105056763,-1.0322909355163574,0.4691755473613739,106.87255859375,244.62890625,449.0966796875
8.54232120513916,-1266447039,1,-2.2733113765716553,-1.0625213384628296,1.4256610870361328,120.91064453125,-261.5966796875,-375.6103515625
8.542405128479004,-1266447020,1,-2.5003621578216553,-0.8874724507331848,1.3289813995361328,160.09521484375,-242.431640625,-357.48291015625
8.565067052841187,-1266447020,0,1.7376586198806763,-1.1231112480163574,0.6156599521636963,59.814453125,271.240234375,442.5048828125
8.565124273300171,-1266447001,0,1.8633910417556763,-1.2388339042663574,0.7887556552886963,-6.4697265625,339.53857421875,428.52783203125
8.584900140762329,-1266447001,1,-2.3284871578216553,-1.0529998540878296,1.3087177276611328,179.50439453125,-237.1826171875,-301.33056640625
8.59481406211853,-1266446982,0,1.8658324480056763,-1.4273104667663574,0.9149763584136963,-52.001953125,383.36181640625,431.70166015625
8.602127075195312,-1266446982,1,-2.4862020015716553,-1.8550018072128296,1.3170185089111328,192.07763671875,-238.70849609375,-289.794921875
8.636851072311401,-1266446946,0,1.8992797136306763,-1.5130038261413574,1.1849958896636963,-20.751953125,335.5712890625,434.814453125
8.64018201828003,-1266446946,1,-2.9847371578216553,-2.00441575050354,1.4752216339111328,186.46240234375,-239.6240234375,-414.4287109375
8.65508508682251,-1266446927,0,1.8941527605056763,-1.3589510917663574,1.2592146396636963,16.66259765625,305.5419921875,406.3720703125
8.655195951461792,-1266446908,0,1.8946410417556763,-1.1909823417663574,1.2240583896636963,28.38134765625,292.17529296875,359.19189453125
8.662600994110107,-1266446927,1,-2.9171102046966553,-1.8252166509628296,1.6605243682861328,268.798828125,-156.1279296875,-359.130859375
8.662670135498047,-1266446908,1,-3.0342977046966553,-2.01247239112854,1.5533466339111328,428.22265625,-84.716796875,-284.48486328125
8.690033197402954,-1266446889,0,1.6922484636306763,-1.0674471855163574,1.2167341709136963,13.916015625,290.22216796875,289.4287109375
8.693880081176758,-1266446889,1,-3.7320516109466553,-1.7256072759628296,1.1221942901611328,591.85791015625,-103.69873046875,-241.3330078125
8.69401216506958,-1266446870,1,-3.8289754390716553,-1.3320525884628296,0.8302021026611328,514.0380859375,-211.12060546875,-84.1064453125
8.716390132904053,-1266446870,0,2.1409788131713867,-2.8172030448913574,1.3712751865386963,-36.7431640625,235.83984375,177.734375
8.716518878936768,-1266446851,0,1.1790648698806763,-1.3386874198913574,1.6327497959136963,65.7958984375,250.0,242.24853515625
8.734257221221924,-1266446851,1,-3.5338094234466553,-1.2492889165878296,0.9281024932861328,304.6875,-332.6416015625,76.0498046875
8.745108127593994,-1266446832,0,1.1819945573806763,-1.1860995292663574,1.6642439365386963,107.48291015625,212.58544921875,305.72509765625
8.745223045349121,-1266446813,0,1.2557250261306763,-1.0413241386413574,1.6156599521636963,172.4853515625,147.216796875,311.95068359375
8.783608198165894,-1266446794,0,1.4720336198806763,-1.0676913261413574,1.5424177646636963,218.505859375,109.19189453125,282.958984375
8.788247108459473,-1266446832,1,-3.1737020015716553,-1.5254119634628296,1.0135517120361328,242.00439453125,-341.97998046875,88.19580078125
8.788254976272583,-1266446813,1,-3.1077840328216553,-1.5468963384628296,0.9073505401611328,354.30908203125,-224.7314453125,59.2041015625
8.788260221481323,-1266446794,1,-3.2034871578216553,-1.2468475103378296,0.7965106964111328,464.05029296875,-99.609375,90.576171875
8.805400133132935,-1266446775,0,1.8067504167556763,-1.0256991386413574,1.3844587802886963,243.95751953125,111.328125,201.84326171875
8.805508136749268,-1266446756,0,1.7886840105056763,-1.2832674980163574,1.3153669834136963,247.314453125,134.58251953125,153.4423828125
8.812745094299316,-1266446775,1,-3.0159871578216553,-1.4074920415878296,0.5438251495361328,500.732421875,-36.376953125,101.318359375
8.812829971313477,-1266446756,1,-2.9244344234466553,-1.2407439947128296,0.2860126495361328,460.87646484375,25.5126953125,113.22021484375
8.83826208114624,-1266446737,0,1.4029418230056763,-1.5791659355163574,0.9232771396636963,233.33740234375,143.24951171875,143.310546875
8.842432022094727,-1266446737,1,-2.7247273921966553,-1.1147674322128296,0.01208687573671341,391.54052734375,94.8486328125,175.6591796875
8.842549085617065,-1266446718,1,-2.2029988765716553,-1.2712615728378296,-0.2227764129638672,332.33642578125,125.79345703125,178.52783203125
8.864988088607788,-1266446718,0,1.3035765886306763,-1.3923983573913574,1.0685408115386963,317.138671875,125.54931640625,126.46484375
8.89400029182434,-1266446682,0,0.8870726227760315,-0.8701816201210022,0.1146833673119545,222.83935546875,160.21728515625,-97.65625
8.894845962524414,-1266446663,0,0.5555296540260315,-1.6223788261413574,0.1644880473613739,127.44140625,103.759765625,-145.1416015625
8.902278900146484,-1266446682,1,-1.5533406734466553,-0.9736540913581848,-0.6805400848388672,320.73974609375,282.2265625,134.1552734375
8.902405261993408,-1266446663,1,-1.6231648921966553,-0.6833708882331848,-0.8758525848388672,232.91015625,348.5107421875,176.3916015625
8.935378074645996,-1266446644,0,0.5543089509010315,-1.6929354667663574,0.5285017490386963,181.21337890625,26.06201171875,-140.0146484375
8.941728115081787,-1266446644,1,-1.4000203609466553,-0.6750701069831848,-1.0787334442138672,129.21142578125,306.70166015625,195.556640625
