arm,time_seconds,ax,ay,az,gx,gy,gz,mx,my,mz
arm1,300.25,-0.3464813232421875,-0.8818511962890625,0.31158447265625,0.01780855841934681,0.022878684103488922,-0.016886305063962936,55.69087219238281,90.88784790039062,-148.74366760253906
arm1,300.27,-0.3516845703125,-0.885040283203125,0.3120880126953125,0.021019265055656433,0.007595069240778685,-0.017536915838718414,55.490142822265625,90.90357971191406,-148.76620483398438
arm1,300.29,-0.359405517578125,-0.8875732421875,0.3101806640625,0.021815016865730286,-0.0002817624481394887,-0.023736221715807915,55.59271240234375,90.91545104980469,-148.70045471191406
arm1,300.31,-0.35784912109375,-0.8868560791015625,0.3109283447265625,0.020370785146951675,0.007184409536421299,-0.030948327854275703,55.69505310058594,90.92422485351562,-148.6399688720703
arm1,300.33,-0.35955810546875,-0.8847198486328125,0.31195068359375,0.023482689633965492,0.017139039933681488,-0.033906567841768265,55.69049072265625,90.71430969238281,-148.81495666503906
arm1,300.35,-0.36419677734375,-0.8844757080078125,0.312347412109375,0.02611016295850277,0.027107784524559975,-0.03732526674866676,55.789306640625,91.15180969238281,-148.86094665527344
arm1,300.37,-0.364166259765625,-0.881439208984375,0.3123016357421875,0.024171115830540657,0.0321400947868824,-0.03465305268764496,55.752655029296875,91.08380126953125,-148.8709259033203
arm1,300.39,-0.35931396484375,-0.8812103271484375,0.314788818359375,0.026258768513798714,0.03130306303501129,-0.030489997938275337,55.608551025390625,91.10549926757812,-148.6938934326172
arm1,300.41,-0.361724853515625,-0.881561279296875,0.3108367919921875,0.029923809692263603,0.018084993585944176,-0.021203288808465004,55.74810791015625,90.92103576660156,-148.5337677001953
arm1,300.43,-0.35797119140625,-0.8821868896484375,0.312896728515625,0.029286516830325127,0.017728131264448166,-0.012013252824544907,55.90620422363281,90.95643615722656,-148.53704833984375
arm1,300.447,-0.356414794921875,-0.8795166015625,0.3105621337890625,0.03351588174700737,0.00688933115452528,-0.004959871061146259,55.94932556152344,91.19831848144531,-148.473388671875
arm1,300.47,-0.3564453125,-0.8795623779296875,0.3125762939453125,0.031145136803388596,-0.0022682142443954945,0.004982774145901203,55.746978759765625,91.06816101074219,-148.4156951904297
arm1,300.49,-0.35791015625,-0.8779754638671875,0.31170654296875,0.03815457597374916,-0.009819340892136097,0.005636047571897507,55.83721923828125,91.04258728027344,-148.71087646484375
arm1,300.51,-0.3629608154296875,-0.8775177001953125,0.3105926513671875,0.043768785893917084,-0.011966381222009659,0.005598763469606638,55.84678649902344,91.06144714355469,-148.55078125
arm1,300.53,-0.360137939453125,-0.8707275390625,0.3159637451171875,0.04898671805858612,-0.022163359448313713,0.016919061541557312,55.62174987792969,90.97822570800781,-148.24034118652344
arm1,300.55,-0.3578948974609375,-0.86358642578125,0.311859130859375,0.05793121084570885,-0.044201016426086426,0.03566744923591614,55.87373352050781,90.96932983398438,-148.57640075683594
arm1,300.57,-0.35540771484375,-0.8686065673828125,0.3130645751953125,0.06798144429922104,-0.05926705151796341,0.05127410590648651,55.60939025878906,90.93952941894531,-148.14950561523438
arm1,300.59,-0.3486328125,-0.87738037109375,0.314605712890625,0.07436903566122055,-0.06867466866970062,0.06438963860273361,55.538177490234375,91.12220764160156,-148.34677124023438
arm1,300.61,-0.344696044921875,-0.8833160400390625,0.3136749267578125,0.07592938840389252,-0.08326586335897446,0.06333129853010178,55.4395751953125,91.02629089355469,-148.32745361328125
arm1,300.63,-0.344879150390625,-0.8926849365234375,0.3126678466796875,0.07008161395788193,-0.08952987939119339,0.05072815716266632,55.52655029296875,91.11146545410156,-148.1693878173828
arm1,300.65,-0.3432769775390625,-0.8976898193359375,0.317840576171875,0.055154599249362946,-0.07801730185747147,0.022121280431747437,55.398529052734375,90.94088745117188,-148.21263122558594
arm1,300.669,-0.34637451171875,-0.89886474609375,0.315704345703125,0.04276450723409653,-0.06309214979410172,-0.012239621952176094,55.57160949707031,91.03125,-148.30137634277344
arm1,300.69,-0.3462677001953125,-0.8929901123046875,0.3172454833984375,0.031066039577126503,-0.02973153069615364,-0.04385880008339882,55.57377624511719,90.92805480957031,-148.16201782226562
arm1,300.71,-0.3481903076171875,-0.8912353515625,0.3202362060546875,0.02478577382862568,0.0124822361394763,-0.06742911040782928,55.73414611816406,90.99360656738281,-148.16964721679688
arm1,300.73,-0.3478546142578125,-0.8927459716796875,0.324493408203125,0.01636938564479351,0.03928162530064583,-0.08999647200107574,55.74571228027344,90.98414611816406,-148.0281982421875
arm1,300.75,-0.3497161865234375,-0.88922119140625,0.330902099609375,0.0014956312952563167,0.03844033181667328,-0.10517675429582596,55.91813659667969,90.91535949707031,-147.91888427734375
arm1,300.77,-0.3541717529296875,-0.8876800537109375,0.329010009765625,-0.009712016209959984,0.027661722153425217,-0.11378622055053711,55.94331359863281,90.97825622558594,-148.07199096679688
arm1,300.79,-0.35809326171875,-0.8868865966796875,0.329742431640625,-0.024171914905309677,0.027154389768838882,-0.11826565861701965,55.83192443847656,90.93716430664062,-148.10763549804688
arm1,300.81,-0.365325927734375,-0.8890838623046875,0.3350677490234375,-0.03196006268262863,0.028833778575062752,-0.11655164510011673,56.07972717285156,91.09300231933594,-148.26275634765625
arm1,300.83,-0.3679351806640625,-0.8917999267578125,0.334808349609375,-0.037106357514858246,0.03417022153735161,-0.1117696762084961,56.23291015625,91.24273681640625,-148.37619018554688
arm1,300.85,-0.3696746826171875,-0.890869140625,0.3306884765625,-0.03430524468421936,0.0501321442425251,-0.10635200887918472,56.17234802246094,90.91441345214844,-148.18458557128906
arm1,300.87,-0.367218017578125,-0.8880615234375,0.3311309814453125,-0.027965322136878967,0.0704754963517189,-0.09828528761863708,56.37397766113281,91.01162719726562,-148.01258850097656
arm1,300.89,-0.36505126953125,-0.88653564453125,0.334320068359375,-0.014886271208524704,0.07662766426801682,-0.08372365683317184,56.469696044921875,91.14361572265625,-147.8252410888672
arm1,300.91,-0.3670654296875,-0.884002685546875,0.3298492431640625,0.0010695254895836115,0.06932128220796585,-0.06401041150093079,56.59246826171875,91.14683532714844,-147.98593139648438
arm1,300.93,-0.3626556396484375,-0.88287353515625,0.3277130126953125,0.01618083380162716,0.06510896235704422,-0.03622298687696457,56.42338562011719,91.23370361328125,-148.40277099609375
arm1,300.95,-0.363006591796875,-0.8833770751953125,0.325408935546875,0.02695358730852604,0.05374418944120407,-0.008807073347270489,56.62425231933594,91.161865234375,-148.07630920410156
arm1,300.97,-0.358551025390625,-0.8842315673828125,0.325408935546875,0.03099200502038002,0.04041906073689461,0.018279671669006348,56.52320861816406,91.21774291992188,-148.00540161132812
arm1,300.99,-0.3480377197265625,-0.8816986083984375,0.3226165771484375,0.03640274703502655,0.02370692789554596,0.049313221126794815,56.32879638671875,91.07015991210938,-148.05963134765625
arm1,301.01,-0.34027099609375,-0.888214111328125,0.32159423828125,0.0380866639316082,-0.00023861923546064645,0.07126938551664352,56.34088134765625,91.1612548828125,-148.23463439941406
arm1,301.03,-0.344879150390625,-0.8892669677734375,0.316009521484375,0.03905978426337242,-0.020843230187892914,0.0792735144495964,56.285125732421875,91.16450500488281,-148.00552368164062
arm1,301.05,-0.3426361083984375,-0.891754150390625,0.313262939453125,0.03783286735415459,-0.02527579478919506,0.07847776263952255,56.025604248046875,91.07426452636719,-147.8710174560547
arm2,461.552,0.100799560546875,-0.9078216552734375,0.40576171875,-0.031035413965582848,-0.013511814177036285,-0.0006735134520567954,23.833587646484375,6.26641845703125,-90.80828857421875
arm1,301.07,-0.336944580078125,-0.8933563232421875,0.3135833740234375,0.036739639937877655,-0.014374678023159504,0.07270536571741104,56.13612365722656,91.20489501953125,-148.0929412841797
arm1,301.09,-0.3334197998046875,-0.89276123046875,0.30889892578125,0.03455131873488426,0.009950901381671429,0.05416177213191986,56.01934814453125,91.120849609375,-148.16586303710938
arm2,461.572,0.09759521484375,-0.906463623046875,0.411376953125,-0.017252489924430847,-0.011196727864444256,-0.017610153183341026,24.241592407226562,6.405670166015625,-91.10661315917969
arm2,461.592,0.0919036865234375,-0.9082183837890625,0.4162139892578125,-0.004942294210195541,0.00884888507425785,-0.03531245142221451,24.169265747070312,6.28009033203125,-90.94630432128906
arm1,301.11,-0.328125,-0.8902740478515625,0.311309814453125,0.03104526735842228,0.04583832994103432,0.04036553204059601,55.89579772949219,91.13475036621094,-148.0407257080078
arm2,461.611,0.09075927734375,-0.9139556884765625,0.4116058349609375,0.0022530341520905495,0.009995642118155956,-0.04212668165564537,24.184356689453125,6.3866424560546875,-90.73207092285156
arm1,301.13,-0.320831298828125,-0.891998291015625,0.3159942626953125,0.025161013007164,0.0509079210460186,0.025594575330615044,55.977508544921875,91.15391540527344,-147.8682098388672
arm1,301.15,-0.319671630859375,-0.8924102783203125,0.3144378662109375,0.013834589160978794,0.0296162161976099,0.01458799745887518,55.94987487792969,91.15010070800781,-148.0740509033203
arm2,461.631,0.090179443359375,-0.9173126220703125,0.40625,0.010324542410671711,-0.011611648835241795,-0.041785795241594315,24.042312622070312,6.039825439453125,-90.69694519042969
arm2,461.651,0.0877532958984375,-0.9161529541015625,0.403228759765625,0.010324542410671711,-0.011611648835241795,-0.041785795241594315,24.369064331054688,5.9411773681640625,-90.72259521484375
arm1,301.169,-0.319183349609375,-0.887664794921875,0.315338134765625,0.0032413334120064974,0.010674748569726944,0.0013941648649051785,55.757171630859375,91.08731079101562,-148.04257202148438
arm1,301.191,-0.322784423828125,-0.8883514404296875,0.31304931640625,-0.0025094966404139996,0.0083687175065279,-0.011681689880788326,55.953704833984375,91.09910583496094,-148.04896545410156
arm1,301.21,-0.326873779296875,-0.888336181640625,0.316070556640625,-0.005899168085306883,0.009111473336815834,-0.026316558942198753,55.91432189941406,91.11308288574219,-148.3319854736328
arm2,461.671,0.0833740234375,-0.9158172607421875,0.404876708984375,0.017003750428557396,-0.02646622806787491,-0.03916604444384575,24.356964111328125,5.9940032958984375,-90.98622131347656
arm1,301.23,-0.3313751220703125,-0.890777587890625,0.3182830810546875,-0.010266219265758991,0.0057287258096039295,-0.0350370779633522,55.97068786621094,91.10780334472656,-148.03834533691406
arm2,461.691,0.0785064697265625,-0.91448974609375,0.401702880859375,0.024986309930682182,-0.037265878170728683,-0.0202765092253685,24.453399658203125,6.23345947265625,-91.4373779296875
arm2,461.713,0.0777435302734375,-0.9106903076171875,0.400604248046875,0.03021276369690895,-0.03713884577155113,-0.015995211899280548,24.535858154296875,6.0724334716796875,-91.64321899414062
arm1,301.25,-0.3362579345703125,-0.886810302734375,0.3204345703125,-0.013581855222582817,-0.0027486486360430717,-0.040829189121723175,55.999542236328125,91.14349365234375,-147.7522430419922
arm1,301.27,-0.3447418212890625,-0.8870086669921875,0.3209228515625,-0.014167483896017075,-0.01589161530137062,-0.03834898769855499,56.12269592285156,91.25503540039062,-148.03167724609375
arm2,461.731,0.0759429931640625,-0.907135009765625,0.3997344970703125,0.031870048493146896,-0.03194701299071312,-0.014027401804924011,24.148040771484375,5.996246337890625,-90.42802429199219
arm2,461.751,0.0751953125,-0.9097747802734375,0.399658203125,0.024774855002760887,-0.023870712146162987,-0.0033305492252111435,24.335784912109375,6.1143035888671875,-90.96974182128906
arm1,301.291,-0.3479156494140625,-0.891876220703125,0.323394775390625,-0.014128335751593113,-0.02479722537100315,-0.04008323699235916,55.97731018066406,91.18682861328125,-148.07443237304688
arm2,461.771,0.0777435302734375,-0.9144439697265625,0.39923095703125,0.015851134434342384,-0.036199551075696945,0.004708202555775642,24.54852294921875,5.892730712890625,-90.42318725585938
arm1,301.31,-0.353668212890625,-0.893218994140625,0.32354736328125,-0.011152253486216068,-0.029160281643271446,-0.038720231503248215,55.88627624511719,91.24847412109375,-147.96826171875
arm1,301.33,-0.356781005859375,-0.8932037353515625,0.3239593505859375,-0.007833688519895077,-0.024209732189774513,-0.03272572159767151,56.238677978515625,91.1221923828125,-147.86553955078125
arm2,461.791,0.0796661376953125,-0.915679931640625,0.40338134765625,0.002927879337221384,-0.03993889316916466,0.009484581649303436,24.589889526367188,5.997772216796875,-91.10173034667969
arm2,461.811,0.0808258056640625,-0.914215087890625,0.4035491943359375,-0.0043502734042704105,-0.036611542105674744,0.012203669175505638,24.23870849609375,5.84588623046875,-90.53561401367188
arm1,301.35,-0.3587799072265625,-0.8895721435546875,0.321990966796875,0.00018082863243762404,-0.022459503263235092,-0.02714373730123043,56.34181213378906,91.27294921875,-148.10260009765625
arm2,461.831,0.0840301513671875,-0.909393310546875,0.4004364013671875,-0.006352171767503023,-0.04256637021899223,0.02094043605029583,24.291351318359375,6.169403076171875,-90.88821411132812
arm1,301.37,-0.35955810546875,-0.8831329345703125,0.3221588134765625,0.009395099245011806,-0.02660258300602436,-0.01697711832821369,56.170074462890625,91.1319580078125,-148.2014617919922
arm1,301.391,-0.3626861572265625,-0.8858489990234375,0.3199920654296875,0.01619095355272293,-0.027028687298297882,-0.007962585426867008,55.9224853515625,91.07492065429688,-148.01040649414062
arm2,461.851,0.086883544921875,-0.908538818359375,0.3978118896484375,-0.0029553098138421774,-0.05473781377077103,0.02581055834889412,24.3453369140625,6.3069915771484375,-91.10137939453125
arm2,461.872,0.0847930908203125,-0.91015625,0.4031219482421875,-0.00649651512503624,-0.05426696687936783,0.02472265623509884,24.015960693359375,6.2109832763671875,-90.748291015625
arm1,301.41,-0.3638916015625,-0.89202880859375,0.32330322265625,0.012593023478984833,-0.025475265458226204,-0.0023209447972476482,56.19981384277344,91.20492553710938,-148.2748565673828
arm2,461.891,0.0806121826171875,-0.9228515625,0.417022705078125,-0.02279719151556492,-0.03525199741125107,0.018488463014364243,23.573272705078125,6.43292236328125,-90.73750305175781
arm1,301.43,-0.37176513671875,-0.903533935546875,0.329498291015625,-0.00011957593233091757,-0.032588835805654526,0.004035221878439188,56.127471923828125,90.98268127441406,-148.15301513671875
arm1,301.45,-0.379974365234375,-0.92559814453125,0.339141845703125,-0.02534317411482334,-0.047445278614759445,0.006341785658150911,56.13362121582031,91.056884765625,-148.5037384033203
arm2,461.911,0.0841064453125,-0.949066162109375,0.4345245361328125,-0.054251786321401596,-0.017890850082039833,0.013893445022404194,24.136886596679688,6.4202880859375,-90.72589111328125
arm2,461.931,0.0867919921875,-0.9691925048828125,0.4618377685546875,-0.09598245471715927,0.01341700553894043,-1.0120012120751198e-05,23.87054443359375,5.951995849609375,-91.10997009277344
arm1,301.471,-0.3985748291015625,-0.9484405517578125,0.349273681640625,-0.06704747676849365,-0.07792782038450241,-0.0014583469601348042,56.18809509277344,91.09837341308594,-148.17384338378906
arm2,461.951,0.0943145751953125,-0.978546142578125,0.478851318359375,-0.13176362216472626,0.06719208508729935,-0.0249658040702343,24.160507202148438,6.16278076171875,-90.66621398925781
arm1,301.491,-0.4189453125,-0.9564666748046875,0.3504486083984375,-0.11861799657344818,-0.0976322814822197,-0.021697038784623146,56.36680603027344,91.19845581054688,-148.3211212158203
arm1,301.511,-0.433685302734375,-0.947052001953125,0.342803955078125,-0.16609390079975128,-0.06666025519371033,-0.04164571315050125,56.172607421875,91.16749572753906,-148.51235961914062
arm2,461.972,0.094207763671875,-0.9618377685546875,0.4742889404296875,-0.1503349095582962,0.10539007186889648,-0.05048474669456482,24.530166625976562,6.366851806640625,-91.18290710449219
arm2,461.991,0.1067657470703125,-0.942291259765625,0.4762420654296875,-0.14013554155826569,0.15904344618320465,-0.06753323972225189,24.276092529296875,6.2920989990234375,-91.23751831054688
arm1,301.53,-0.4379119873046875,-0.9312896728515625,0.3409576416015625,-0.2011576145887375,-0.018428275361657143,-0.04747084528207779,56.21571350097656,91.16432189941406,-148.79293823242188
arm2,462.011,0.1228790283203125,-0.9137725830078125,0.465545654296875,-0.14013554155826569,0.15904344618320465,-0.06753323972225189,24.459579467773438,6.279998779296875,-90.91203308105469
arm1,301.55,-0.445343017578125,-0.9028167724609375,0.3336029052734375,-0.20819741487503052,-0.009808688424527645,-0.028495024889707565,56.26109313964844,91.17875671386719,-148.86874389648438
arm1,301.571,-0.46197509765625,-0.8753814697265625,0.318450927734375,-0.17649833858013153,-0.023015037178993225,0.010882475413382053,56.45549011230469,91.27536010742188,-149.1487579345703
arm2,462.032,0.1480255126953125,-0.88250732421875,0.4444122314453125,-0.0919613465666771,0.20313553512096405,-0.078575499355793,24.66473388671875,6.238739013671875,-91.2467041015625
arm2,462.052,0.1703643798828125,-0.8553924560546875,0.421173095703125,0.1078186109662056,0.10936324298381805,-0.07952757924795151,24.206527709960938,6.4365386962890625,-91.72254943847656
arm1,301.592,-0.47637939453125,-0.8440093994140625,0.293182373046875,-0.10848865658044815,-0.008289621211588383,0.07374346256256104,56.300811767578125,91.22685241699219,-149.12440490722656
arm2,462.073,0.1781005859375,-0.8211669921875,0.40557861328125,0.1078186109662056,0.10936324298381805,-0.07952757924795151,24.413375854492188,6.055877685546875,-91.86457824707031
arm1,301.611,-0.47650146484375,-0.808502197265625,0.2650909423828125,-0.014366156421601772,0.07303399592638016,0.1467127501964569,56.14436340332031,91.23570251464844,-149.02523803710938
arm1,301.629,-0.4522247314453125,-0.7947845458984375,0.2492218017578125,0.08411753922700882,0.20379146933555603,0.2235928773880005,56.14436340332031,91.23570251464844,-149.02523803710938
arm2,462.091,0.17926025390625,-0.8134002685546875,0.3895416259765625,0.3195124864578247,-0.1392716020345688,-0.06259121000766754,24.451385498046875,6.0525970458984375,-91.85748291015625
arm2,462.111,0.1658172607421875,-0.8167572021484375,0.3892669677734375,0.3743075430393219,-0.24026267230510712,-0.05899221450090408,24.885833740234375,5.591033935546875,-91.26498413085938
arm1,301.649,-0.3854217529296875,-0.7674407958984375,0.2864227294921875,0.1731416881084442,0.31576913595199585,0.2837179899215698,55.89894104003906,91.25845336914062,-148.98037719726562
arm2,462.131,0.144805908203125,-0.8444671630859375,0.4072265625,0.39157816767692566,-0.2738179564476013,-0.07752168923616409,24.849212646484375,5.6178131103515625,-90.81019592285156
arm1,301.669,-0.4418792724609375,-0.8220367431640625,0.2866363525390625,0.2231220304965973,0.27206799387931824,0.4326464831829071,55.53312683105469,91.25004577636719,-148.79864501953125
arm1,301.689,-0.4100189208984375,-0.8381500244140625,0.2950897216796875,0.2047952264547348,0.23836223781108856,0.5093186497688293,55.04347229003906,91.12449645996094,-148.3527374267578
arm2,462.151,0.12603759765625,-0.8754119873046875,0.4367828369140625,0.37352752685546875,-0.2418547123670578,-0.11365758627653122,24.751846313476562,5.9174957275390625,-90.07221984863281
arm2,462.173,0.116546630859375,-0.903106689453125,0.4586181640625,0.31702667474746704,-0.17525944113731384,-0.1614602655172348,24.77490234375,6.1516265869140625,-89.7908935546875
arm2,462.191,0.1110992431640625,-0.9220733642578125,0.4635162353515625,0.2556871771812439,-0.13443982601165771,-0.20154856145381927,24.841232299804688,5.8769989013671875,-89.76725769042969
arm1,301.709,-0.3954315185546875,-0.8665924072265625,0.317230224609375,0.1464962363243103,0.06451321393251419,0.592801570892334,54.713897705078125,91.20298767089844,-148.40017700195312
arm1,301.729,-0.396575927734375,-0.8863525390625,0.315704345703125,0.07566812634468079,-0.1122884601354599,0.6390146017074585,54.06462097167969,91.0137939453125,-148.01300048828125
arm1,301.749,-0.3966217041015625,-0.9000701904296875,0.319671630859375,0.011438542976975441,-0.2154976725578308,0.6538659930229187,53.501800537109375,90.99594116210938,-148.37950134277344
arm1,301.769,-0.4003143310546875,-0.8950653076171875,0.3150177001953125,-0.034508440643548965,-0.2850642204284668,0.6561443209648132,52.64949035644531,90.94400024414062,-148.43800354003906
arm1,301.789,-0.3997802734375,-0.8904571533203125,0.3031158447265625,-0.047086820006370544,-0.3004991114139557,0.6541826128959656,52.28797912597656,90.94119262695312,-148.45989990234375
arm1,301.809,-0.3891143798828125,-0.8793487548828125,0.299591064453125,-0.03437395393848419,-0.2712746560573578,0.6481489539146423,51.64665222167969,90.8250732421875,-148.41372680664062
arm2,462.211,0.11309814453125,-0.921142578125,0.465240478515625,0.20909276604652405,-0.11369327455759048,-0.2271183729171753,24.68121337890625,5.6041259765625,-89.41523742675781
arm2,462.232,0.1181182861328125,-0.9110870361328125,0.4527130126953125,0.1877078413963318,-0.13687929511070251,-0.23936784267425537,24.882354736328125,5.444671630859375,-89.23219299316406
arm2,462.251,0.117401123046875,-0.8940582275390625,0.434967041015625,0.1999405473470688,-0.18146300315856934,-0.23654383420944214,24.90509033203125,5.4558868408203125,-89.20552062988281
arm1,301.829,-0.384429931640625,-0.8723907470703125,0.2920684814453125,-0.0015592807903885841,-0.23252005875110626,0.6182848215103149,51.219451904296875,90.77888488769531,-148.3623046875
arm2,462.276,0.110107421875,-0.8815155029296875,0.4212799072265625,0.22557294368743896,-0.22054702043533325,-0.2120235711336136,25.466949462890625,5.924041748046875,-89.3568115234375
arm2,462.291,0.100494384765625,-0.8700714111328125,0.413360595703125,0.22557294368743896,-0.22054702043533325,-0.2120235711336136,25.011871337890625,5.5788116455078125,-89.3167724609375
arm2,462.311,0.091339111328125,-0.868316650390625,0.41259765625,0.29886767268180847,-0.2122717797756195,-0.17890264093875885,25.239898681640625,5.5730743408203125,-88.86929321289062
arm1,301.849,-0.37939453125,-0.8622894287109375,0.29144287109375,0.03972610831260681,-0.17837239801883698,0.5716043710708618,50.905914306640625,90.69874572753906,-148.4640350341797
arm1,301.869,-0.3766326904296875,-0.85595703125,0.2910614013671875,0.07316821813583374,-0.13913153111934662,0.5141155123710632,50.48738098144531,90.85964965820312,-148.18106079101562
arm2,462.331,0.082794189453125,-0.869842529296875,0.414825439453125,0.29886767268180847,-0.2122717797756195,-0.17890264093875885,25.54132080078125,5.5183868408203125,-88.40089416503906
arm2,462.352,0.076385498046875,-0.8773193359375,0.4147186279296875,0.31967973709106445,-0.11675857752561569,-0.16257452964782715,25.86456298828125,5.3763885498046875,-87.8768310546875
arm1,301.89,-0.372772216796875,-0.8485260009765625,0.290313720703125,0.09182579070329666,-0.11126180738210678,0.45423221588134766,49.893585205078125,90.65837097167969,-148.36642456054688
arm2,462.371,0.0701751708984375,-0.890533447265625,0.415435791015625,0.3048160970211029,-0.06892207264900208,-0.15151868760585785,25.932174682617188,5.5262298583984375,-87.60287475585938
arm1,301.909,-0.370269775390625,-0.8567352294921875,0.294677734375,0.08974000811576843,-0.07154315710067749,0.3888457417488098,49.696197509765625,90.75054931640625,-148.18263244628906
arm1,301.929,-0.371063232421875,-0.8601531982421875,0.3037567138671875,0.06255578994750977,-0.043121904134750366,0.3174099028110504,49.4737548828125,90.61395263671875,-148.0739288330078
arm2,462.391,0.069427490234375,-0.9015655517578125,0.4173431396484375,0.2749772369861603,-0.028932848945260048,-0.13195084035396576,26.148361206054688,5.2817535400390625,-87.76667785644531
arm2,462.411,0.07037353515625,-0.9086761474609375,0.4201202392578125,0.23102496564388275,0.014801849611103535,-0.1014414057135582,26.342422485351562,5.1452789306640625,-87.54296875
arm1,301.949,-0.3718109130859375,-0.8541107177734375,0.3128204345703125,0.02016492374241352,-0.04752916842699051,0.24013803899288177,49.31463623046875,90.5771484375,-147.92320251464844
arm2,462.431,0.0741424560546875,-0.9056396484375,0.4186553955078125,0.19474925100803375,0.05302726477384567,-0.06636171042919159,26.164291381835938,5.133209228515625,-87.29313659667969
arm1,301.969,-0.3813629150390625,-0.8446197509765625,0.317108154296875,-0.030424484983086586,-0.0812128335237503,0.1678057760000229,49.2774658203125,90.61747741699219,-148.32579040527344
arm1,301.989,-0.3861541748046875,-0.8391265869140625,0.3154449462890625,-0.07779359817504883,-0.12363885343074799,0.1029580757021904,48.849609375,90.66578674316406,-148.24986267089844
arm2,462.451,0.08416748046875,-0.894927978515625,0.40911865234375,0.19474925100803375,0.05302726477384567,-0.06636171042919159,26.206924438476562,5.4307098388671875,-86.59992980957031
arm2,462.471,0.09100341796875,-0.890380859375,0.4041595458984375,0.15770840644836426,0.05910167098045349,-0.022845927625894547,26.157928466796875,5.4840240478515625,-86.62773132324219
arm1,302.009,-0.395263671875,-0.834014892578125,0.3176422119140625,-0.10970386117696762,-0.14465226233005524,0.039620112627744675,49.07414245605469,90.44454956054688,-148.1344757080078
arm1,302.029,-0.40869140625,-0.831207275390625,0.314544677734375,-0.12999582290649414,-0.1395411193370819,-0.018992865458130836,49.22328186035156,90.64419555664062,-148.53199768066406
arm1,302.049,-0.416351318359375,-0.83026123046875,0.3175201416015625,-0.14348791539669037,-0.11372123658657074,-0.0791613981127739,49.019256591796875,90.53398132324219,-148.3057098388672
arm2,462.492,0.0944671630859375,-0.8858184814453125,0.40838623046875,0.08959805965423584,0.03208017349243164,0.07067763060331345,26.321624755859375,5.2143096923828125,-86.76539611816406
arm2,462.513,0.1021728515625,-0.8860015869140625,0.4146881103515625,0.04704846814274788,0.0257562305778265,0.11488104611635208,26.148590087890625,5.23046875,-87.34457397460938
arm2,462.531,0.1114959716796875,-0.883544921875,0.4201812744140625,0.0095069520175457,0.02010020799934864,0.14830797910690308,25.9698486328125,5.2175140380859375,-86.73785400390625
arm1,302.069,-0.425079345703125,-0.82696533203125,0.3166046142578125,-0.150516539812088,-0.0946655198931694,-0.13194604218006134,48.99400329589844,90.4832763671875,-148.2834930419922
arm2,462.551,0.1209716796875,-0.8845977783203125,0.4243011474609375,0.0095069520175457,0.02010020799934864,0.14830797910690308,26.061309814453125,5.125,-87.34944152832031
arm1,302.089,-0.4376220703125,-0.82867431640625,0.3147125244140625,-0.14931651949882507,-0.07183264195919037,-0.17558300495147705,49.29707336425781,90.46847534179688,-148.5212860107422
arm1,302.109,-0.4475555419921875,-0.830169677734375,0.3150787353515625,-0.14466343820095062,-0.02755572833120823,-0.2124805748462677,49.58271789550781,90.33164978027344,-148.93588256835938
arm1,302.129,-0.4534454345703125,-0.83111572265625,0.3134613037109375,-0.13662788271903992,0.020742563530802727,-0.237320676445961,49.84553527832031,90.5565185546875,-149.21177673339844
arm2,462.571,0.12762451171875,-0.8839111328125,0.427490234375,-0.06144418567419052,-0.007119162008166313,0.18706096708774567,25.972030639648438,5.2834625244140625,-86.86624145507812
arm1,302.149,-0.451995849609375,-0.8322296142578125,0.3135528564453125,-0.12919899821281433,0.06109051778912544,-0.2524394392967224,49.87351989746094,90.54318237304688,-149.016845703125
arm1,302.169,-0.44989013671875,-0.83441162109375,0.3147735595703125,-0.11997807025909424,0.08301099389791489,-0.2588469982147217,50.094482421875,90.49501037597656,-149.4512939453125
arm2,462.591,0.1316986083984375,-0.88275146484375,0.4327850341796875,-0.09369959682226181,-0.0193175058811903,0.1949889361858368,25.764938354492188,5.219573974609375,-86.81033325195312
arm2,462.611,0.136138916015625,-0.87908935546875,0.43792724609375,-0.11567413806915283,-0.024335432797670364,0.1983431875705719,25.275100708007812,5.725830078125,-86.88092041015625
arm2,462.631,0.141754150390625,-0.8790740966796875,0.4415130615234375,-0.1350925713777542,-0.01896064169704914,0.19502940773963928,25.534500122070312,5.1667938232421875,-86.80825805664062
arm2,462.651,0.143829345703125,-0.8771209716796875,0.444915771484375,-0.15090136229991913,-0.007229683455079794,0.18220974504947662,25.484405517578125,5.4002532958984375,-86.829345703125
arm1,302.189,-0.4467926025390625,-0.840728759765625,0.31695556640625,-0.11385998874902725,0.09037782996892929,-0.2594134509563446,50.16758728027344,90.41615295410156,-149.2947235107422
arm2,462.671,0.1482391357421875,-0.876861572265625,0.4488372802734375,-0.1622813194990158,0.008352472446858883,0.16819965839385986,25.18255615234375,5.5522613525390625,-87.24528503417969
arm1,302.209,-0.44708251953125,-0.843292236328125,0.3165130615234375,-0.11138218641281128,0.07355011999607086,-0.2580699026584625,50.538543701171875,90.44017028808594,-149.39352416992188
arm1,302.229,-0.452117919921875,-0.83831787109375,0.3103485107421875,-0.10463879257440567,0.03898708149790764,-0.24741671979427338,50.72315979003906,90.45852661132812,-149.36537170410156
arm1,302.249,-0.4597015380859375,-0.8365478515625,0.304412841796875,-0.09514808654785156,0.014790929853916168,-0.23394671082496643,51.006195068359375,90.46467590332031,-149.50048828125
arm2,462.691,0.1533355712890625,-0.8708953857421875,0.4471282958984375,-0.17471854388713837,0.01182203833013773,0.1469510942697525,25.280227661132812,5.55621337890625,-87.89710998535156
arm2,462.711,0.1566314697265625,-0.869537353515625,0.439422607421875,-0.17471854388713837,0.01182203833013773,0.1469510942697525,24.92523193359375,5.5447998046875,-87.37876892089844
arm2,462.731,0.1554412841796875,-0.8705291748046875,0.4418487548828125,-0.18084488809108734,-0.005088235717266798,0.13053563237190247,24.934738159179688,5.173004150390625,-87.15155029296875
arm1,302.269,-0.4620361328125,-0.83966064453125,0.2987060546875,-0.08653143048286438,0.020675983279943466,-0.21953129768371582,51.02363586425781,90.40963745117188,-149.62832641601562
arm1,302.289,-0.4622344970703125,-0.8360595703125,0.2988739013671875,-0.07720930129289627,0.03387487679719925,-0.20305964350700378,51.180023193359375,90.40890502929688,-149.46920776367188
arm2,462.751,0.1500396728515625,-0.873748779296875,0.448577880859375,-0.2063068300485611,-0.03164607658982277,0.08674927800893784,25.04815673828125,5.5351715087890625,-88.05517578125
arm2,462.771,0.1450042724609375,-0.8769989013671875,0.4550323486328125,-0.21648596227169037,-0.015899071469902992,0.06826214492321014,24.683975219726562,5.2935333251953125,-88.17695617675781
arm1,302.309,-0.4627838134765625,-0.8424835205078125,0.30291748046875,-0.07235223054885864,0.03839905560016632,-0.18272081017494202,51.52595520019531,90.53993225097656,-149.66404724121094
arm2,462.792,0.1421661376953125,-0.8828125,0.4597930908203125,-0.22543498873710632,0.003623496973887086,0.04403776675462723,24.420989990234375,5.618194580078125,-88.06211853027344
arm1,302.329,-0.4639892578125,-0.84381103515625,0.30126953125,-0.07293333113193512,0.030015157535672188,-0.16051244735717773,51.79487609863281,90.38270568847656,-149.57034301757812
arm1,302.349,-0.466033935546875,-0.8441162109375,0.305908203125,-0.07616960257291794,0.007093595806509256,-0.13320626318454742,51.72785949707031,90.32966613769531,-150.12063598632812
arm2,462.811,0.144561767578125,-0.883819580078125,0.4640960693359375,-0.22043676674365997,0.014697719365358353,0.025056617334485054,24.64202880859375,5.6110076904296875,-88.86076354980469
arm2,462.831,0.143157958984375,-0.884918212890625,0.4619293212890625,-0.22043676674365997,0.014697719365358353,0.025056617334485054,24.51739501953125,5.908966064453125,-89.18479919433594
arm1,302.369,-0.4636993408203125,-0.8352508544921875,0.29998779296875,-0.08219686895608902,-0.026571156457066536,-0.09778621792793274,51.59007263183594,90.30076599121094,-149.79324340820312
arm2,462.851,0.1410675048828125,-0.88043212890625,0.45733642578125,-0.19703903794288635,0.006947122048586607,0.0046213832683861256,24.542739868164062,5.8461151123046875,-89.16763305664062
arm1,302.389,-0.4572601318359375,-0.832733154296875,0.3007965087890625,-0.07999789714813232,-0.05692772939801216,-0.05580414459109306,51.70588684082031,90.31742858886719,-150.0789031982422
arm1,302.409,-0.4555816650390625,-0.8333892822265625,0.3049163818359375,-0.07404093444347382,-0.08521290123462677,-0.01824025623500347,51.808929443359375,90.40696716308594,-150.14862060546875
arm2,462.871,0.1417083740234375,-0.878265380859375,0.45050048828125,-0.17473426461219788,-0.023695476353168488,0.0111059146001935,24.498321533203125,5.7884521484375,-89.23735046386719
arm2,462.892,0.139801025390625,-0.8841552734375,0.4475555419921875,-0.1471279263496399,-0.06222528964281082,0.0159456767141819,24.338851928710938,5.8541717529296875,-89.65997314453125
arm1,302.429,-0.4572296142578125,-0.838470458984375,0.3048248291015625,-0.0616212859749794,-0.10898853838443756,0.009035838767886162,51.807403564453125,90.40394592285156,-150.10153198242188
arm1,302.449,-0.4547576904296875,-0.849273681640625,0.30694580078125,-0.054180681705474854,-0.12220926582813263,0.029529130086302757,51.751007080078125,90.43753051757812,-150.35931396484375
arm1,302.469,-0.45562744140625,-0.8646087646484375,0.313079833984375,-0.053224604576826096,-0.12381541728973389,0.03702646121382713,51.657928466796875,90.26834106445312,-150.24932861328125
arm1,302.489,-0.4651641845703125,-0.86236572265625,0.3135833740234375,-0.05417961627244949,-0.11806166172027588,0.03797907382249832,51.81398010253906,90.42578125,-149.94549560546875
arm1,302.509,-0.45953369140625,-0.857269287109375,0.309906005859375,-0.046940878033638,-0.09818276017904282,0.04201669245958328,51.657012939453125,90.51048278808594,-150.45355224609375
arm1,302.529,-0.45452880859375,-0.8500823974609375,0.304412841796875,-0.025463014841079712,-0.07505427300930023,0.050875697284936905,51.64332580566406,90.3232421875,-150.0458526611328
arm2,462.911,0.1358184814453125,-0.892486572265625,0.45501708984375,-0.13350452482700348,-0.08659800887107849,0.019239474087953568,24.450393676757812,6.2218170166015625,-89.54948425292969
arm2,462.931,0.1314697265625,-0.8963165283203125,0.4676666259765625,-0.12164068222045898,-0.09462743997573853,0.019637616351246834,24.479202270507812,5.8971099853515625,-89.61064147949219
arm2,462.951,0.1302947998046875,-0.8868865966796875,0.466644287109375,-0.09863762557506561,-0.0907733142375946,0.012767726555466652,24.421188354492188,6.0769805908203125,-88.99824523925781
arm2,462.971,0.124908447265625,-0.87799072265625,0.4562225341796875,-0.06883712112903595,-0.0943712443113327,0.0015686018159613013,24.589797973632812,6.2204132080078125,-89.27264404296875
arm2,462.992,0.12164306640625,-0.8700103759765625,0.446502685546875,-0.03387594223022461,-0.09758061915636063,-0.004295412451028824,24.565032958984375,5.97808837890625,-89.59877014160156
arm2,463.013,0.1169586181640625,-0.8553314208984375,0.4395294189453125,0.004750546533614397,-0.07976726442575455,-0.017560617998242378,24.482025146484375,6.0436859130859375,-89.65055847167969
arm1,302.549,-0.4455718994140625,-0.8398590087890625,0.29638671875,0.004537227563560009,-0.04536028951406479,0.053226735442876816,51.77641296386719,90.39759826660156,-150.1515350341797
arm2,463.031,0.1105804443359375,-0.8413543701171875,0.4301910400390625,0.04790467396378517,-0.04212747886776924,-0.029232719913125038,24.257705688476562,6.0447845458984375,-89.29531860351562
arm1,302.569,-0.43463134765625,-0.828399658203125,0.2965850830078125,0.03219575434923172,-0.005879993550479412,0.05832322686910629,51.49272155761719,90.29298400878906,-149.85504150390625
arm1,302.589,-0.423431396484375,-0.819549560546875,0.28875732421875,0.06378111243247986,0.009188970550894737,0.06075762212276459,51.748992919921875,90.37242126464844,-150.237548828125
arm2,463.051,0.1060943603515625,-0.824462890625,0.41162109375,0.09481865167617798,-0.006940197665244341,-0.03579341620206833,24.589828491210938,5.86956787109375,-89.35011291503906
arm2,463.071,0.0989837646484375,-0.81402587890625,0.3899993896484375,0.13058091700077057,-0.0036658411845564842,-0.018620023503899574,24.635269165039062,6.23895263671875,-89.30421447753906
arm2,463.091,0.0890045166015625,-0.831451416015625,0.3779449462890625,0.1517764776945114,-0.028376514092087746,0.00010226538870483637,24.582046508789062,5.713134765625,-88.73811340332031
arm1,302.609,-0.4147796630859375,-0.8119049072265625,0.278472900390625,0.09825679659843445,0.029888655990362167,0.06612122803926468,51.48236083984375,90.37582397460938,-150.63211059570312
arm1,302.629,-0.3988494873046875,-0.826141357421875,0.2762603759765625,0.13010820746421814,0.06369269639253616,0.06344075500965118,51.42793273925781,90.41371154785156,-150.24676513671875
arm1,302.649,-0.3864288330078125,-0.84124755859375,0.2800445556640625,0.15210165083408356,0.0887860581278801,0.043050266802310944,51.40534973144531,90.47044372558594,-150.083740234375
arm1,302.669,-0.3814697265625,-0.8570098876953125,0.2829437255859375,0.15236717462539673,0.09934096783399582,0.0104752779006958,51.54035949707031,90.4437255859375,-149.7947540283203
arm2,463.111,0.079833984375,-0.859283447265625,0.3844451904296875,0.13674506545066833,-0.04635338485240936,0.016635701060295105,24.631301879882812,5.889434814453125,-89.05714416503906
arm1,302.689,-0.3729705810546875,-0.8699493408203125,0.287994384765625,0.12585672736167908,0.09766876697540283,-0.030001308768987656,51.42308044433594,90.40927124023438,-149.37841796875
arm1,302.709,-0.3696746826171875,-0.8884124755859375,0.3046112060546875,0.07828095555305481,0.08773224800825119,-0.08160804212093353,51.59117126464844,90.30647277832031,-149.54185485839844
arm2,463.131,0.0676422119140625,-0.8968963623046875,0.401336669921875,0.09344153106212616,-0.04210590943694115,0.0260624922811985,24.657501220703125,5.9935302734375,-88.71173095703125
arm1,302.729,-0.3772735595703125,-0.8887481689453125,0.306610107421875,0.017949705943465233,0.038955122232437134,-0.13700072467327118,51.56813049316406,90.36235046386719,-149.63368225097656
arm2,463.151,0.055908203125,-0.9351043701171875,0.4242401123046875,0.027047064155340195,0.019833093509078026,0.02726810611784458,24.732223510742188,5.9302825927734375,-88.77507019042969
arm2,463.171,0.044677734375,-0.9619903564453125,0.4378662109375,-0.038227811455726624,0.11009187996387482,0.038546860218048096,24.76995849609375,6.26959228515625,-88.84001159667969
arm2,463.191,0.04656982421875,-0.9708404541015625,0.44342041015625,-0.08839990198612213,0.20252647995948792,0.052140966057777405,24.691177368164062,5.8214874267578125,-88.81118774414062
arm2,463.211,0.0684051513671875,-0.99395751953125,0.4286041259765625,-0.1337309032678604,0.2142190784215927,0.09096452593803406,24.955154418945312,6.144012451171875,-88.50468444824219
arm2,463.231,0.0797576904296875,-0.9953765869140625,0.4177093505859375,-0.148162841796875,0.17901688814163208,0.12534700334072113,24.58172607421875,6.1013641357421875,-88.250732421875
arm2,463.251,0.0991668701171875,-0.9923553466796875,0.4206085205078125,-0.13421905040740967,0.1418202519416809,0.1509985625743866,24.150497436523438,5.907470703125,-88.9677734375
arm1,302.749,-0.395263671875,-0.89508056640625,0.310333251953125,-0.05277053639292717,0.007790545001626015,-0.19675646722316742,51.97639465332031,90.52743530273438,-149.6257781982422
arm1,302.769,-0.4114837646484375,-0.9054412841796875,0.3162841796875,-0.12161724269390106,0.012191951274871826,-0.24054336547851562,51.96922302246094,90.42352294921875,-149.6167449951172
arm1,302.789,-0.4278717041015625,-0.9047393798828125,0.31927490234375,-0.1791444569826126,0.04150483384728432,-0.2705475986003876,52.226318359375,90.54966735839844,-149.96463012695312
arm2,463.271,0.117828369140625,-0.9659271240234375,0.408538818359375,-0.13421905040740967,0.1418202519416809,0.1509985625743866,24.279830932617188,6.0445709228515625,-89.34051513671875
arm1,302.808,-0.4226226806640625,-0.8899383544921875,0.3305206298828125,-0.20765173435211182,0.04065554961562157,-0.2638761103153229,52.423004150390625,90.60830688476562,-149.8704071044922
arm1,302.829,-0.4219818115234375,-0.8631744384765625,0.3226470947265625,-0.19306187331676483,-0.007182279136031866,-0.2395167201757431,52.59202575683594,90.38597106933594,-150.39031982421875
arm2,463.291,0.1204071044921875,-0.9312286376953125,0.3894500732421875,-0.08531596511602402,0.12417254596948624,0.16601453721523285,24.494155883789062,6.2053985595703125,-89.24871826171875
arm2,463.311,0.1290130615234375,-0.8964385986328125,0.363525390625,0.024505876004695892,0.02449815161526203,0.24231943488121033,24.542678833007812,6.0002899169921875,-89.5960693359375
arm1,302.849,-0.422119140625,-0.84844970703125,0.3043975830078125,-0.1363043189048767,-0.07660716027021408,-0.18997445702552795,52.74592590332031,90.48089599609375,-150.44358825683594
arm2,463.331,0.131439208984375,-0.8755340576171875,0.3512420654296875,0.037281859666109085,-0.05832908675074577,0.2510439455509186,24.082901000976562,6.054656982421875,-89.16783142089844
arm1,302.869,-0.426544189453125,-0.8345489501953125,0.29156494140625,-0.055564191192388535,-0.11337236315011978,-0.15254506468772888,52.82061767578125,90.52687072753906,-150.28732299804688
arm1,302.889,-0.4273834228515625,-0.829559326171875,0.2792510986328125,0.02846280112862587,-0.09027609974145889,-0.1388377845287323,52.85215759277344,90.41854858398438,-150.35325622558594
arm2,463.351,0.111083984375,-0.8631439208984375,0.3759002685546875,0.037281859666109085,-0.05832908675074577,0.2510439455509186,23.845657348632812,6.0518951416015625,-89.58903503417969
arm2,463.371,0.1027984619140625,-0.8693084716796875,0.421722412109375,0.01576538011431694,-0.14607039093971252,0.1652374267578125,23.9581298828125,6.363067626953125,-89.800537109375
arm1,302.909,-0.4316558837890625,-0.8376922607421875,0.28094482421875,0.09088942408561707,-0.0210629403591156,-0.14725282788276672,53.07014465332031,90.43595886230469,-149.994384765625
arm2,463.391,0.11865234375,-0.8865203857421875,0.406158447265625,0.01576538011431694,-0.14607039093971252,0.1652374267578125,23.340423583984375,6.6554107666015625,-89.697998046875
arm1,302.929,-0.4351348876953125,-0.8572998046875,0.2851409912109375,0.12221246212720871,0.03081224113702774,-0.15549904108047485,53.247283935546875,90.63877868652344,-149.92672729492188
arm1,302.949,-0.4405059814453125,-0.873504638671875,0.289825439453125,0.12402980029582977,0.07039480656385422,-0.17093846201896667,53.4063720703125,90.49583435058594,-149.99078369140625
arm2,463.417,0.1282806396484375,-0.8967132568359375,0.4077911376953125,-0.170635387301445,-0.138225257396698,0.041963960975408554,22.978683471679688,6.117156982421875,-89.08001708984375
arm2,463.433,0.12548828125,-0.9050140380859375,0.44775390625,-0.24895869195461273,-0.01872042380273342,-0.009379120543599129,23.455963134765625,6.3983612060546875,-89.73239135742188
arm1,302.969,-0.44146728515625,-0.881103515625,0.291015625,0.10545531660318375,0.10016388446092606,-0.1751593053340912,53.36872863769531,90.51296997070312,-150.19883728027344
arm2,463.453,0.127838134765625,-0.91033935546875,0.46484375,-0.2934134900569916,0.10906177014112473,-0.052503421902656555,23.48150634765625,6.2806854248046875,-89.67039489746094
arm1,302.989,-0.4343719482421875,-0.8765716552734375,0.29388427734375,0.07706335932016373,0.10394477099180222,-0.16806544363498688,53.45118713378906,90.53427124023438,-150.20237731933594
arm1,303.009,-0.428924560546875,-0.8671417236328125,0.2954559326171875,0.05396895855665207,0.06239546835422516,-0.1454019397497177,53.54917907714844,90.50592041015625,-149.6234893798828
arm2,463.474,0.131439208984375,-0.9073333740234375,0.4687957763671875,-0.3058438003063202,0.2268749624490738,-0.07956060767173767,23.530319213867188,6.2275848388671875,-89.96882629394531
arm2,463.495,0.1435089111328125,-0.9067535400390625,0.4402923583984375,-0.2831251919269562,0.22614018619060516,-0.10284488648176193,23.450607299804688,6.361907958984375,-90.29075622558594
arm1,303.029,-0.428619384765625,-0.860382080078125,0.2915802001953125,0.047205861657857895,0.0013422331539914012,-0.10691046714782715,53.75621032714844,90.62388610839844,-150.09738159179688
arm2,463.512,0.1478118896484375,-0.8936767578125,0.4163055419921875,-0.22238300740718842,0.13190077245235443,-0.08934558928012848,23.5316162109375,6.436279296875,-90.55258178710938
arm1,303.049,-0.4336700439453125,-0.858306884765625,0.283721923828125,0.055270444601774216,-0.036973997950553894,-0.06726133078336716,53.79692077636719,90.547119140625,-149.7318878173828
arm1,303.069,-0.432159423828125,-0.854522705078125,0.2802276611328125,0.06709062308073044,-0.042091261595487595,-0.03759611025452614,53.86993408203125,90.54115295410156,-149.70480346679688
arm2,463.533,0.1399688720703125,-0.8905487060546875,0.4124908447265625,-0.16172312200069427,0.0255743358284235,-0.08589333295822144,23.642044067382812,6.58404541015625,-90.64366149902344
arm1,303.089,-0.431182861328125,-0.8632659912109375,0.28033447265625,0.08184053748846054,-0.028325114399194717,-0.014085458591580391,53.89305114746094,90.61212158203125,-149.99928283691406
arm2,463.552,0.1267242431640625,-0.90277099609375,0.4050445556640625,-0.12988609075546265,-0.06796147674322128,-0.07148537039756775,23.507003784179688,6.3642730712890625,-90.22882080078125
arm2,463.573,0.1053009033203125,-0.904937744140625,0.408447265625,-0.09214350581169128,-0.1177774965763092,-0.0724334567785263,23.781784057617188,6.2735443115234375,-90.66294860839844
arm1,303.109,-0.4266204833984375,-0.8732757568359375,0.286407470703125,0.084989994764328,0.0013289173366501927,-0.0021430456545203924,53.8756103515625,90.64559936523438,-149.7643585205078
arm1,303.129,-0.4205474853515625,-0.8813018798828125,0.2927703857421875,0.08002772182226181,0.02515755034983158,0.007112238090485334,53.69349670410156,90.67947387695312,-149.55238342285156
arm2,463.594,0.1056060791015625,-0.9101409912109375,0.4280242919921875,-0.06761659681797028,-0.09384260326623917,-0.09578298777341843,23.81439208984375,6.1696624755859375,-90.23381042480469
arm1,303.149,-0.413299560546875,-0.8804168701171875,0.2942352294921875,0.06621310859918594,0.030600786209106445,0.013204751536250114,53.68061828613281,90.61857604980469,-149.61172485351562
arm2,463.615,0.102569580078125,-0.9173583984375,0.433502197265625,-0.0641438290476799,-0.0385601744055748,-0.129673570394516,23.526016235351562,6.108367919921875,-90.7227783203125
arm2,463.63,0.0944976806640625,-0.92938232421875,0.4251861572265625,-0.05329970642924309,0.029108084738254547,-0.12243963032960892,24.067718505859375,6.0218505859375,-90.67901611328125
arm1,303.169,-0.405853271484375,-0.8850860595703125,0.29827880859375,0.0505870096385479,0.01233336515724659,0.02195909433066845,53.76930236816406,90.60102844238281,-149.39956665039062
arm1,303.189,-0.406707763671875,-0.8854827880859375,0.300445556640625,0.0355614572763443,-0.012084892019629478,0.01986771449446678,53.783660888671875,90.66923522949219,-149.71693420410156
arm2,463.652,0.07818603515625,-0.909820556640625,0.425018310546875,-0.041067276149988174,0.03708132356405258,-0.08997303247451782,24.068710327148438,6.0605010986328125,-91.16950988769531
arm2,463.671,0.07952880859375,-0.9117584228515625,0.4093780517578125,-0.04667988792061806,0.044377852231264114,-0.08010762184858322,24.287078857421875,6.1155853271484375,-91.40190124511719
arm1,303.209,-0.411224365234375,-0.8818206787109375,0.294036865234375,0.023902669548988342,-0.0308079794049263,0.0215953066945076,53.74537658691406,90.64651489257812,-149.72340393066406
arm1,303.229,-0.412689208984375,-0.877655029296875,0.292205810546875,0.021678397431969643,-0.01973295770585537,0.01949460618197918,53.73271179199219,90.77061462402344,-149.73484802246094
arm1,303.249,-0.4131317138671875,-0.8711090087890625,0.28900146484375,0.025486983358860016,0.006202768534421921,0.019292471930384636,53.829315185546875,90.71792602539062,-149.6541748046875
arm2,463.692,0.0848236083984375,-0.8945770263671875,0.3795013427734375,-0.030121950432658195,-0.03285781666636467,-0.05130899325013161,24.29241943359375,5.964813232421875,-91.66282653808594
arm2,463.713,0.073944091796875,-0.9008636474609375,0.38018798828125,-0.010341587476432323,-0.021147362887859344,-0.06590737402439117,24.29864501953125,5.990966796875,-91.169189453125
arm1,303.269,-0.4087066650390625,-0.8662261962890625,0.288909912109375,0.03550446406006813,0.052792374044656754,0.019170498475432396,53.519866943359375,90.67457580566406,-149.4752655029297
arm1,303.289,-0.3987884521484375,-0.8686676025390625,0.29498291015625,0.044924065470695496,0.09264178574085236,0.020911939442157745,53.58253479003906,90.65335083007812,-149.46388244628906
arm1,303.308,-0.39422607421875,-0.8699188232421875,0.295196533203125,0.04910016804933548,0.08927581459283829,0.02611575648188591,53.545013427734375,90.70597839355469,-149.5843963623047
arm2,463.732,0.069244384765625,-0.881195068359375,0.41748046875,0.0005446164286695421,0.025438513606786728,-0.07682793587446213,24.16961669921875,6.03961181640625,-90.94625854492188
arm2,463.751,0.0709991455078125,-0.9084320068359375,0.3970184326171875,0.008735435083508492,0.056414540857076645,-0.048770733177661896,24.25830078125,6.380035400390625,-91.2584228515625
arm2,463.771,0.05328369140625,-0.906585693359375,0.3890533447265625,0.01366201601922512,0.05717647075653076,0.001216798322275281,24.34173583984375,5.8609771728515625,-91.56631469726562
arm1,303.329,-0.3880767822265625,-0.87567138671875,0.29742431640625,0.04392910748720169,0.04488358646631241,0.04094290733337402,53.482757568359375,90.74209594726562,-149.37196350097656
arm2,463.791,0.0480194091796875,-0.9087677001953125,0.3729400634765625,0.028304874897003174,0.04497040435671806,0.04156794771552086,24.677413940429688,6.0963134765625,-90.76043701171875
arm2,463.812,0.0508880615234375,-0.899658203125,0.4006805419921875,0.06163353845477104,0.08166583627462387,0.03845497965812683,24.084228515625,6.37652587890625,-90.95648193359375
arm1,303.349,-0.385009765625,-0.880218505859375,0.29949951171875,0.04392910748720169,0.04488358646631241,0.04094290733337402,53.64347839355469,90.7059326171875,-149.657470703125
arm1,303.369,-0.382781982421875,-0.8770599365234375,0.299713134765625,0.037333257496356964,0.0235239677131176,0.04499117657542229,53.54754638671875,90.85081481933594,-149.69671630859375
arm2,463.832,0.063812255859375,-0.90020751953125,0.429046630859375,0.06163353845477104,0.08166583627462387,0.03845497965812683,24.310333251953125,5.988616943359375,-91.41397094726562
arm2,463.85,0.087890625,-0.894134521484375,0.4329376220703125,0.13714507222175598,0.23177863657474518,-0.02033989317715168,24.419357299804688,6.111541748046875,-91.01864624023438
arm1,303.389,-0.3813018798828125,-0.877044677734375,0.2990570068359375,0.03177976608276367,0.009352223016321659,0.053516753017902374,53.42024230957031,90.7386474609375,-149.56448364257812
arm2,463.87,0.0938568115234375,-0.9017791748046875,0.428436279296875,0.13714507222175598,0.23177863657474518,-0.02033989317715168,24.002609252929688,6.25848388671875,-91.69575500488281
arm1,303.409,-0.378692626953125,-0.8764190673828125,0.3009033203125,0.029273999854922295,-0.007035006303340197,0.054001182317733765,53.379974365234375,90.83268737792969,-149.53114318847656
arm1,303.429,-0.3780059814453125,-0.8746337890625,0.2998504638671875,0.029217539355158806,-0.019595805555582047,0.05282672867178917,53.29148864746094,90.65739440917969,-149.42811584472656
arm2,463.89,0.10296630859375,-0.906829833984375,0.4129486083984375,0.16279824078083038,0.2091958224773407,-0.001186970854178071,24.455276489257812,5.998626708984375,-91.74267578125
arm2,463.91,0.1023101806640625,-0.9120941162109375,0.3900604248046875,0.15053091943264008,0.12184920907020569,0.02136760577559471,23.904129028320312,6.4283905029296875,-90.91856384277344
arm1,303.449,-0.378265380859375,-0.874908447265625,0.2993011474609375,0.028747757896780968,-0.02977920137345791,0.04577920585870743,53.281585693359375,90.80812072753906,-149.4647979736328
arm2,463.932,0.097930908203125,-0.916839599609375,0.3792877197265625,0.13949237763881683,0.023501597344875336,0.03971092775464058,24.33843994140625,6.0637969970703125,-91.2144775390625
arm1,303.469,-0.3780670166015625,-0.8747100830078125,0.2998046875,0.03045511059463024,-0.034627486020326614,0.03430817276239395,53.33842468261719,90.88102722167969,-149.38243103027344
arm1,303.489,-0.3804473876953125,-0.87396240234375,0.3009185791015625,0.029754966497421265,-0.034213095903396606,0.020307933911681175,53.257568359375,90.75273132324219,-149.46109008789062
arm2,463.952,0.0880279541015625,-0.91754150390625,0.380615234375,0.14070890843868256,-0.035358257591724396,0.052986785769462585,24.48211669921875,6.2321624755859375,-90.73796081542969
arm2,463.97,0.0770416259765625,-0.91656494140625,0.3914031982421875,0.146798238158226,-0.040294960141181946,0.061464957892894745,24.045578002929688,6.29229736328125,-90.25065612792969
arm1,303.509,-0.3833465576171875,-0.8746490478515625,0.30029296875,0.031097466126084328,-0.022096779197454453,0.0038400120101869106,53.31953430175781,90.60835266113281,-149.33888244628906
arm2,463.99,0.072845458984375,-0.9173431396484375,0.39508056640625,0.15908099710941315,-0.021620074287056923,0.07340284436941147,24.3712158203125,6.0694122314453125,-90.4305419921875
arm1,303.531,-0.3829345703125,-0.877410888671875,0.3026275634765625,0.03358778730034828,-0.003995806910097599,-0.005486910697072744,53.21014404296875,90.85446166992188,-149.35733032226562
arm1,303.549,-0.3798370361328125,-0.8783721923828125,0.3058319091796875,0.03704723343253136,0.0054155378602445126,-0.016825851052999496,53.37211608886719,90.90301513671875,-148.9852294921875
arm2,464.01,0.0770263671875,-0.9189605712890625,0.3951568603515625,0.15655818581581116,-0.0122481444850564,0.08022799342870712,24.379562377929688,6.0489501953125,-90.45689392089844
arm2,464.031,0.0843658447265625,-0.92181396484375,0.392364501953125,0.14054033160209656,-0.015558453276753426,0.08241870999336243,24.153640747070312,5.805023193359375,-90.66221618652344
arm1,303.569,-0.381683349609375,-0.88330078125,0.3076171875,0.04139591008424759,-0.00020240024605300277,-0.02636689320206642,53.3441162109375,90.8160400390625,-149.11810302734375
arm2,464.05,0.08758544921875,-0.914794921875,0.385467529296875,0.1214638501405716,-0.01594354584813118,0.07775604724884033,24.677505493164062,5.8067474365234375,-90.83528137207031
arm1,303.589,-0.381256103515625,-0.88433837890625,0.3061065673828125,0.041735727339982986,-0.01543648075312376,-0.034208569675683975,53.41377258300781,90.79261779785156,-149.29183959960938
arm1,303.609,-0.3849029541015625,-0.883270263671875,0.3033599853515625,0.04193359985947609,-0.02857971377670765,-0.043954942375421524,53.43983459472656,90.80390930175781,-149.29127502441406
arm2,464.07,0.089324951171875,-0.91253662109375,0.3834991455078125,0.09239411354064941,-0.01926264353096485,0.06876201927661896,23.9337158203125,6.315582275390625,-90.22897338867188
arm2,464.09,0.088134765625,-0.9095916748046875,0.3845977783203125,0.06834922730922699,-0.01131044514477253,0.056958623230457306,24.115554809570312,6.0829620361328125,-90.44160461425781
arm1,303.629,-0.3876495361328125,-0.8783111572265625,0.2992706298828125,0.040665403008461,-0.03405890241265297,-0.05468295142054558,53.4306640625,90.88822937011719,-149.4696502685547
arm2,464.11,0.0875701904296875,-0.90704345703125,0.390411376953125,0.06834922730922699,-0.01131044514477253,0.056958623230457306,23.541168212890625,6.183502197265625,-90.29794311523438
arm1,303.649,-0.39141845703125,-0.875030517578125,0.29571533203125,0.042929090559482574,-0.018208298832178116,-0.06359308958053589,53.38519287109375,90.96577453613281,-149.3583984375
arm1,303.671,-0.3904266357421875,-0.8752899169921875,0.297943115234375,0.04005953669548035,0.005337241105735302,-0.07307687401771545,53.53269958496094,90.82492065429688,-149.30978393554688
arm2,464.13,0.0872039794921875,-0.908050537109375,0.3901214599609375,0.030290260910987854,0.018257567659020424,0.03232651576399803,24.220962524414062,6.087188720703125,-90.41053771972656
arm2,464.15,0.0897369384765625,-0.9073486328125,0.3891448974609375,0.030290260910987854,0.018257567659020424,0.03232651576399803,24.283798217773438,6.017578125,-90.02044677734375
arm1,303.69,-0.392120361328125,-0.8761749267578125,0.299407958984375,0.03399551659822464,0.014160560443997383,-0.07979363203048706,53.40733337402344,90.83842468261719,-149.1616973876953
arm2,464.172,0.0896148681640625,-0.9110565185546875,0.3887481689453125,-0.002692455891519785,0.037400104105472565,0.020673586055636406,23.594650268554688,5.8583221435546875,-90.18679809570312
arm1,303.709,-0.3965606689453125,-0.874755859375,0.29901123046875,0.024744760245084763,0.008502940647304058,-0.08049244433641434,53.48469543457031,90.84896850585938,-149.2420196533203
arm1,303.729,-0.3981475830078125,-0.874786376953125,0.2969970703125,0.016278838738799095,-0.0010612696642056108,-0.07581912726163864,53.80101013183594,90.93341064453125,-149.23782348632812
arm2,464.19,0.0891265869140625,-0.9161376953125,0.3931884765625,-0.02129863016307354,0.04604765400290489,0.016400277614593506,24.237350463867188,6.0785675048828125,-90.11456298828125
arm2,464.21,0.0889739990234375,-0.9211578369140625,0.3975067138671875,-0.02129863016307354,0.04604765400290489,0.016400277614593506,24.05364990234375,6.0958251953125,-90.49520874023438
arm1,303.748,-0.4028472900390625,-0.87530517578125,0.295135498046875,0.013522466644644737,-0.003084473079070449,-0.06904485076665878,53.88688659667969,90.81089782714844,-149.26536560058594
arm1,303.768,-0.4006195068359375,-0.8727874755859375,0.2975311279296875,0.010361560620367527,0.005277319811284542,-0.06205431744456291,53.86030578613281,90.94712829589844,-149.43426513671875
arm2,464.23,0.0926513671875,-0.919189453125,0.401092529296875,-0.05579641833901405,0.049911633133888245,0.0017150756902992725,23.977447509765625,6.2393646240234375,-90.17036437988281
arm1,303.784,-0.398406982421875,-0.8726654052734375,0.2995147705078125,0.008684568107128143,0.010420150123536587,-0.050039730966091156,53.86030578613281,90.94712829589844,-149.43426513671875
arm2,464.25,0.093658447265625,-0.9172821044921875,0.401123046875,-0.06796520203351974,0.043948814272880554,0.001219727797433734,24.002365112304688,6.33038330078125,-89.96717834472656
arm2,464.27,0.093536376953125,-0.91802978515625,0.400848388671875,-0.07399646192789078,0.022936740890145302,0.002679672557860613,24.273452758789062,6.0469970703125,-90.702392578125
arm2,464.29,0.0936279296875,-0.917083740234375,0.4027862548828125,-0.07992812246084213,0.010307498276233673,-0.0023513049818575382,23.861892700195312,5.841949462890625,-90.44183349609375
arm1,303.806,-0.395477294921875,-0.8696746826171875,0.2991943359375,0.006385727785527706,0.00395825644955039,-0.03844672441482544,53.967498779296875,90.88101196289062,-148.90878295898438
arm1,303.829,-0.390106201171875,-0.86767578125,0.2991943359375,-0.00041438787593506277,-0.014174141921103,-0.026615630835294724,54.10569763183594,90.73838806152344,-149.04629516601562
arm1,303.849,-0.389373779296875,-0.86871337890625,0.3008575439453125,-0.00948111992329359,-0.03500485420227051,-0.01900911144912243,54.123504638671875,90.75775146484375,-149.22789001464844
arm2,464.31,0.0896148681640625,-0.9143218994140625,0.404693603515625,-0.08263495564460754,0.01245160959661007,-0.0057524279691278934,24.467575073242188,5.974639892578125,-90.18302917480469
arm2,464.331,0.0881805419921875,-0.914581298828125,0.404510498046875,-0.0974234938621521,-0.0022498385515064,-9.58738019107841e-06,24.33172607421875,6.6976165771484375,-90.59095764160156
arm1,303.871,-0.390045166015625,-0.866546630859375,0.3022918701171875,-0.018456505611538887,-0.044311802834272385,-0.013747770339250565,54.071685791015625,90.73820495605469,-149.42459106445312
arm2,464.35,0.08795166015625,-0.9249114990234375,0.40692138671875,-0.11807417869567871,-0.02971901372075081,0.010355168953537941,24.200881958007812,6.285400390625,-90.65510559082031
arm1,303.889,-0.38763427734375,-0.8681488037109375,0.30474853515625,-0.02719753235578537,-0.04753715917468071,-0.004846686962991953,54.07600402832031,90.76577758789062,-149.26968383789062
arm1,303.91,-0.38653564453125,-0.8718109130859375,0.308349609375,-0.031063644215464592,-0.04687163606286049,-0.0013691311469301581,54.181549072265625,90.75559997558594,-149.22779846191406
arm1,303.93,-0.3900604248046875,-0.876800537109375,0.309295654296875,-0.027226828038692474,-0.0431317575275898,-0.0056951697915792465,54.065460205078125,90.82319641113281,-148.81149291992188
arm2,464.372,0.0902862548828125,-0.91888427734375,0.4163055419921875,-0.13835866749286652,-0.04794515669345856,0.009314405731856823,24.19384765625,5.91558837890625,-90.54124450683594
arm2,464.39,0.092620849609375,-0.912506103515625,0.4219207763671875,-0.14585253596305847,-0.05342061445116997,-0.007739678490906954,24.185897827148438,5.978485107421875,-90.67167663574219
arm2,464.41,0.0894927978515625,-0.9029541015625,0.4228363037109375,-0.1367594450712204,-0.044383976608514786,-0.029095035046339035,24.406997680664062,6.1193084716796875,-90.92324829101562
arm1,303.95,-0.406341552734375,-0.878173828125,0.317413330078125,-0.035355858504772186,-0.00042104575550183654,-0.0060299295000731945,53.95613098144531,90.77313232421875,-149.44363403320312
arm1,303.968,-0.41644287109375,-0.871429443359375,0.301971435546875,0.0009321063989773393,0.13687528669834137,-0.01901337131857872,53.95613098144531,90.77313232421875,-149.44363403320312
arm2,464.431,0.0865631103515625,-0.89703369140625,0.416229248046875,-0.11451459676027298,-0.044200483709573746,-0.04882106930017471,24.051177978515625,6.2101287841796875,-90.98341369628906
arm2,464.45,0.0820465087890625,-0.8866119384765625,0.4121856689453125,-0.08071056008338928,-0.02756478264927864,-0.071813203394413,24.105316162109375,6.1121368408203125,-90.84046936035156
arm1,303.989,-0.430084228515625,-0.8709869384765625,0.28802490234375,0.03261067345738411,0.2909756600856781,-0.03099972754716873,54.036468505859375,90.97328186035156,-148.9643096923828
arm2,464.47,0.0776824951171875,-0.8885498046875,0.4124298095703125,-0.04332936555147171,0.0021401161793619394,-0.08421554416418076,24.129837036132812,6.1208343505859375,-90.78976440429688
arm1,304.009,-0.4471893310546875,-0.8624420166015625,0.3125152587890625,0.051487427204847336,0.4643873870372772,-0.038013163954019547,53.85218811035156,90.70433044433594,-148.98684692382812
arm1,304.028,-0.4460296630859375,-0.8675537109375,0.290313720703125,0.10117801278829575,0.6747264862060547,-0.02719540148973465,54.10929870605469,90.85614013671875,-149.3306121826172
arm2,464.492,0.0724945068359375,-0.8944854736328125,0.409698486328125,-0.014917430467903614,0.03635933995246887,-0.08738657087087631,24.045455932617188,6.0568389892578125,-91.19529724121094
arm2,464.51,0.0730438232421875,-0.9014892578125,0.4081878662109375,-0.014917430467903614,0.03635933995246887,-0.08738657087087631,24.479904174804688,6.099212646484375,-90.85389709472656
arm1,304.048,-0.4194793701171875,-0.868011474609375,0.2987213134765625,0.13404248654842377,0.8406717777252197,-0.037999048829078674,53.96638488769531,90.78517150878906,-148.8914794921875
arm1,304.068,-0.383941650390625,-0.8708343505859375,0.318084716796875,0.1322549730539322,0.7913244962692261,-0.02515115961432457,54.083984375,90.87091064453125,-148.95338439941406
arm1,304.088,-0.3620452880859375,-0.8738555908203125,0.32196044921875,0.11149643361568451,0.5485491156578064,-0.022068550810217857,54.09074401855469,90.90985107421875,-148.65408325195312
arm2,464.532,0.0756378173828125,-0.90380859375,0.4083099365234375,0.02202567271888256,0.040215861052274704,-0.0736694261431694,24.173629760742188,6.3631134033203125,-90.85711669921875
arm2,464.55,0.07366943359375,-0.9089202880859375,0.4074859619140625,0.03747706860303879,0.027366910129785538,-0.056775130331516266,24.461700439453125,5.9261474609375,-90.74517822265625
arm2,464.57,0.0736846923828125,-0.9145050048828125,0.4067230224609375,0.05073508247733116,0.007850199937820435,-0.03831436485052109,24.744796752929688,6.0915985107421875,-91.39169311523438
arm1,304.108,-0.356536865234375,-0.875244140625,0.3111419677734375,0.08352099359035492,0.255350798368454,-0.024088025093078613,54.15919494628906,90.93778991699219,-148.2202606201172
arm2,464.59,0.0734100341796875,-0.9168548583984375,0.404327392578125,0.05073508247733116,0.007850199937820435,-0.03831436485052109,24.60186767578125,5.930328369140625,-91.36570739746094
arm1,304.128,-0.3651580810546875,-0.874481201171875,0.3034820556640625,0.04789428785443306,-0.033433057367801666,-0.028186630457639694,54.08941650390625,90.89985656738281,-148.3467559814453
arm1,304.148,-0.3723602294921875,-0.8752593994140625,0.301361083984375,0.014971226453781128,-0.2759562134742737,-0.014084925875067711,54.01255798339844,90.94845581054688,-148.25747680664062
arm2,464.61,0.0710906982421875,-0.914794921875,0.4037628173828125,0.0785539299249649,-0.006293049547821283,-0.0035723643377423286,24.374420166015625,6.36236572265625,-90.89767456054688
arm2,464.631,0.07147216796875,-0.91156005859375,0.404327392578125,0.09420879185199738,0.004600610584020615,0.00782676413655281,25.032272338867188,6.1779022216796875,-90.9654541015625
arm1,304.169,-0.3952484130859375,-0.875,0.281280517578125,-0.00836951658129692,-0.4356827735900879,-0.0005576659459620714,53.89750671386719,90.94601440429688,-148.67489624023438
arm2,464.65,0.0746612548828125,-0.90948486328125,0.4008026123046875,0.09921526908874512,0.013493970967829227,0.01599840819835663,24.826889038085938,6.384674072265625,-91.12751770019531
arm1,304.188,-0.4109039306640625,-0.8740386962890625,0.273406982421875,-0.017546236515045166,-0.4334859251976013,0.003756921272724867,54.140228271484375,90.80322265625,-148.70675659179688
arm1,304.208,-0.4092559814453125,-0.87554931640625,0.2742156982421875,-0.022599851712584496,-0.34952443838119507,0.0015749934827908874,53.94285583496094,90.82171630859375,-148.58949279785156
arm2,464.672,0.075653076171875,-0.90814208984375,0.39727783203125,0.10544919222593307,0.014947257936000824,0.022722622379660606,24.156524658203125,6.0119781494140625,-90.82255554199219
arm2,464.69,0.0785675048828125,-0.908660888671875,0.394439697265625,0.10277964174747467,0.011063836514949799,0.027709126472473145,24.496139526367188,6.23187255859375,-91.04039001464844
arm1,304.228,-0.4046478271484375,-0.8733367919921875,0.2846832275390625,-0.02768542431294918,-0.28036242723464966,0.0013765880139544606,53.9608154296875,90.766357421875,-148.8805389404297
arm2,464.71,0.081787109375,-0.9072113037109375,0.3954010009765625,0.09039168059825897,0.013715812005102634,0.027891285717487335,24.580535888671875,6.049224853515625,-90.49031066894531
arm1,304.248,-0.3980560302734375,-0.8739471435546875,0.291168212890625,-0.02750459499657154,-0.24407099187374115,0.0005291700945235789,54.02056884765625,90.91012573242188,-148.662109375
arm1,304.268,-0.3962860107421875,-0.873382568359375,0.2977447509765625,-0.029135514050722122,-0.23903734982013702,0.00905501376837492,54.08964538574219,90.96026611328125,-149.1253204345703
arm2,464.735,0.0835418701171875,-0.907501220703125,0.3952789306640625,0.07880719751119614,0.020366523414850235,0.025562617927789688,24.797637939453125,6.2225341796875,-90.59388732910156
arm2,464.75,0.0836029052734375,-0.909820556640625,0.394378662109375,0.059785038232803345,0.022550316527485847,0.03050757572054863,24.597183227539062,6.09185791015625,-90.77500915527344
arm1,304.288,-0.3950347900390625,-0.8720703125,0.3040771484375,-0.027150128036737442,-0.2505890727043152,0.014635934494435787,53.96690368652344,90.94979858398438,-149.08135986328125
arm2,464.77,0.0845489501953125,-0.9100494384765625,0.394012451171875,0.04632382094860077,0.018570488318800926,0.027764519676566124,24.591201782226562,5.920440673828125,-90.5660400390625
arm1,304.306,-0.3958892822265625,-0.8766937255859375,0.305877685546875,-0.02347523160278797,-0.25273293256759644,0.01888900250196457,54.07232666015625,90.93002319335938,-148.8064422607422
arm1,304.328,-0.3989105224609375,-0.8777008056640625,0.305908203125,-0.01858753338456154,-0.2275271713733673,0.016156865283846855,53.873809814453125,90.88154602050781,-148.84996032714844
arm1,304.348,-0.4014129638671875,-0.8790130615234375,0.3048553466796875,-0.011730159632861614,-0.1686452031135559,0.01031522173434496,54.01173400878906,90.90138244628906,-149.13800048828125
arm2,464.79,0.0878143310546875,-0.913177490234375,0.3951873779296875,0.025288045406341553,0.013853764161467552,0.02738022617995739,24.401016235351562,6.1969451904296875,-90.86216735839844
arm2,464.81,0.0892181396484375,-0.9141998291015625,0.39727783203125,0.013049222528934479,0.013253487646579742,0.024274978786706924,24.85125732421875,6.015106201171875,-90.7032470703125
arm2,464.83,0.0889129638671875,-0.9163818359375,0.3988189697265625,0.013049222528934479,0.013253487646579742,0.024274978786706924,24.661788940429688,5.9928741455078125,-90.67527770996094
arm1,304.368,-0.396881103515625,-0.87841796875,0.3037261962890625,-0.0059841228649020195,-0.09614197909832001,0.0024868599139153957,53.929718017578125,90.81776428222656,-148.8743133544922
arm1,304.388,-0.392578125,-0.8770599365234375,0.30877685546875,0.0020658141002058983,-0.02774720825254917,-0.003867708845064044,53.98497009277344,90.87321472167969,-148.76832580566406
arm2,464.85,0.0916900634765625,-0.914764404296875,0.400634765625,-0.01606631837785244,0.010426275432109833,0.020532172173261642,24.45269775390625,5.8526611328125,-90.91171264648438
arm2,464.87,0.0926361083984375,-0.9130096435546875,0.40032958984375,-0.0296697448939085,0.011709919199347496,0.01834198832511902,24.232009887695312,5.829864501953125,-91.20742797851562
arm1,304.408,-0.38909912109375,-0.8768463134765625,0.310638427734375,0.008562062866985798,0.015604259446263313,-0.010686732828617096,53.954071044921875,90.83940124511719,-148.9145050048828
arm2,464.89,0.0922698974609375,-0.9097137451171875,0.4013671875,-0.031571242958307266,0.01570599153637886,0.01070857048034668,24.148086547851562,5.5947418212890625,-90.65892028808594
arm1,304.428,-0.3863983154296875,-0.8762664794921875,0.312286376953125,0.0181110929697752,0.03532363474369049,-0.01320927869528532,54.02728271484375,90.90495300292969,-148.9858856201172
arm1,304.448,-0.385009765625,-0.87298583984375,0.3134002685546875,0.023783626034855843,0.03039279393851757,-0.014787468127906322,54.06614685058594,90.73789978027344,-148.87115478515625
arm2,464.91,0.0930328369140625,-0.90777587890625,0.4014434814453125,-0.03459526225924492,0.016535833477973938,0.006021406967192888,23.815521240234375,5.9130401611328125,-90.82948303222656
arm2,464.93,0.0932159423828125,-0.9052581787109375,0.402557373046875,-0.038415297865867615,0.01209847442805767,-0.002496180823072791,24.012176513671875,5.97735595703125,-90.68492126464844
arm1,304.469,-0.3867645263671875,-0.8736114501953125,0.3065948486328125,0.025885924696922302,0.01452887523919344,-0.013338974677026272,54.213043212890625,90.91239929199219,-149.0424041748047
arm2,464.95,0.0907135009765625,-0.902130126953125,0.403411865234375,-0.03833993151783943,0.02105308696627617,-0.01065104641020298,24.413818359375,6.175262451171875,-90.51029968261719
arm1,304.488,-0.3856201171875,-0.8724365234375,0.302154541015625,0.02251409739255905,0.010922955349087715,-0.01336054690182209,54.1038818359375,90.84521484375,-149.0355987548828
arm1,304.508,-0.3830108642578125,-0.870635986328125,0.30023193359375,0.016156066209077835,0.0181110929697752,-0.012823387049138546,54.06166076660156,90.88796997070312,-149.0528106689453
arm2,464.97,0.08795166015625,-0.904754638671875,0.40435791015625,-0.034141458570957184,0.027583157643675804,-0.015330753289163113,24.15142822265625,6.2415771484375,-91.19468688964844
arm2,464.99,0.0892791748046875,-0.9071502685546875,0.4083404541015625,-0.03616679087281227,0.029523270204663277,-0.02087598666548729,24.474685668945312,5.9989471435546875,-91.6512451171875
arm1,304.528,-0.380767822265625,-0.8748931884765625,0.3022613525390625,0.007959122769534588,0.0255703404545784,-0.017414676025509834,54.125091552734375,90.85760498046875,-149.17144775390625
arm2,465.01,0.0868988037109375,-0.90869140625,0.4108734130859375,-0.03497156500816345,0.034451983869075775,-0.028773058205842972,24.460601806640625,6.0197906494140625,-91.41012573242188
arm1,304.548,-0.3814239501953125,-0.87939453125,0.3046112060546875,0.0005241101025603712,0.025962358340620995,-0.024382837116718292,54.091400146484375,90.84384155273438,-149.20932006835938
arm1,304.569,-0.3802337646484375,-0.8772430419921875,0.305023193359375,-0.005618204362690449,0.014614362269639969,-0.028448419645428658,54.010833740234375,90.76777648925781,-148.9785614013672
arm2,465.03,0.08563232421875,-0.91058349609375,0.409088134765625,-0.03497156500816345,0.034451983869075775,-0.028773058205842972,24.135406494140625,6.463348388671875,-91.68063354492188
arm2,465.05,0.0838470458984375,-0.9146728515625,0.40972900390625,-0.03934634104371071,0.011600463651120663,-0.013279852457344532,24.307525634765625,6.0162200927734375,-91.81655883789062
arm1,304.588,-0.3795623779296875,-0.878265380859375,0.308624267578125,-0.007505054119974375,-0.002838397165760398,-0.033254094421863556,54.07261657714844,90.96469116210938,-149.014404296875
arm2,465.07,0.0850067138671875,-0.9111175537109375,0.4109039306640625,-0.03934634104371071,0.011600463651120663,-0.013279852457344532,24.027069091796875,6.315155029296875,-90.93315124511719
arm1,304.608,-0.39031982421875,-0.8796234130859375,0.308135986328125,-0.008760201744735241,-0.01449798233807087,-0.03803233802318573,54.029693603515625,90.80714416503906,-148.78208923339844
arm1,304.628,-0.39544677734375,-0.8777618408203125,0.3072967529296875,-0.00432976707816124,-0.007511712145060301,-0.041494980454444885,54.08673095703125,90.66336059570312,-148.99319458007812
arm2,465.09,0.0843353271484375,-0.907623291015625,0.4095916748046875,-0.03191132843494415,0.0003885551996063441,-0.006900783162564039,24.399856567382812,5.8978424072265625,-91.30148315429688
arm2,465.11,0.0811920166015625,-0.906585693359375,0.408416748046875,-0.01315335277467966,-0.010755442082881927,0.004240551497787237,24.181777954101562,6.3453826904296875,-91.44462585449219
arm1,304.648,-0.3953399658203125,-0.87554931640625,0.3103179931640625,0.0016612798208370805,0.009110407903790474,-0.03882675617933273,54.06129455566406,90.71266174316406,-148.7826385498047
arm2,465.13,0.0770263671875,-0.905670166015625,0.4072418212890625,-0.014305702410638332,-0.018137725070118904,0.00848429836332798,23.977676391601562,6.27752685546875,-91.09393310546875
arm1,304.669,-0.3966064453125,-0.870391845703125,0.3067779541015625,0.004569718148559332,0.015184545889496803,-0.04020947217941284,54.26112365722656,90.88211059570312,-148.55661010742188
arm1,304.688,-0.39404296875,-0.8650054931640625,0.305450439453125,0.007084541022777557,0.026924025267362595,-0.03472176194190979,54.08876037597656,90.6690673828125,-148.54246520996094
arm2,465.15,0.0772705078125,-0.90155029296875,0.407928466796875,-0.013189039193093777,-0.017544638365507126,0.008267783559858799,24.585845947265625,6.469696044921875,-91.2764892578125
arm2,465.17,0.07586669921875,-0.9015045166015625,0.410552978515625,-0.011199125088751316,-0.00316037330776453,0.0011259844759479165,24.212234497070312,6.2458648681640625,-91.63116455078125
arm1,304.708,-0.3895416259765625,-0.866851806640625,0.308685302734375,0.00708800321444869,0.02431066520512104,-0.025044366717338562,54.139739990234375,90.75920104980469,-148.61228942871094
arm2,465.19,0.0768585205078125,-0.9036407470703125,0.4108428955078125,-0.006114617921411991,0.007705856580287218,0.000431432097684592,24.417098999023438,6.2367401123046875,-91.34194946289062
arm1,304.728,-0.3899078369140625,-0.8690948486328125,0.308319091796875,0.006619286723434925,0.004916728008538485,-0.016320116817951202,54.09309387207031,90.83901977539062,-148.76805114746094
arm1,304.748,-0.388702392578125,-0.87152099609375,0.3060150146484375,0.003573163179680705,-0.0017473000334575772,-0.0041273669339716434,54.17010498046875,90.80770874023438,-149.01683044433594
arm2,465.21,0.0785064697265625,-0.9082489013671875,0.40679931640625,-0.00185089698061347,-0.0018759306985884905,0.003317499766126275,24.18035888671875,6.362274169921875,-91.713134765625
arm2,465.23,0.080078125,-0.909088134765625,0.408721923828125,-0.00185089698061347,-0.0018759306985884905,0.003317499766126275,24.037216186523438,6.1544036865234375,-91.66790771484375
arm1,304.769,-0.385772705078125,-0.8750457763671875,0.306732177734375,0.0016341155860573053,-0.010575679130852222,0.0032109732273966074,54.24114990234375,90.8084716796875,-148.87896728515625
arm2,465.251,0.0827484130859375,-0.9095611572265625,0.409942626953125,0.008471781387925148,-0.012030564248561859,0.01943787932395935,24.246170043945312,5.9775543212890625,-91.061767578125
arm1,304.786,-0.386962890625,-0.8763580322265625,0.30908203125,-0.0018261295044794679,-0.015859922394156456,0.0019504991360008717,54.27842712402344,90.85089111328125,-149.221435546875
arm1,304.805,-0.38885498046875,-0.8776397705078125,0.306915283203125,-8.255799002654385e-06,-0.020960409194231033,-0.0010183927370235324,54.21533203125,90.95138549804688,-149.16392517089844
arm2,465.27,0.08477783203125,-0.9127197265625,0.4081573486328125,0.010702178813517094,-0.023539148271083832,0.02660205028951168,24.098373413085938,6.2363739013671875,-91.32948303222656
arm2,465.29,0.084320068359375,-0.9143829345703125,0.4069061279296875,0.012897156178951263,-0.03335875645279884,0.027476631104946136,24.181900024414062,5.9976348876953125,-91.80908203125
arm1,304.828,-0.3896484375,-0.8781585693359375,0.311431884765625,0.0024317323695868254,-0.010076070204377174,-0.005019525997340679,54.29859924316406,90.99465942382812,-149.0050506591797
arm1,304.848,-0.3884429931640625,-0.8768463134765625,0.3096160888671875,0.008471781387925148,-0.003093527862802148,-0.0064373929053545,54.17628479003906,90.78451538085938,-148.928955078125
arm1,304.868,-0.3889007568359375,-0.8748321533203125,0.31121826171875,0.010099506005644798,-0.0005632585380226374,-0.007285343483090401,54.186431884765625,90.76400756835938,-148.97381591796875
arm2,465.31,0.08349609375,-0.911285400390625,0.404388427734375,0.020126307383179665,-0.03513588383793831,0.027341077104210854,24.128875732421875,6.1626434326171875,-91.46961975097656
arm2,465.33,0.0848388671875,-0.9069671630859375,0.4031829833984375,0.024106934666633606,-0.02305631712079048,0.02376178838312626,24.265274047851562,6.2270050048828125,-91.170654296875
arm2,465.351,0.088043212890625,-0.9050445556640625,0.40130615234375,0.024106934666633606,-0.02305631712079048,0.02376178838312626,24.139938354492188,6.3954315185546875,-92.23785400390625
arm1,304.888,-0.3878631591796875,-0.87359619140625,0.30902099609375,0.016688965260982513,0.0007853662245906889,-0.003483414649963379,54.038543701171875,90.97190856933594,-149.35768127441406
arm2,465.37,0.087310791015625,-0.9036102294921875,0.3992919921875,0.02143152244389057,-0.0070312777534127235,0.013540043495595455,24.150680541992188,6.2614898681640625,-91.406982421875
arm1,304.908,-0.388824462890625,-0.8725738525390625,0.30804443359375,0.018116420134902,0.0016887104138731956,-0.004543086513876915,54.34422302246094,90.87115478515625,-149.16146850585938
arm1,304.928,-0.38885498046875,-0.8700103759765625,0.305145263671875,0.017736919224262238,0.0019536949694156647,-0.002558498876169324,54.207977294921875,90.81680297851562,-148.9556884765625
arm2,465.39,0.0885467529296875,-0.9039154052734375,0.3981170654296875,0.019960392266511917,-0.009034241549670696,0.008082693442702293,24.201309204101562,6.11248779296875,-91.59696960449219
arm2,465.41,0.08807373046875,-0.9077301025390625,0.399200439453125,0.014852982014417648,-0.016646355390548706,0.003316700691357255,23.663558959960938,6.117645263671875,-91.17784118652344
arm1,304.948,-0.3870391845703125,-0.8715057373046875,0.3045196533203125,0.011258513666689396,0.01702532172203064,0.0023995081428438425,54.24247741699219,90.79632568359375,-148.89297485351562
arm2,465.43,0.086334228515625,-0.9095458984375,0.4003753662109375,0.011725897900760174,-0.02142113633453846,-0.0011544802691787481,23.77911376953125,6.378997802734375,-91.34442138671875
arm1,304.969,-0.3895721435546875,-0.8740081787109375,0.3047637939453125,0.009830259718000889,0.031090807169675827,0.00503896689042449,54.1024169921875,90.81864929199219,-148.89990234375
arm1,304.988,-0.3868560791015625,-0.874053955078125,0.3021392822265625,0.005723932292312384,0.04062332585453987,0.009977798908948898,54.25733947753906,90.81246948242188,-148.99581909179688
arm2,465.451,0.0856475830078125,-0.9107818603515625,0.4003448486328125,0.0073175677098333836,-0.024594824761152267,-0.005637113004922867,24.17718505859375,6.4119873046875,-91.51896667480469
arm2,465.47,0.0836944580078125,-0.912322998046875,0.40185546875,0.004382497631013393,-0.018553975969552994,-0.0017100156983360648,23.900283813476562,6.39068603515625,-91.75714111328125
arm1,305.008,-0.386077880859375,-0.87615966796875,0.3018341064453125,0.007015565410256386,0.038548458367586136,0.011775965802371502,54.29240417480469,90.91722106933594,-149.03794860839844
arm2,465.49,0.0819091796875,-0.9113006591796875,0.3999176025390625,0.004382497631013393,-0.018553975969552994,-0.0017100156983360648,24.0267333984375,6.3149261474609375,-92.0206298828125
arm1,305.028,-0.388702392578125,-0.87847900390625,0.3045654296875,0.005369998048990965,0.016272446140646935,0.011001251637935638,54.234161376953125,90.75445556640625,-148.9446258544922
arm1,305.048,-0.3905487060546875,-0.8767852783203125,0.2981719970703125,0.007927431724965572,0.004745753016322851,0.010403372347354889,54.0487060546875,90.67311096191406,-148.79986572265625
arm2,465.51,0.0802001953125,-0.9110260009765625,0.399139404296875,0.006018477492034435,-0.018697254359722137,0.004929244983941317,24.060745239257812,6.3200836181640625,-91.41130065917969
arm2,465.53,0.0802764892578125,-0.910888671875,0.3963470458984375,0.005852296482771635,-0.022163625806570053,0.008470982313156128,24.17889404296875,6.2472381591796875,-91.28086853027344
arm1,305.068,-0.388519287109375,-0.8776092529296875,0.2996063232421875,0.012189820408821106,0.011114169843494892,0.008420382626354694,54.15863037109375,90.89599609375,-149.1526641845703
arm2,465.55,0.0802764892578125,-0.910064697265625,0.398834228515625,1.0652644050423987e-05,-0.022011293098330498,0.005513542331755161,24.021072387695312,6.0665130615234375,-91.43099975585938
arm1,305.088,-0.38458251953125,-0.8790740966796875,0.299468994140625,0.013520335778594017,0.009846505708992481,0.0070310113951563835,54.24174499511719,90.78813171386719,-149.13694763183594
arm1,305.108,-0.3806915283203125,-0.8773193359375,0.3040771484375,0.014116351492702961,0.0013491574209183455,0.0014391721924766898,54.14451599121094,90.80120849609375,-149.1981658935547
arm2,465.57,0.0778045654296875,-0.9086761474609375,0.39892578125,-0.0033848776947706938,-0.01624501682817936,0.009854228235781193,24.235580444335938,6.3560791015625,-91.65936279296875
arm1,305.128,-0.3814697265625,-0.876129150390625,0.303955078125,0.0117352195084095,-0.016502011567354202,-0.0026317357551306486,54.19001770019531,90.83406066894531,-149.13778686523438
arm2,465.59,0.0776824951171875,-0.908935546875,0.399810791015625,-0.0041364217177033424,-0.010298443958163261,0.009130913764238358,23.927169799804688,6.3712615966796875,-91.61373901367188
arm1,305.148,-0.3809967041015625,-0.8768768310546875,0.3040771484375,0.009163671173155308,-0.03382880240678787,-0.005803560372442007,54.18962097167969,90.64532470703125,-148.7887725830078
arm1,305.169,-0.384033203125,-0.8748779296875,0.3041839599609375,0.0030397321097552776,-0.04014475643634796,-0.008925317786633968,54.4034423828125,91.00254821777344,-148.974609375
arm1,305.188,-0.3843994140625,-0.875396728515625,0.3070220947265625,-0.0022397185675799847,-0.04066940024495125,-0.00805899128317833,54.23582458496094,90.85450744628906,-149.19515991210938
arm2,465.65,0.077789306640625,-0.9116058349609375,0.4045867919921875,-0.00070520507870242,-0.0052024852484464645,0.004060521721839905,24.062652587890625,5.954193115234375,-91.7568359375
arm2,465.669,0.0773773193359375,-0.9105377197265625,0.40350341796875,0.0037822213489562273,0.0016953683225437999,0.007354319095611572,24.0416259765625,6.3076934814453125,-91.77359008789062
arm1,305.208,-0.38525390625,-0.8761138916015625,0.308319091796875,-0.007166299968957901,-0.04219326004385948,-0.008224373683333397,54.2197265625,90.85638427734375,-149.17300415039062
arm1,305.228,-0.3875274658203125,-0.87420654296875,0.3059844970703125,-0.006222209427505732,-0.040772464126348495,-0.004670917987823486,54.29962158203125,90.90023803710938,-149.4070281982422
arm2,465.69,0.0784912109375,-0.9076690673828125,0.4046783447265625,0.010635334067046642,0.003133208956569433,0.00675244489684701,23.985214233398438,6.2674713134765625,-91.66416931152344
arm2,465.71,0.07977294921875,-0.90673828125,0.4034576416015625,0.013941914774477482,0.0013164004776626825,0.005531918257474899,23.895553588867188,6.1521148681640625,-91.34945678710938
arm1,305.248,-0.388275146484375,-0.875701904296875,0.305145263671875,-0.003081277245655656,-0.0343148298561573,-0.004653341136872768,54.26347351074219,90.80299377441406,-149.31895446777344
arm1,305.268,-0.3874053955078125,-0.8700408935546875,0.3037567138671875,-0.002356364857405424,-0.021767079830169678,-0.01119486428797245,54.2542724609375,90.81758117675781,-149.42868041992188
arm1,305.288,-0.3879547119140625,-0.873443603515625,0.30615234375,-0.00023329291434492916,-0.015537414699792862,-0.012163721956312656,54.24790954589844,90.9110107421875,-149.5400390625
arm2,465.73,0.0785675048828125,-0.90771484375,0.4039306640625,0.013941914774477482,0.0013164004776626825,0.005531918257474899,24.058563232421875,6.1238250732421875,-91.49197387695312
arm2,465.75,0.0782318115234375,-0.911773681640625,0.4054412841796875,0.009503756649792194,-0.01239115558564663,0.009063802659511566,24.168807983398438,6.05731201171875,-91.0166015625
arm2,465.771,0.0810546875,-0.9076080322265625,0.4078826904296875,0.015238607302308083,-0.013467605225741863,0.005268265027552843,23.886199951171875,6.1888580322265625,-91.43740844726562
arm1,305.304,-0.393829345703125,-0.876739501953125,0.3066864013671875,-0.0004239752306602895,-0.016381636261940002,-0.0114958006888628,54.15374755859375,90.93241882324219,-149.4981231689453
arm2,465.79,0.0815582275390625,-0.904205322265625,0.40484619140625,0.022313561290502548,-0.017289241775870323,0.00806165486574173,23.846664428710938,6.1228790283203125,-91.45487976074219
arm1,305.328,-0.3982086181640625,-0.8743438720703125,0.301055908203125,0.0009166600648313761,-0.016515061259269714,-0.015501195564866066,54.2635498046875,90.79716491699219,-149.11569213867188
arm1,305.348,-0.4000091552734375,-0.8773651123046875,0.30426025390625,0.0029790119733661413,0.0012956279097124934,-0.012956811115145683,54.23252868652344,90.81680297851562,-149.0580291748047
arm2,465.81,0.0774383544921875,-0.9066162109375,0.402008056640625,0.03062422201037407,-0.015155251137912273,0.007640609052032232,24.192398071289062,6.089599609375,-91.18792724609375
arm2,465.83,0.0781402587890625,-0.9080963134765625,0.4052886962890625,0.030190126970410347,-0.017837053164839745,0.0016951019642874599,24.062576293945312,6.0581817626953125,-91.15853881835938
arm2,465.85,0.0772857666015625,-0.90606689453125,0.4069976806640625,0.028357338160276413,-0.005201419815421104,-0.006863764952868223,24.01898193359375,6.3915252685546875,-91.34449768066406
arm1,305.368,-0.3995819091796875,-0.876556396484375,0.302337646484375,0.008521316573023796,0.009439840912818909,-0.008946090936660767,54.32518005371094,90.86119079589844,-149.15499877929688
arm1,305.388,-0.3968658447265625,-0.8725128173828125,0.301361083984375,0.010218016803264618,0.02094735950231552,-0.002395247109234333,54.25706481933594,90.89048767089844,-149.57525634765625
arm1,305.408,-0.3920440673828125,-0.871063232421875,0.30242919921875,0.012282499112188816,0.02616715617477894,0.011667574755847454,54.292938232421875,91.04719543457031,-149.2902374267578
arm2,465.87,0.0761871337890625,-0.90802001953125,0.406219482421875,0.02684599533677101,0.0004165183927398175,-0.009198824875056744,24.270278930664062,6.06646728515625,-90.95341491699219
arm2,465.89,0.0773162841796875,-0.910369873046875,0.4038848876953125,0.02442225255072117,-0.003132942598313093,-0.00637827068567276,24.52618408203125,6.1468353271484375,-91.06610107421875
arm1,305.428,-0.3894195556640625,-0.872467041015625,0.3016510009765625,0.014327806420624256,0.01398745458573103,0.023854466155171394,54.0872802734375,90.81022644042969,-149.2656707763672
arm2,465.91,0.0773162841796875,-0.911834716796875,0.400909423828125,0.02442225255072117,-0.003132942598313093,-0.00637827068567276,24.008316040039062,6.3454132080078125,-90.57682800292969
arm1,305.448,-0.3884735107421875,-0.8737640380859375,0.3029937744140625,0.012010590173304081,0.0012338425731286407,0.034624289721250534,53.98643493652344,90.92646789550781,-149.3763427734375
arm1,305.468,-0.3883514404296875,-0.8739776611328125,0.3011932373046875,0.008380968123674393,-0.008293350227177143,0.04163985326886177,54.21826171875,90.83566284179688,-149.33523559570312
arm2,465.93,0.077117919921875,-0.9137115478515625,0.4040985107421875,0.02864948846399784,-0.020172113552689552,-0.001589108258485794,24.273681640625,6.002197265625,-91.03286743164062
arm2,465.95,0.077301025390625,-0.912384033203125,0.4039459228515625,0.02864948846399784,-0.020172113552689552,-0.001589108258485794,24.683624267578125,5.97760009765625,-91.42337036132812
arm1,305.488,-0.3885345458984375,-0.874908447265625,0.3004913330078125,0.0062459115870296955,-0.014244182966649532,0.042278748005628586,54.23246765136719,90.97279357910156,-149.14898681640625
arm2,465.97,0.076324462890625,-0.9125518798828125,0.402374267578125,0.027834827080368996,-0.03105964884161949,0.013776266016066074,24.12127685546875,6.24658203125,-91.2808837890625
arm1,305.508,-0.3867950439453125,-0.87408447265625,0.30145263671875,0.005343366414308548,-0.01446922030299902,0.043057456612586975,54.12745666503906,90.93974304199219,-149.21109008789062
arm1,305.528,-0.38494873046875,-0.876556396484375,0.3014678955078125,0.0070738885551691055,-0.0068054418079555035,0.0396488755941391,54.21270751953125,90.91011047363281,-149.1391143798828
arm2,465.99,0.07708740234375,-0.913330078125,0.4019775390625,0.025123728439211845,-0.04068591073155403,0.012744024395942688,24.4527587890625,6.2365264892578125,-90.4447021484375
arm2,466.01,0.0760498046875,-0.91015625,0.4031829833984375,0.025123728439211845,-0.04068591073155403,0.012744024395942688,24.311294555664062,5.6499481201171875,-91.20526123046875
arm1,305.548,-0.381103515625,-0.8771820068359375,0.3029937744140625,0.00800066813826561,-0.0049675945192575455,0.0329025574028492,54.029937744140625,91.01872253417969,-149.35238647460938
arm2,466.03,0.0735015869140625,-0.9100341796875,0.4007720947265625,0.020557738840579987,-0.037027258425951004,0.00968858040869236,24.154937744140625,6.1614990234375,-91.09834289550781
arm1,305.568,-0.3807830810546875,-0.877593994140625,0.3049774169921875,0.010290454141795635,-0.002528937766328454,0.01894226484000683,54.24700927734375,90.94380187988281,-149.18638610839844
arm1,305.588,-0.3804473876953125,-0.8780059814453125,0.302734375,0.010290454141795635,-0.002528937766328454,0.01894226484000683,54.083740234375,90.97906494140625,-149.17369079589844
arm2,466.05,0.0756683349609375,-0.909393310546875,0.399078369140625,0.01858753338456154,-0.024326644837856293,0.01070910319685936,24.236587524414062,5.923065185546875,-90.88467407226562
arm2,466.075,0.0772857666015625,-0.910919189453125,0.3979644775390625,0.01589054986834526,-0.020437629893422127,0.008733570575714111,24.352737426757812,5.9544525146484375,-90.69264221191406
arm1,305.608,-0.380859375,-0.8782806396484375,0.303955078125,0.008465389721095562,0.0028868666850030422,0.008668855763971806,54.211700439453125,90.86906433105469,-149.2834930419922
arm2,466.091,0.077423095703125,-0.91009521484375,0.399932861328125,0.014628743752837181,-0.017065269872546196,0.006135923322290182,24.259445190429688,6.0407562255859375,-91.06881713867188
arm1,305.628,-0.3797454833984375,-0.8755340576171875,0.3031463623046875,0.010970626026391983,0.009195628575980663,-0.0001150485550169833,54.06678771972656,90.82243347167969,-149.46142578125
arm1,305.648,-0.379425048828125,-0.8725128173828125,0.30206298828125,0.013616209849715233,0.011438276618719101,-0.0037374801468104124,54.250823974609375,90.95657348632812,-149.2427215576172
arm2,466.112,0.0762939453125,-0.9126739501953125,0.4008331298828125,0.01335868239402771,-0.009211608208715916,0.004781705792993307,24.24835205078125,6.0872650146484375,-90.44953918457031
arm1,305.669,-0.3763885498046875,-0.87200927734375,0.3014068603515625,0.015805328264832497,0.008839564397931099,-0.006517554167658091,53.9603271484375,90.834228515625,-149.15040588378906
arm2,466.132,0.0766143798828125,-0.912322998046875,0.397552490234375,0.013374128378927708,-0.007738080807030201,0.0025129588320851326,23.996307373046875,6.16937255859375,-91.04508972167969
arm2,466.154,0.0775146484375,-0.9140777587890625,0.398681640625,0.005555354058742523,-0.004847219679504633,0.0024889903143048286,24.171661376953125,6.0403594970703125,-90.91329956054688
arm1,305.688,-0.3775177001953125,-0.8727874755859375,0.3010711669921875,0.014069479890167713,-0.001511876587755978,-0.008259261026978493,54.01020812988281,91.01115417480469,-149.2358856201172
arm1,305.708,-0.3786163330078125,-0.8762359619140625,0.3038177490234375,0.009820406325161457,-0.008666192181408405,-0.013147227466106415,53.96812438964844,90.83168029785156,-149.3246307373047
arm2,466.174,0.07830810546875,-0.9134521484375,0.4008026123046875,0.005028048064559698,0.003756921272724867,0.0022684806026518345,24.282974243164062,6.0648651123046875,-91.0723876953125
arm2,466.191,0.07696533203125,-0.9141845703125,0.3983001708984375,0.00025779398856684566,0.007242466323077679,0.004107659682631493,24.394790649414062,6.2594146728515625,-90.45115661621094
arm1,305.728,-0.381072998046875,-0.8756561279296875,0.3029937744140625,0.004340153653174639,-0.013405553996562958,-0.016775785014033318,54.19609069824219,90.83283996582031,-149.5189208984375
arm2,466.211,0.0789947509765625,-0.912261962890625,0.399017333984375,-0.004994226153939962,0.00022264027211349458,0.005972937680780888,23.897293090820312,6.274139404296875,-90.57524108886719
arm1,305.748,-0.3832855224609375,-0.8769073486328125,0.3033447265625,0.0014626081101596355,-0.013709420338273048,-0.01943175494670868,54.16114807128906,90.89567565917969,-149.40963745117188
arm1,305.768,-0.3853302001953125,-0.879425048828125,0.305206298828125,0.003739610780030489,-0.008655806072056293,-0.025535719469189644,54.05078125,90.84652709960938,-149.26829528808594
arm2,466.232,0.080718994140625,-0.911346435546875,0.39971923828125,-0.008433432318270206,-0.006652842741459608,0.003913781605660915,24.028839111328125,5.7667236328125,-90.71142578125
arm1,305.786,-0.385284423828125,-0.8778228759765625,0.3061981201171875,0.005307946354150772,-0.006750580854713917,-0.028210066258907318,54.050506591796875,90.84651184082031,-148.9953155517578
arm2,466.251,0.079193115234375,-0.9092864990234375,0.4015350341796875,-0.008276306092739105,-0.005613144487142563,0.004595817066729069,24.148025512695312,5.6690521240234375,-91.00534057617188
arm2,466.273,0.0793304443359375,-0.9094085693359375,0.401580810546875,-0.012686766684055328,-0.0009523464250378311,0.005378786474466324,24.421279907226562,5.894317626953125,-90.77690124511719
arm1,305.805,-0.38641357421875,-0.8786163330078125,0.307586669921875,0.010261958464980125,-0.006624879315495491,-0.028414597734808922,54.15934753417969,90.78352355957031,-148.8712921142578
arm1,305.828,-0.3857421875,-0.8768463134765625,0.30718994140625,0.013470801524817944,-0.016230102628469467,-0.02383529208600521,54.323028564453125,90.99769592285156,-149.16342163085938
arm2,466.291,0.077728271484375,-0.907684326171875,0.40020751953125,-0.008401740342378616,-0.0029795446898788214,0.006910636555403471,24.05633544921875,6.21527099609375,-90.94219970703125
arm2,466.309,0.079833984375,-0.9074249267578125,0.4001922607421875,-0.011856925673782825,-0.004552674014121294,0.005652026738971472,24.10382080078125,6.322174072265625,-91.45549011230469
arm1,305.848,-0.3889312744140625,-0.875396728515625,0.30377197265625,0.01708737388253212,-0.020365459844470024,-0.024443291127681732,54.00218200683594,90.913330078125,-149.647216796875
arm2,466.33,0.0782928466796875,-0.90692138671875,0.4033355712890625,-0.012587963603436947,-0.004701810888946056,0.002669286448508501,24.136001586914062,6.1922760009765625,-91.12104797363281
arm1,305.868,-0.3875885009765625,-0.8752288818359375,0.2997894287109375,0.01546657457947731,-0.017477793619036674,-0.024176975712180138,54.22679138183594,91.05447387695312,-149.2108154296875
arm1,305.888,-0.390350341796875,-0.878509521484375,0.302001953125,0.012254535220563412,-0.012673983350396156,-0.025608157739043236,54.156494140625,91.006591796875,-149.0446014404297
arm1,305.908,-0.39141845703125,-0.877685546875,0.3035430908203125,0.004778776317834854,-0.005459214095026255,-0.02929557114839554,54.25730895996094,90.99577331542969,-149.47335815429688
arm2,466.351,0.0763397216796875,-0.9064483642578125,0.40264892578125,-0.012688098475337029,-0.005528988782316446,0.001862614881247282,24.523483276367188,6.2958984375,-91.16340637207031
arm2,466.372,0.0754241943359375,-0.9086761474609375,0.40234375,-0.014711035415530205,-0.006530603393912315,0.004930043593049049,24.31671142578125,5.8599853515625,-91.15560913085938
arm2,466.392,0.0756988525390625,-0.9093780517578125,0.4059295654296875,-0.004752144683152437,0.003178216516971588,0.0036962011363357306,24.472030639648438,6.0567779541015625,-91.77850341796875
arm1,305.928,-0.3928375244140625,-0.876068115234375,0.302520751953125,0.0012072109384462237,0.002002697205170989,-0.028965871781110764,54.3895263671875,91.04685974121094,-149.34420776367188
arm1,305.948,-0.394317626953125,-0.8846588134765625,0.3039398193359375,-0.002065015025436878,0.007526359520852566,-0.0299613606184721,54.201080322265625,90.939208984375,-149.33885192871094
arm2,466.41,0.0769195556640625,-0.9014892578125,0.405120849609375,0.006224073935300112,0.01588122919201851,0.0006317017832770944,23.989517211914062,6.0614471435546875,-91.53421020507812
arm2,466.43,0.0733184814453125,-0.897552490234375,0.399383544921875,0.022223813459277153,0.02521880343556404,0.0038088529836386442,24.1954345703125,5.992462158203125,-91.15895080566406
arm1,305.968,-0.401611328125,-0.8900146484375,0.3031463623046875,-0.009007343091070652,0.0107668936252594,-0.033659692853689194,54.41099548339844,90.88740539550781,-149.3057098388672
arm2,466.45,0.0724029541015625,-0.9067230224609375,0.392791748046875,0.02479110099375248,0.01787353865802288,0.010549047030508518,24.050247192382812,5.9825592041015625,-90.92893981933594
arm1,305.988,-0.4039764404296875,-0.8841400146484375,0.30340576171875,-0.011874768882989883,0.021884260699152946,-0.034870900213718414,54.503875732421875,90.78329467773438,-149.31773376464844
arm1,306.008,-0.4037933349609375,-0.8838653564453125,0.3051300048828125,-0.01281806081533432,0.031855400651693344,-0.030847394838929176,54.290496826171875,90.76887512207031,-149.4048309326172
arm2,466.47,0.0689544677734375,-0.9186553955078125,0.399444580078125,0.01450197771191597,0.01625726744532585,0.027059581130743027,24.159439086914062,5.7721099853515625,-91.02908325195312
arm2,466.491,0.078948974609375,-0.9218292236328125,0.4036407470703125,0.003581951605156064,0.01110484916716814,0.035177960991859436,24.064254760742188,6.0857086181640625,-91.14495849609375
arm1,306.028,-0.404693603515625,-0.88055419921875,0.3026123046875,-0.006449110805988312,0.043170105665922165,-0.020013388246297836,54.25144958496094,90.90016174316406,-149.37510681152344
arm2,466.509,0.076995849609375,-0.9220123291015625,0.4030303955078125,-0.01079858560115099,-0.003718305379152298,0.04346625134348869,24.173919677734375,6.118133544921875,-91.43069458007812
arm1,306.047,-0.3996734619140625,-0.8749847412109375,0.3011627197265625,-0.00025007082149386406,0.05019605904817581,-0.00017124126316048205,54.330474853515625,90.92330932617188,-149.45220947265625
arm1,306.068,-0.3903656005859375,-0.8714447021484375,0.30120849609375,0.002529204124584794,0.03598596528172493,0.025672074407339096,54.30906677246094,90.88604736328125,-149.53778076171875
arm2,466.529,0.0812530517578125,-0.9209747314453125,0.39990234375,-0.024405207484960556,-0.0338682197034359,0.0548001304268837,24.0606689453125,5.9904632568359375,-90.9068603515625
arm2,466.549,0.0836029052734375,-0.9135589599609375,0.3990478515625,-0.024405207484960556,-0.0338682197034359,0.0548001304268837,24.043853759765625,5.8743896484375,-90.83084106445312
arm1,306.088,-0.386260986328125,-0.8680267333984375,0.297149658203125,0.0026493126060813665,0.000669252360239625,0.04906448349356651,54.23234558105469,90.77740478515625,-149.4782257080078
arm2,466.569,0.0830535888671875,-0.9105682373046875,0.4085235595703125,-0.030107835307717323,-0.0673404261469841,0.05820205435156822,24.23138427734375,6.05194091796875,-90.90133666992188
arm1,306.108,-0.3832855224609375,-0.8658294677734375,0.2947998046875,-0.0046424223110079765,-0.021620074287056923,0.06575105339288712,53.97895812988281,90.79627990722656,-149.46499633789062
arm1,306.128,-0.381195068359375,-0.8685302734375,0.294830322265625,-0.011054248549044132,-0.035049330443143845,0.07569050043821335,53.86161804199219,90.90719604492188,-149.5869598388672
arm2,466.59,0.082275390625,-0.9093780517578125,0.4124298095703125,-0.03056882880628109,-0.04710759222507477,0.04470648616552353,24.074951171875,5.8480682373046875,-90.85638427734375
arm2,466.611,0.08538818359375,-0.91082763671875,0.4107208251953125,-0.029884662479162216,-0.046905990689992905,0.03592338040471077,23.612442016601562,5.6376495361328125,-90.80354309082031
arm1,306.148,-0.3793487548828125,-0.87109375,0.296234130859375,-0.019517775624990463,-0.04741838201880455,0.08287890255451202,53.960845947265625,90.79461669921875,-149.27723693847656
arm2,466.631,0.089324951171875,-0.9115753173828125,0.4062042236328125,-0.03135712444782257,-0.06165803596377373,0.02473783679306507,23.780792236328125,6.1111297607421875,-90.82781982421875
arm1,306.17,-0.3793182373046875,-0.8756256103515625,0.298431396484375,-0.02412823960185051,-0.050389405339956284,0.07849746942520142,53.91654968261719,90.88705444335938,-149.73863220214844
arm1,306.189,-0.3780059814453125,-0.87371826171875,0.299072265625,-0.02256656251847744,-0.050024550408124924,0.0685119479894638,53.94447326660156,90.78378295898438,-149.39822387695312
arm2,466.649,0.0875701904296875,-0.90997314453125,0.4112396240234375,-0.026510968804359436,-0.06301545351743698,0.010700315237045288,24.11248779296875,6.3230743408203125,-91.60140991210938
arm2,466.669,0.0871734619140625,-0.9090576171875,0.4125518798828125,-0.016895892098546028,-0.06553346663713455,0.0010631339391693473,24.061416625976562,5.966278076171875,-90.88565063476562
arm1,306.208,-0.3789520263671875,-0.8773651123046875,0.2998199462890625,-0.017887920141220093,-0.04634193331003189,0.051716189831495285,53.841033935546875,90.75773620605469,-149.45794677734375
arm1,306.228,-0.376861572265625,-0.8798065185546875,0.3032073974609375,-0.013646037317812443,-0.035825375467538834,0.03154487535357475,53.71881103515625,90.75730895996094,-149.41175842285156
arm2,466.689,0.0867767333984375,-0.9125213623046875,0.4110565185546875,-0.002251968951895833,-0.07387076318264008,-0.0051715923473238945,24.169418334960938,5.917205810546875,-90.65937805175781
arm1,306.243,-0.375396728515625,-0.8793792724609375,0.30682373046875,-0.010773551650345325,-0.017188839614391327,0.01107368990778923,53.71881103515625,90.75730895996094,-149.41175842285156
arm2,466.71,0.0849761962890625,-0.912811279296875,0.4117889404296875,0.015979232266545296,-0.07521352916955948,-0.00632048025727272,24.091354370117188,5.8896331787109375,-90.69403076171875
arm2,466.731,0.082794189453125,-0.9108428955078125,0.411529541015625,0.028242556378245354,-0.07200521975755692,-0.012249475345015526,23.592025756835938,5.946044921875,-90.77433776855469
arm1,306.262,-0.376708984375,-0.876953125,0.305694580078125,-0.009344765916466713,-0.015238607302308083,-0.00401551416143775,53.77496337890625,90.88150024414062,-149.64825439453125
arm1,306.283,-0.3802642822265625,-0.875640869140625,0.3075408935546875,-0.005365470424294472,-0.01522822119295597,-0.018152905628085136,53.79182434082031,90.70002746582031,-149.2904052734375
arm2,466.749,0.079559326171875,-0.9097442626953125,0.411468505859375,0.04152906686067581,-0.05759938061237335,-0.022470422089099884,23.779495239257812,6.033447265625,-90.87705993652344
arm1,306.302,-0.3834686279296875,-0.872772216796875,0.303070068359375,-0.0016943031223490834,-0.015964850783348083,-0.02472798340022564,53.80352783203125,90.76629638671875,-149.10997009277344
arm2,466.769,0.08050537109375,-0.907562255859375,0.4058074951171875,0.0463416650891304,-0.054370831698179245,-0.026187928393483162,23.693572998046875,6.022430419921875,-91.09713745117188
arm2,466.789,0.0809783935546875,-0.9058837890625,0.403350830078125,0.04167633876204491,-0.04870175942778587,-0.03165992349386215,24.008651733398438,6.0602874755859375,-90.27104187011719
arm1,306.322,-0.3846893310546875,-0.87176513671875,0.304534912109375,0.0037092508282512426,-0.010900318622589111,-0.029377330094575882,53.94891357421875,90.82159423828125,-149.7488250732422
arm1,306.342,-0.386688232421875,-0.871002197265625,0.303497314453125,0.008226504549384117,-0.008356733247637749,-0.028987975791096687,53.731292724609375,90.69680786132812,-149.49554443359375
arm2,466.809,0.0788726806640625,-0.907257080078125,0.40228271484375,0.04167633876204491,-0.04870175942778587,-0.03165992349386215,23.789825439453125,6.262542724609375,-90.922119140625
arm1,306.362,-0.3891754150390625,-0.871307373046875,0.3042144775390625,0.007285077124834061,-0.009445433504879475,-0.029201827943325043,53.93898010253906,90.65957641601562,-149.4551544189453
arm2,466.829,0.0772247314453125,-0.90863037109375,0.401214599609375,0.04018816724419594,-0.04905728995800018,-0.03351588174700737,23.806396484375,6.10491943359375,-90.6859130859375
arm2,466.849,0.0756988525390625,-0.9105682373046875,0.3991851806640625,0.037399835884571075,-0.04663514718413353,-0.030069218948483467,24.239593505859375,6.083831787109375,-90.78602600097656
arm1,306.383,-0.3927459716796875,-0.872314453125,0.30426025390625,0.003567570587620139,-0.013214338570833206,-0.026855049654841423,53.875152587890625,90.77757263183594,-149.51075744628906
arm1,306.402,-0.3956451416015625,-0.876220703125,0.3052978515625,-0.002326537622138858,-0.026558639481663704,-0.025726135820150375,53.95600891113281,90.841552734375,-149.17811584472656
arm2,466.869,0.0752410888671875,-0.911865234375,0.39776611328125,0.03292519226670265,-0.043180759996175766,-0.025962091982364655,24.161956787109375,5.85992431640625,-90.69465637207031
arm2,466.89,0.0756378173828125,-0.9146575927734375,0.3978729248046875,0.03292519226670265,-0.043180759996175766,-0.025962091982364655,23.826263427734375,6.1263427734375,-90.84396362304688
arm2,466.909,0.0751190185546875,-0.9122161865234375,0.39581298828125,0.030490797013044357,-0.04062918573617935,-0.01919792965054512,24.097274780273438,6.41534423828125,-90.673095703125
arm1,306.422,-0.401824951171875,-0.87518310546875,0.3058624267578125,-0.004333495628088713,-0.036070119589567184,-0.026792198419570923,54.06816101074219,90.77203369140625,-149.58824157714844
arm1,306.442,-0.4072418212890625,-0.87286376953125,0.3031463623046875,-0.0005464806454256177,-0.03139600530266762,-0.02352769672870636,53.93766784667969,90.84336853027344,-149.60208129882812
arm1,306.462,-0.4095001220703125,-0.8678436279296875,0.3043060302734375,0.008731972426176071,-0.013861220329999924,-0.01794038526713848,53.78657531738281,90.89749145507812,-149.59121704101562
arm2,466.929,0.0750274658203125,-0.9116058349609375,0.3937225341796875,0.027789819985628128,-0.04254160076379776,-0.009615875780582428,23.97674560546875,6.077850341796875,-90.89286804199219
arm1,306.483,-0.40753173828125,-0.86761474609375,0.302886962890625,0.01613209769129753,0.0012085424968972802,-0.008814530447125435,54.15673828125,90.96333312988281,-149.59622192382812
arm2,466.949,0.0737152099609375,-0.908966064453125,0.39398193359375,0.026260633021593094,-0.04158259555697441,-0.009486446157097816,23.97076416015625,6.16680908203125,-90.16728210449219
arm2,466.969,0.072967529296875,-0.9063720703125,0.39117431640625,0.02123551443219185,-0.03401096537709236,-0.00270630419254303,23.40948486328125,6.4697265625,-90.55998229980469
arm1,306.502,-0.4063873291015625,-0.868682861328125,0.3028106689453125,0.02130874991416931,0.009699232876300812,0.00021544973424170166,54.038116455078125,90.89082336425781,-149.67613220214844
arm1,306.522,-0.404388427734375,-0.8711700439453125,0.304168701171875,0.021157748997211456,0.012134693562984467,0.010717625729739666,54.071990966796875,90.81048583984375,-149.6371307373047
arm2,466.99,0.07427978515625,-0.90692138671875,0.3939971923828125,0.02123551443219185,-0.03401096537709236,-0.00270630419254303,23.672027587890625,6.1003875732421875,-90.36410522460938
arm1,306.542,-0.4017181396484375,-0.87060546875,0.3026275634765625,0.018207766115665436,0.0037470676470547915,0.021517809480428696,53.88670349121094,90.70985412597656,-149.52578735351562
arm2,467.01,0.0752410888671875,-0.906768798828125,0.397613525390625,0.0054549528285861015,-0.025002555921673775,-0.0007800398743711412,24.054397583007812,6.124603271484375,-90.52859497070312
arm2,467.029,0.076263427734375,-0.90679931640625,0.3977203369140625,0.00046685212873853743,-0.034086063504219055,-0.0017502295086160302,23.641159057617188,6.1972808837890625,-90.78215026855469
arm1,306.562,-0.401123046875,-0.8685302734375,0.300628662109375,0.013769341632723808,-0.005826463922858238,0.03427994251251221,53.71015930175781,90.696044921875,-149.27418518066406
arm1,306.583,-0.3978118896484375,-0.8690643310546875,0.2986297607421875,0.015476694330573082,-0.009269398637115955,0.043535493314266205,53.64018249511719,90.78074645996094,-149.44400024414062
arm2,467.049,0.0771026611328125,-0.9065093994140625,0.3980865478515625,0.0013350426452234387,-0.03325862064957619,-0.0010242518037557602,23.872756958007812,6.18994140625,-90.31062316894531
arm1,306.602,-0.3957672119140625,-0.8714599609375,0.2985076904296875,0.017899371683597565,-0.01697099395096302,0.050699662417173386,53.96638488769531,90.8736572265625,-149.59042358398438
arm2,467.069,0.0753021240234375,-0.9105682373046875,0.3991241455078125,0.0013201289111748338,-0.028126975521445274,0.0021795309148728848,23.484893798828125,6.2154693603515625,-90.68507385253906
arm2,467.09,0.07379150390625,-0.9097900390625,0.4019317626953125,0.0036490634083747864,-0.02063124254345894,0.008774849586188793,23.668701171875,6.1439666748046875,-90.66304016113281
arm1,306.622,-0.39215087890625,-0.8751678466796875,0.294525146484375,0.01992816850543022,-0.01500984188169241,0.05408161133527756,54.01519775390625,90.784423828125,-149.19107055664062
arm1,306.642,-0.387847900390625,-0.879241943359375,0.297882080078125,0.019645340740680695,-0.01089552417397499,0.04940696433186531,53.75227355957031,90.65501403808594,-149.49559020996094
arm2,467.109,0.076080322265625,-0.9117279052734375,0.39892578125,0.0041278996504843235,-0.011663313955068588,0.011807656846940517,23.765960693359375,5.970550537109375,-90.27091979980469
arm1,306.662,-0.38824462890625,-0.8790740966796875,0.2975311279296875,0.015805061906576157,-0.00983398873358965,0.04327024146914482,53.92010498046875,90.75685119628906,-148.97763061523438
arm2,467.129,0.077056884765625,-0.909576416015625,0.39990234375,-0.00027510453946888447,-0.0046568033285439014,0.011125887744128704,23.801116943359375,6.207794189453125,-90.3192138671875
arm2,467.149,0.079376220703125,-0.912353515625,0.396453857421875,0.0002247707889182493,-0.010116550140082836,0.01744716800749302,23.703994750976562,5.8689117431640625,-90.27743530273438
arm1,306.683,-0.3830413818359375,-0.87615966796875,0.3003082275390625,0.010467288084328175,-0.00905448105186224,0.03662991523742676,53.80415344238281,90.70851135253906,-149.63902282714844
arm1,306.702,-0.3811798095703125,-0.8795928955078125,0.3026275634765625,0.00572925852611661,-0.017599767073988914,0.030112627893686295,53.81504821777344,90.85171508789062,-149.6826934814453
arm2,467.169,0.0824737548828125,-0.913238525390625,0.400848388671875,-0.006031260825693607,-0.015974706038832664,0.01708151586353779,23.955825805664062,6.2312164306640625,-90.35377502441406
arm1,306.722,-0.3863983154296875,-0.8792724609375,0.30023193359375,2.6365294615970924e-05,-0.01980193331837654,0.016498016193509102,53.61668395996094,90.74046325683594,-149.76011657714844
arm2,467.189,0.0841217041015625,-0.910430908203125,0.4024810791015625,-0.0108297448605299,-0.010927748866379261,0.01593822054564953,23.740997314453125,6.401397705078125,-91.02001953125
arm2,467.209,0.0841217041015625,-0.9075927734375,0.400299072265625,-0.0019156117923557758,-0.004447212442755699,0.02172180637717247,23.655960083007812,6.0434417724609375,-90.83375549316406
arm1,306.742,-0.3861846923828125,-0.875518798828125,0.2999114990234375,-0.00012543488992378116,-0.013587714172899723,0.003823766717687249,53.741912841796875,90.81605529785156,-149.51817321777344
arm1,306.762,-0.388519287109375,-0.873992919921875,0.2991180419921875,9.321063771494664e-06,-0.006200904026627541,-0.005278917960822582,53.82627868652344,90.78713989257812,-149.57725524902344
arm2,467.229,0.085784912109375,-0.9084320068359375,0.399017333984375,0.004289287142455578,-0.007801197934895754,0.015419969335198402,23.71630859375,6.220123291015625,-91.12136840820312
arm1,306.783,-0.3886871337890625,-0.86859130859375,0.2972869873046875,0.00177952426020056,0.00814820732921362,-0.016560068354010582,53.75724792480469,90.65605163574219,-149.39784240722656
arm2,467.249,0.0866241455078125,-0.9045562744140625,0.400146484375,0.0036993969697505236,-0.004915129859000444,0.00902518630027771,23.564117431640625,6.240081787109375,-90.71514892578125
arm2,467.269,0.0847625732421875,-0.9046783447265625,0.400665283203125,0.0005848301807418466,0.006317018065601587,0.000580036488827318,23.768417358398438,6.09375,-89.69615173339844
arm1,306.802,-0.3831787109375,-0.869415283203125,0.2991180419921875,0.00427117757499218,0.024271517992019653,-0.022717297077178955,53.923095703125,90.73471069335938,-149.8051300048828
arm1,306.822,-0.3843841552734375,-0.873321533203125,0.30206298828125,0.004298608284443617,0.0214775949716568,-0.027245469391345978,53.965667724609375,90.72474670410156,-149.46957397460938
arm2,467.289,0.0835418701171875,-0.9107513427734375,0.40093994140625,-0.0008969526388682425,0.01079831924289465,-0.0027377295773476362,23.810592651367188,6.1426544189453125,-90.310302734375
arm1,306.842,-0.3871002197265625,-0.87628173828125,0.301422119140625,0.0014966964954510331,0.009441439062356949,-0.03074459731578827,53.72981262207031,90.63858032226562,-149.4421844482422
arm2,467.309,0.0854034423828125,-0.9161376953125,0.4008026123046875,-0.01137089915573597,0.001967277145013213,-0.0054570832289755344,23.90203857421875,6.245147705078125,-90.75701904296875
arm2,467.329,0.0863189697265625,-0.919036865234375,0.404022216796875,-0.013309147208929062,-0.004962267819792032,-0.008132228627800941,23.658935546875,6.3599853515625,-90.13589477539062
arm1,306.862,-0.3904876708984375,-0.8776702880859375,0.3038177490234375,-0.0030629015527665615,0.00771890627220273,-0.03496411070227623,53.70759582519531,90.68360900878906,-149.43800354003906
arm1,306.883,-0.3932037353515625,-0.8747711181640625,0.30487060546875,-0.0082115912809968,0.004963865969330072,-0.041372738778591156,53.953277587890625,90.93440246582031,-149.3607635498047
arm2,467.349,0.085693359375,-0.9140625,0.4053192138671875,-0.005244562868028879,0.004854942671954632,-0.008889365009963512,23.869842529296875,6.2328033447265625,-90.68508911132812
arm1,306.902,-0.3950042724609375,-0.8698577880859375,0.303497314453125,-0.0025856629945337772,0.006355101242661476,-0.04008509963750839,53.86407470703125,90.64332580566406,-149.32174682617188
arm2,467.369,0.0864105224609375,-0.9127349853515625,0.40032958984375,-0.0005257080192677677,0.004335360135883093,-0.002374474424868822,23.819732666015625,6.33282470703125,-90.78593444824219
arm2,467.389,0.0847320556640625,-0.9108123779296875,0.397918701171875,-0.0005257080192677677,0.004335360135883093,-0.002374474424868822,23.873092651367188,6.5210113525390625,-90.4869384765625
arm1,306.922,-0.396728515625,-0.8703765869140625,0.305328369140625,0.003596865339204669,0.011079282499849796,-0.03850638121366501,53.90299987792969,90.63764953613281,-149.49102783203125
arm1,306.942,-0.3960113525390625,-0.8716278076171875,0.305755615234375,0.010870757512748241,0.011419367976486683,-0.035844817757606506,53.71693420410156,90.61717224121094,-149.46087646484375
arm1,306.962,-0.399017333984375,-0.870391845703125,0.3046112060546875,0.013287575915455818,0.007415305823087692,-0.03075152076780796,53.95838928222656,90.75938415527344,-149.29844665527344
arm2,467.409,0.0869903564453125,-0.90936279296875,0.399139404296875,0.001663144095800817,0.0011925635626539588,0.0029888655990362167,23.793792724609375,6.399200439453125,-90.61711120605469
arm2,467.429,0.0861053466796875,-0.9084014892578125,0.401702880859375,-0.00791651289910078,-0.0025158883072435856,0.0016791230300441384,23.419296264648438,5.996917724609375,-90.59477233886719
arm2,467.449,0.0879364013671875,-0.90887451171875,0.40130615234375,-0.019095929339528084,-0.007230748422443867,-0.0006143912323750556,23.789794921875,6.27813720703125,-90.30308532714844
arm1,306.983,-0.3989715576171875,-0.870147705078125,0.3049774169921875,0.012319782748818398,-0.001788046327419579,-0.024033430963754654,54.03547668457031,90.7271728515625,-149.3521728515625
arm1,307.002,-0.40008544921875,-0.869842529296875,0.303497314453125,0.011638013646006584,-0.005708752200007439,-0.01908048428595066,53.8714599609375,90.53855895996094,-149.26229858398438
arm2,467.469,0.0893707275390625,-0.90869140625,0.4013519287109375,-0.022119151428341866,-0.019475962966680527,-0.0017052220646291971,24.15802001953125,6.372100830078125,-90.7718505859375
arm1,307.022,-0.400787353515625,-0.871368408203125,0.3029022216796875,0.014307034201920033,-0.0018221348291262984,-0.011415639892220497,53.79423522949219,90.78662109375,-149.52304077148438
arm2,467.489,0.0876312255859375,-0.9073944091796875,0.4018096923828125,-0.02220730111002922,-0.0212983638048172,-0.004714594222605228,24.021255493164062,6.4653778076171875,-90.73786926269531
arm2,467.509,0.0865325927734375,-0.9081878662109375,0.404083251953125,-0.02220730111002922,-0.0212983638048172,-0.004714594222605228,23.5919189453125,6.0175323486328125,-91.26054382324219
arm1,307.042,-0.401123046875,-0.8727264404296875,0.3007965087890625,0.017056748270988464,-0.0027899276465177536,-0.003972903825342655,53.86181640625,90.72109985351562,-149.7540283203125
arm1,307.062,-0.3995513916015625,-0.874359130859375,0.302276611328125,0.019458387047052383,-0.0009020126308314502,0.0019318570848554373,54.12890625,90.76072692871094,-149.74929809570312
arm2,467.529,0.0845489501953125,-0.9074249267578125,0.4046478271484375,-0.008099205791950226,-0.02130608819425106,-0.005111138802021742,23.846389770507812,6.134124755859375,-91.08689880371094
arm1,307.082,-0.3980255126953125,-0.8772125244140625,0.299835205078125,0.021380389109253883,0.0019145464757457376,0.006206230726093054,54.02098083496094,90.69610595703125,-149.89028930664062
arm2,467.549,0.08404541015625,-0.908294677734375,0.4038543701171875,-0.007552991155534983,-0.024383636191487312,-0.0049215215258300304,24.071456909179688,5.9864349365234375,-90.2474365234375
