sync_time,timestamp_ms,device_id,ax,ay,az,gx,gy,gz
0.006345987319946289,-229583054,0,-0.2916548550128937,0.19175292551517487,0.961912214756012,-11.474609375,18.00537109375,-37.90283203125
0.01566910743713379,-229583047,1,0.9409354329109192,0.24917340278625488,-0.13496071100234985,-10.55908203125,2.25830078125,4.45556640625
0.03982400894165039,-229583035,0,-0.2970259487628937,0.19468261301517487,0.969724714756012,-12.75634765625,18.310546875,-38.75732421875
0.03983283042907715,-229583016,0,-0.3155806362628937,0.17930175364017487,0.971189558506012,-13.61083984375,20.08056640625,-39.6728515625
0.04820394515991211,-229583028,1,0.9643729329109192,0.23550152778625488,-0.14521461725234985,-11.5966796875,6.2255859375,5.0048828125
0.04821491241455078,-229583009,1,0.9621756672859192,0.23354840278625488,-0.11762671917676926,-12.8173828125,7.50732421875,5.0048828125
0.06037306785583496,-229582997,0,-0.3343794643878937,0.17808105051517487,0.989744246006012,-13.12255859375,21.05712890625,-40.10009765625
0.07699322700500488,-229582990,1,0.9809744954109192,0.22329449653625488,-0.08832984417676926,-13.12255859375,7.9345703125,3.7841796875
0.08823895454406738,-229582971,1,0.9572928547859192,0.22646832466125488,-0.08393531292676926,-12.939453125,3.662109375,4.39453125
0.09232401847839355,-229582978,0,-0.3624556362628937,0.16807128489017487,0.999021589756012,-11.71875,19.8974609375,-39.4287109375
0.0923311710357666,-229582959,0,-0.3705122768878937,0.15781737864017487,0.989255964756012,-11.3525390625,16.54052734375,-39.61181640625
0.1037139892578125,-229582952,1,0.9426444172859192,0.21426129341125488,-0.06367164105176926,-12.8173828125,-0.48828125,3.72314453125
0.12041783332824707,-229582940,0,-0.3448775112628937,0.15781737864017487,0.964841902256012,-9.70458984375,15.2587890625,-40.52734375
0.1435248851776123,-229582933,1,0.9301932454109192,0.22964215278625488,-0.09882789105176926,-14.09912109375,-1.64794921875,2.74658203125
0.15041899681091309,-229582921,0,-0.3050825893878937,0.16440917551517487,0.918211042881012,-8.30078125,13.61083984375,-43.02978515625
0.16534113883972168,-229582897,1,0.8950369954109192,0.23672223091125488,-0.12861305475234985,-18.24951171875,1.220703125,1.953125
0.1899700164794922,-229582885,0,-0.2870161831378937,0.18711425364017487,0.934812605381012,-8.1787109375,16.6015625,-44.921875
0.18997788429260254,-229582866,0,-0.2918989956378937,0.16855956614017487,0.950193464756012,-8.30078125,16.05224609375,-46.0205078125
0.19554591178894043,-229582878,1,0.9094412922859192,0.21767926216125488,-0.13764625787734985,-18.4326171875,2.38037109375,2.685546875
0.19558215141296387,-229582859,1,0.9206717610359192,0.21963238716125488,-0.14838844537734985,-18.9208984375,4.150390625,1.5869140625
0.20992183685302734,-229582847,0,-0.2987349331378937,0.15439940989017487,0.957517683506012,-7.26318359375,17.4560546875,-46.20361328125
0.2272191047668457,-229582840,1,0.9255545735359192,0.21572613716125488,-0.12861305475234985,-20.32470703125,4.21142578125,-0.6103515625
0.23875904083251953,-229582821,1,0.9275076985359192,0.18960309028625488,-0.13691383600234985,-22.64404296875,5.31005859375,-4.5166015625
0.24359583854675293,-229582828,0,-0.3001997768878937,0.13511230051517487,0.968992292881012,-4.45556640625,15.44189453125,-47.607421875
0.24360418319702148,-229582809,0,-0.3001997768878937,0.12119628489017487,0.960691511631012,-0.9765625,15.13671875,-47.9736328125
0.25648021697998047,-229582802,1,0.9553397297859192,0.18545269966125488,-0.13178688287734985,-25.32958984375,4.45556640625,-5.31005859375
0.2705109119415283,-229582790,0,-0.3087446987628937,0.10215331614017487,0.966306746006012,3.60107421875,16.2353515625,-51.94091796875
0.29192399978637695,-229582783,1,0.9641287922859192,0.19253277778625488,-0.12617164850234985,-29.47998046875,5.4931640625,-7.50732421875
0.29268693923950195,-229582764,1,0.9797537922859192,0.17641949653625488,-0.11274390667676926,-33.63037109375,1.40380859375,-8.23974609375
0.3006629943847656,-229582771,0,-0.3214400112628937,0.11338378489017487,0.987546980381012,8.7890625,16.41845703125,-54.38232421875
0.3007800579071045,-229582752,0,-0.3316939175128937,0.12681151926517487,1.0256328582763672,7.87353515625,16.2353515625,-56.0302734375
0.31544995307922363,-229582745,1,1.0019705295562744,0.17324566841125488,-0.10932593792676926,-35.46142578125,0.67138671875,-5.615234375
0.3409700393676758,-229582733,0,-0.3460982143878937,0.07871581614017487,0.984129011631012,7.75146484375,15.93017578125,-61.5234375
0.3409860134124756,-229582714,0,-0.3695357143878937,0.04770995303988457,0.970457136631012,13.00048828125,19.53125,-70.12939453125
0.3473169803619385,-229582726,1,1.0166189670562744,0.18594098091125488,-0.11689429730176926,-42.48046875,3.173828125,-4.94384765625
0.34732508659362793,-229582707,1,1.0075857639312744,0.15469098091125488,-0.09150367230176926,-52.490234375,10.6201171875,-9.09423828125
0.3603029251098633,-229582695,0,-0.3553755581378937,0.05186034366488457,0.956785261631012,18.6767578125,21.1181640625,-74.40185546875
0.37541794776916504,-229582688,1,0.9851248860359192,0.16982769966125488,-0.07636695355176926,-61.279296875,11.04736328125,-13.61083984375
0.3932340145111084,-229582669,1,0.9765799641609192,0.18056988716125488,-0.05634742230176926,-69.82421875,8.97216796875,-11.90185546875
0.39967799186706543,-229582676,0,-0.3846724331378937,0.07212401926517487,0.964109480381012,25.146484375,25.08544921875,-80.38330078125
0.3996870517730713,-229582657,0,-0.3927290737628937,0.11240722239017487,0.960691511631012,28.1982421875,23.681640625,-87.34130859375
0.41843318939208984,-229582621,0,-0.3851607143878937,0.07969237864017487,0.896238386631012,23.681640625,29.23583984375,-99.54833984375
0.4442329406738281,-229582633,1,0.9934256672859192,0.16494488716125488,-0.06196265667676926,-78.857421875,19.22607421875,-6.4697265625
0.44516491889953613,-229582614,1,0.9973319172859192,0.15127301216125488,-0.03901343792676926,-83.19091796875,24.4140625,-8.36181640625
0.4525411128997803,-229582602,0,-0.4281294643878937,0.12363769114017487,0.917478621006012,22.76611328125,29.4189453125,-99.18212890625
0.46532201766967773,-229582595,1,0.9389823079109192,0.10610699653625488,-0.019726328551769257,-82.6416015625,28.4423828125,-15.93017578125
0.4926931858062744,-229582583,0,-0.3812544643878937,0.08628417551517487,0.891111433506012,23.25439453125,11.1083984375,-92.95654296875
0.4927029609680176,-229582564,0,-0.3258345425128937,0.04966307803988457,0.810545027256012,17.02880859375,10.1318359375,-92.28515625
0.49770498275756836,-229582576,1,0.9336112141609192,0.16006207466125488,-0.010448984801769257,-84.41162109375,28.4423828125,-19.287109375
0.4977118968963623,-229582557,1,0.9250662922859192,0.16763043403625488,0.010547108948230743,-92.83447265625,49.37744140625,-16.6015625
0.5125179290771484,-229582545,0,-0.18520954251289368,0.10142089426517487,0.763181746006012,7.75146484375,61.70654296875,-122.86376953125
0.5246989727020264,-229582538,1,0.9604666829109192,0.19668316841125488,-0.03217750042676926,-114.8681640625,77.2705078125,-7.87353515625
0.5248129367828369,-229582519,1,0.9389823079109192,0.3026401996612549,0.18315452337265015,-108.2763671875,102.60009765625,-7.14111328125
0.5453751087188721,-229582526,0,-0.5604536533355713,0.24106933176517487,0.654783308506012,13.48876953125,69.27490234375,-114.8681640625
0.5453839302062988,-229582507,0,-0.7379438877105713,0.36777830123901367,0.746336042881012,20.56884765625,65.5517578125,-103.271484375
0.5555338859558105,-229582500,1,0.9995291829109192,0.2672398090362549,0.27592796087265015,-110.04638671875,120.30029296875,-28.99169921875
0.5684030055999756,-229582488,0,-0.5174849033355713,0.19932128489017487,0.873777449131012,27.03857421875,37.841796875,-101.9287109375
0.593634843826294,-229582481,1,0.8303397297859192,0.19180035591125488,0.29375022649765015,-95.3369140625,121.2158203125,-29.296875
0.5936431884765625,-229582462,1,0.8259451985359192,0.5167515277862549,0.38457053899765015,-50.537109375,128.60107421875,-15.13671875
0.6005270481109619,-229582469,0,-0.5729048252105713,0.7222704887390137,1.1989727020263672,39.306640625,-15.93017578125,-71.044921875
0.6006591320037842,-229582450,0,-0.4352095425128937,0.22861815989017487,1.0590801239013672,42.6025390625,-8.056640625,-71.10595703125
0.613818883895874,-229582443,1,0.7736991047859192,0.17544293403625488,0.42021507024765015,-71.6552734375,139.16015625,-12.20703125
0.6399350166320801,-229582431,0,-0.4002974331378937,0.015239249914884567,1.2192363739013672,34.423828125,-16.29638671875,-80.322265625
0.6399459838867188,-229582412,0,-0.5238325595855713,0.12314940989017487,1.0966777801513672,49.6826171875,-10.6201171875,-93.505859375
0.6484870910644531,-229582424,1,0.6572440266609192,0.061673399060964584,0.5647463202476501,-96.6796875,85.38818359375,-7.50732421875
0.6484990119934082,-229582405,1,0.9375174641609192,0.3309605121612549,0.7275881171226501,-103.6376953125,67.56591796875,-9.27734375
0.6605179309844971,-229582393,0,-0.4613325893878937,0.33164548873901367,1.2582988739013672,74.89013671875,27.587890625,-87.95166015625
0.675407886505127,-229582369,1,0.8579276204109192,0.5140659809112549,0.7385744452476501,-21.91162109375,70.00732421875,5.37109375
0.695357084274292,-229582357,0,-0.3409712612628937,0.40513181686401367,1.0722637176513672,69.64111328125,90.6982421875,-115.6005859375
0.7055280208587646,-229582350,1,0.7505057454109192,0.4864780902862549,0.8147463202476501,5.43212890625,61.09619140625,21.240234375
0.7187538146972656,-229582338,0,-0.3543989956378937,0.42319822311401367,1.0378398895263672,67.81005859375,68.05419921875,-131.7138671875
0.7431058883666992,-229582331,1,0.7556326985359192,0.3168003559112549,0.8066896796226501,14.70947265625,36.0107421875,7.50732421875
0.7431151866912842,-229582312,1,0.7873709797859192,0.3578159809112549,0.7261232733726501,7.4462890625,22.705078125,2.01416015625
0.7508161067962646,-229582319,0,-0.4791548550128937,0.46934080123901367,0.938474714756012,64.8193359375,24.71923828125,-129.8828125
0.750913143157959,-229582300,0,-0.5531294345855713,0.47739744186401367,1.0620098114013672,60.546875,1.52587890625,-121.7041015625
0.7658340930938721,-229582293,1,0.7309744954109192,0.3121616840362549,0.6575197577476501,15.19775390625,7.8125,16.05224609375
0.7910540103912354,-229582281,0,-0.4107954800128937,0.46226072311401367,1.0698223114013672,59.26513671875,6.34765625,-115.6005859375
0.791064977645874,-229582262,0,-0.4315474331378937,0.45225095748901367,1.0165996551513672,65.4296875,21.42333984375,-107.84912109375
0.7955129146575928,-229582274,1,0.7317069172859192,0.3531773090362549,0.6462892889976501,25.5126953125,-1.77001953125,35.7666015625
0.7956509590148926,-229582255,1,0.7981131672859192,0.3939487934112549,0.6243166327476501,27.587890625,-0.67138671875,46.0205078125
0.8133199214935303,-229582243,0,-0.5184614658355713,0.37583494186401367,1.1955547332763672,82.275390625,-16.17431640625,-82.275390625
0.8401780128479004,-229582236,1,0.8965018391609192,0.3334019184112549,0.5901369452476501,26.123046875,-18.6767578125,70.4345703125
0.845973014831543,-229582224,0,-0.5680220127105713,0.5042529106140137,1.0212383270263672,52.24609375,-9.21630859375,-71.044921875
0.8459830284118652,-229582205,0,-0.4493696987628937,0.34336423873901367,1.1042461395263672,10.43701171875,-5.43212890625,-53.955078125
0.8554949760437012,-229582217,1,1.2922537326812744,0.10976910591125488,0.7878908514976501,6.77490234375,-38.87939453125,126.708984375
0.8556880950927734,-229582198,1,0.8154471516609192,0.2777378559112549,0.47709983587265015,-56.396484375,30.76171875,155.94482421875
0.8706200122833252,-229582186,0,-0.5201704502105713,0.5633349418640137,1.1640605926513672,-76.23291015625,-49.74365234375,-43.8232421875
0.8974208831787109,-229582179,1,0.7976248860359192,0.20449566841125488,0.33256858587265015,-64.208984375,-3.5400390625,126.708984375
0.8974349498748779,-229582160,1,0.9192069172859192,0.13955426216125488,0.36821311712265015,-17.51708984375,-9.1552734375,116.02783203125
0.9026589393615723,-229582167,0,-0.3211958706378937,0.7366747856140137,0.878416121006012,-101.806640625,-20.5078125,-62.68310546875
0.902667760848999,-229582148,0,-0.6312544345855713,-0.04481934383511543,0.859861433506012,-10.6201171875,43.64013671875,-169.73876953125
0.9154179096221924,-229582141,1,0.9531424641609192,0.08413434028625488,0.29399436712265015,19.22607421875,14.5263671875,87.0361328125
0.9406008720397949,-229582129,0,-0.7010786533355713,0.07773925364017487,0.797361433506012,59.08203125,29.35791015625,-160.46142578125
0.9472851753234863,-229582105,1,1.0429861545562744,0.040433164685964584,0.36918967962265015,56.09130859375,-23.98681640625,41.9921875
0.9604818820953369,-229582093,0,-0.6043989658355713,0.30649900436401367,0.861082136631012,57.31201171875,-25.20751953125,-89.17236328125
0.9755749702453613,-229582086,1,1.0156424045562744,0.023099180310964584,0.35405296087265015,49.4384765625,-25.93994140625,39.48974609375
0.9943749904632568,-229582074,0,-0.6280806064605713,-0.0013623125851154327,0.908201277256012,31.3720703125,-51.513671875,-113.76953125
0.9943850040435791,-229582055,0,-0.6346724033355713,0.05186034366488457,0.805906355381012,22.5830078125,-62.1337890625,-115.53955078125
1.0054969787597656,-229582067,1,0.9958670735359192,0.004544492810964584,0.32573264837265015,33.935546875,-28.25927734375,40.52734375
1.0056228637695312,-229582048,1,0.8918631672859192,-0.053805116564035416,0.30375999212265015,18.85986328125,-33.69140625,42.66357421875
1.02052903175354,-229582036,0,-0.5858442783355713,0.021342765539884567,0.857664167881012,12.3291015625,-63.17138671875,-99.54833984375
1.0418179035186768,-229582029,1,0.9763358235359192,0.044095274060964584,0.23417991399765015,32.5927734375,-40.771484375,45.8984375
1.0418250560760498,-229582010,1,1.0520193576812744,0.011136289685964584,0.23344749212265015,50.1708984375,-28.62548828125,52.734375
1.050624132156372,-229582017,0,-0.4906294643878937,0.11948730051517487,0.826658308506012,2.0751953125,-76.11083984375,-95.947265625
1.0507590770721436,-229581998,0,-0.3822310268878937,0.04844237491488457,0.793455183506012,-21.1181640625,-80.62744140625,-102.5390625
1.0655310153961182,-229581991,1,1.0366384983062744,-0.024264100939035416,0.21733421087265015,59.4482421875,-20.08056640625,53.955078125
1.0904479026794434,-229581979,0,-0.5721724033355713,0.35239744186401367,0.714353621006012,12.6953125,-44.5556640625,-95.458984375
1.0956780910491943,-229581972,1,1.0171072483062744,-0.052584413439035416,0.23173850774765015,66.0400390625,-15.7470703125,45.41015625
1.095768928527832,-229581953,1,0.9961112141609192,-0.10336565971374512,0.25590842962265015,67.2607421875,-26.30615234375,38.818359375
1.1111140251159668,-229581960,0,-0.5697309970855713,0.06504394114017487,0.828367292881012,48.15673828125,-50.35400390625,-73.66943359375
1.111126184463501,-229581941,0,-0.4667036831378937,0.05015135928988457,0.803953230381012,60.9130859375,-43.8232421875,-75.927734375
1.123986005783081,-229581934,1,0.9284842610359192,-0.12729144096374512,0.15410178899765015,60.36376953125,-39.1845703125,33.69140625
1.1472289562225342,-229581922,0,-0.4447310268878937,0.20200683176517487,0.727781355381012,76.35498046875,-47.79052734375,-64.14794921875
1.14723801612854,-229581903,0,-0.4305708706378937,0.20737792551517487,0.784910261631012,78.125,-56.7626953125,-46.56982421875
1.155513048171997,-229581915,1,0.9008963704109192,-0.10824847221374512,0.16435569524765015,61.46240234375,-41.748046875,19.775390625
1.1556251049041748,-229581896,1,0.8779471516609192,-0.15902972221374512,0.11845726519823074,57.861328125,-42.724609375,3.60107421875
1.1703341007232666,-229581884,0,-0.4276411831378937,0.27524900436401367,0.839109480381012,78.857421875,-65.673828125,-35.09521484375
1.1945440769195557,-229581877,1,0.8659842610359192,-0.13363909721374512,0.10014671832323074,59.326171875,-45.2880859375,-4.2724609375
1.2004921436309814,-229581865,0,-0.4090864956378937,0.29478025436401367,0.853757917881012,73.30322265625,-65.49072265625,-34.1796875
1.2154572010040283,-229581841,1,0.8105643391609192,-0.11313128471374512,0.05522484332323074,59.08203125,-43.9453125,-4.150390625
1.2401139736175537,-229581829,0,-0.3946821987628937,0.17173339426517487,0.884763777256012,61.4013671875,-59.26513671875,-32.28759765625
1.2482850551605225,-229581822,1,0.7932303547859192,-0.14609026908874512,0.0024904683232307434,50.35400390625,-66.2841796875,-4.69970703125
1.2482950687408447,-229581803,1,0.8620780110359192,-0.18515276908874512,0.012744374573230743,38.14697265625,-98.69384765625,-4.45556640625
1.260585069656372,-229581810,0,-0.4383833706378937,0.30088376998901367,0.824461042881012,36.80419921875,-56.94580078125,-20.751953125
1.2607200145721436,-229581791,0,-0.3617232143878937,0.41953611373901367,0.780759871006012,-3.11279296875,-62.6220703125,-7.26318359375
1.2757420539855957,-229581784,1,0.9040701985359192,-0.21322894096374512,-0.04121070355176926,21.66748046875,-118.896484375,-0.91552734375
1.2943871021270752,-229581772,0,-0.24795368313789368,0.44370603561401367,0.833250105381012,-21.240234375,-56.7626953125,-11.77978515625
1.294395923614502,-229581753,0,-0.2923872768878937,0.36338376998901367,0.808103621006012,-14.95361328125,-52.42919921875,-49.9267578125
1.3054769039154053,-229581765,1,0.8672049641609192,-0.2693812847137451,-0.09028296917676926,-0.244140625,-122.98583984375,-6.2255859375
1.3055739402770996,-229581746,1,0.7932303547859192,-0.24252581596374512,-0.17036110162734985,-31.1279296875,-130.7373046875,-5.79833984375
1.3207190036773682,-229581734,0,-0.3753950893878937,0.24521972239017487,0.806394636631012,7.568359375,-54.5654296875,-68.54248046875
1.3421478271484375,-229581727,1,0.8789237141609192,-0.23617815971374512,-0.20161110162734985,-49.4384765625,-147.39990234375,-0.54931640625
1.3504910469055176,-229581715,0,-0.3382857143878937,0.25229978561401367,0.863279402256012,8.36181640625,-45.10498046875,-46.630859375
1.3506278991699219,-229581696,0,-0.3158247768878937,0.25742673873901367,0.843015730381012,-3.41796875,-42.41943359375,-19.53125
1.3656010627746582,-229581708,1,0.7522147297859192,-0.3086879253387451,-0.30195289850234985,-26.79443359375,-168.02978515625,-24.35302734375
1.3656721115112305,-229581689,1,0.8003104329109192,-0.3645961284637451,-0.22822242975234985,0.0,-170.166015625,-72.20458984375
1.39398193359375,-229581677,0,-0.24282673001289368,0.33140134811401367,0.831296980381012,-6.9580078125,-48.095703125,2.38037109375
1.3986608982086182,-229581670,1,0.8679373860359192,-0.08212542533874512,-0.15644508600234985,2.0751953125,-102.6611328125,-131.9580078125
1.398667812347412,-229581651,1,0.9384940266609192,0.09170269966125488,-0.20698219537734985,-57.2509765625,-20.32470703125,-156.494140625
1.4108459949493408,-229581658,0,-0.20352008938789368,0.39902830123901367,0.865720808506012,-4.94384765625,-53.22265625,-16.17431640625
1.410856008529663,-229581639,0,-0.20644977688789368,0.38804197311401367,0.931394636631012,-1.0986328125,-55.84716796875,-49.62158203125
1.4392001628875732,-229581632,1,0.8193534016609192,0.009183164685964584,-0.23774391412734985,-85.38818359375,19.1650390625,-150.5126953125
1.4443621635437012,-229581620,0,-0.19302204251289368,0.36851072311401367,0.959959089756012,-7.99560546875,-52.42919921875,-49.74365234375
1.4555590152740479,-229581613,1,1.0041677951812744,-0.3477504253387451,-0.5102048516273499,-72.998046875,-14.22119140625,-93.93310546875
1.4703891277313232,-229581601,0,-0.18691852688789368,0.34092283248901367,0.985837996006012,-19.71435546875,-38.26904296875,-26.9775390625
1.493114948272705,-229581577,1,1.1037771701812744,0.12441754341125488,-0.23261696100234985,-87.7685546875,-26.79443359375,-45.34912109375
1.5008468627929688,-229581565,0,-0.17324665188789368,0.40732908248901367,0.978757917881012,-9.033203125,-44.3115234375,-20.263671875
1.5009701251983643,-229581546,0,-0.16396930813789368,0.39731931686401367,1.0439434051513672,-1.64794921875,-55.84716796875,-48.7060546875
1.514312982559204,-229581558,1,1.0962088108062744,0.12441754341125488,-0.23676735162734985,-125.06103515625,-30.8837890625,-16.357421875
1.5144479274749756,-229581539,1,1.1028006076812744,0.19033551216125488,-0.21064430475234985,-126.52587890625,-40.8935546875,9.82666015625
1.5407099723815918,-229581527,0,-0.18203571438789368,0.38535642623901367,1.0705547332763672,-7.26318359375,-51.69677734375,-55.908203125
1.5470890998840332,-229581520,1,1.1286795139312744,0.2743198871612549,-0.16694313287734985,-127.01416015625,-52.24609375,30.6396484375
1.5470969676971436,-229581501,1,1.0984060764312744,0.2989780902862549,-0.12788063287734985,-119.873046875,-67.7490234375,31.3720703125
1.560554027557373,-229581508,0,-0.19546344876289368,0.36460447311401367,1.0649394989013672,-15.19775390625,-42.05322265625,-48.27880859375
1.5605850219726562,-229581489,0,-0.19155719876289368,0.32749509811401367,1.0070781707763672,-14.6484375,-33.69140625,-47.79052734375
1.5729281902313232,-229581482,1,1.1579763889312744,0.2606480121612549,-0.15131813287734985,-110.107421875,-59.50927734375,1.03759765625
1.5964419841766357,-229581470,0,-0.22793415188789368,0.32065916061401367,0.992918074131012,-11.04736328125,-40.1611328125,-46.20361328125
1.6055450439453125,-229581463,1,1.1447927951812744,0.2616245746612549,-0.13471657037734985,-110.83984375,-43.212890625,-41.32080078125
1.6056761741638184,-229581444,1,1.1816580295562744,0.2713901996612549,-0.13032203912734985,-106.99462890625,-42.41943359375,-54.8095703125
1.6207120418548584,-229581451,0,-0.24917438626289368,0.32627439498901367,1.0053691864013672,-8.30078125,-42.1142578125,-35.33935546875
1.6208419799804688,-229581432,0,-0.24990680813789368,0.31089353561401367,0.995359480381012,-8.4228515625,-31.982421875,-25.146484375
1.6426739692687988,-229581425,1,1.1438162326812744,0.3395054340362549,-0.09199195355176926,-90.2099609375,-45.95947265625,-42.48046875
1.6507489681243896,-229581413,0,-0.2516157925128937,0.28159666061401367,0.974851667881012,-13.916015625,-18.310546875,-22.5830078125
1.6508491039276123,-229581394,0,-0.2635786831378937,0.29844236373901367,0.942869246006012,-19.6533203125,-14.404296875,-25.08544921875
1.6654911041259766,-229581406,1,1.1242849826812744,0.4068882465362549,-0.04877906292676926,-82.275390625,-39.97802734375,-29.78515625
1.6655681133270264,-229581387,1,1.0993826389312744,0.3343784809112549,0.022265858948230743,-80.810546875,-29.23583984375,-35.64453125
1.6913230419158936,-229581375,0,-0.2677290737628937,0.27915525436401367,0.921384871006012,-24.2919921875,-17.88330078125,-30.33447265625
1.695688009262085,-229581368,1,1.0703299045562744,0.2696812152862549,-0.0009275004267692566,-95.703125,-27.03857421875,-57.67822265625
1.6957759857177734,-229581349,1,1.0017263889312744,0.3746616840362549,0.07084984332323074,-98.14453125,-5.9814453125,-97.65625
1.7116172313690186,-229581356,0,-0.2955611050128937,0.27061033248901367,0.900877058506012,-28.13720703125,-26.18408203125,-32.65380859375
1.7116279602050781,-229581337,0,-0.2911665737628937,0.18076659739017487,0.924558699131012,-24.0478515625,-30.8837890625,-14.34326171875
1.746349811553955,-229581301,0,-0.2704146206378937,0.25522947311401367,0.883787214756012,-12.02392578125,0.3662109375,26.9775390625
1.7553999423980713,-229581313,1,1.0002615451812744,0.5584995746612549,0.13945335149765015,-76.0498046875,25.0244140625,-60.546875
1.7555091381072998,-229581294,1,0.9238455891609192,0.4703648090362549,0.16093772649765015,-45.8984375,23.49853515625,-29.60205078125
1.7703499794006348,-229581282,0,-0.2850630581378937,0.27451658248901367,0.889158308506012,-14.46533203125,12.26806640625,29.11376953125
1.794877052307129,-229581275,1,0.8398612141609192,0.5006382465362549,0.17631858587265015,-16.29638671875,42.724609375,-27.83203125
1.8006091117858887,-229581263,0,-0.21230915188789368,0.29160642623901367,0.917478621006012,-9.70458984375,12.87841796875,54.3212890625
1.800734043121338,-229581244,0,-0.07314898818731308,0.29111814498901367,0.921629011631012,-0.8544921875,11.77978515625,79.9560546875
1.8155510425567627,-229581256,1,0.8266776204109192,0.4559605121612549,0.11479515582323074,-2.5634765625,70.98388671875,-48.52294921875
1.815674066543579,-229581237,1,0.8349784016609192,0.3275425434112549,0.16899436712265015,-1.64794921875,114.6240234375,-97.2900390625
1.839231014251709,-229581225,0,-0.04775836318731308,0.44321775436401367,0.876218855381012,7.50732421875,16.2353515625,77.94189453125
1.8438770771026611,-229581218,1,0.7866385579109192,0.3907749652862549,0.09111351519823074,-41.19873046875,119.93408203125,-107.36083984375
1.8479571342468262,-229581199,1,0.8469412922859192,0.5624058246612549,0.15483421087265015,-45.83740234375,122.9248046875,-79.65087890625
1.860584020614624,-229581206,0,-0.04580523818731308,0.48228025436401367,0.857420027256012,6.89697265625,21.54541015625,52.1240234375
1.8606958389282227,-229581187,0,-0.01113726943731308,0.37339353561401367,0.897947371006012,4.82177734375,14.7705078125,29.72412109375
1.8765621185302734,-229581180,1,0.9406912922859192,0.6280796527862549,0.21489280462265015,-15.9912109375,87.46337890625,-42.05322265625
1.8968710899353027,-229581168,0,0.06674358993768692,0.42393064498901367,0.985105574131012,15.44189453125,-2.86865234375,53.22265625
1.9056808948516846,-229581161,1,0.8774588704109192,0.5963413715362549,0.15800803899765015,17.9443359375,8.36181640625,20.263671875
1.905811071395874,-229581142,1,0.8613455891609192,0.5143101215362549,0.03178734332323074,11.77978515625,-10.8642578125,19.8974609375
1.9206490516662598,-229581149,0,0.17123576998710632,0.5254931449890137,0.978757917881012,15.13671875,13.671875,59.99755859375
1.9207770824432373,-229581130,0,0.17025920748710632,0.5894579887390137,0.974363386631012,10.1318359375,23.62060546875,50.47607421875
1.9420099258422852,-229581123,1,0.8110526204109192,0.3480503559112549,0.06767601519823074,-12.3291015625,23.681640625,-1.46484375
1.9489729404449463,-229581111,0,0.21835491061210632,0.5428271293640137,0.947996199131012,-1.220703125,36.68212890625,25.69580078125
1.9490599632263184,-229581092,0,0.11703655868768692,0.43516111373901367,0.927488386631012,-7.01904296875,45.166015625,9.46044921875
1.9654059410095215,-229581104,1,0.8816092610359192,0.4681675434112549,0.06523460894823074,-40.4052734375,56.70166015625,-2.5634765625
1.9654748439788818,-229581085,1,0.8840506672859192,0.5294468402862549,0.12553733587265015,-43.3349609375,71.10595703125,-3.662109375
1.994314193725586,-229581073,0,0.13266155123710632,0.39438962936401367,0.975584089756012,-5.31005859375,46.5087890625,28.62548828125
1.9999339580535889,-229581049,1,0.8291190266609192,0.5443394184112549,0.21098655462265015,-24.96337890625,42.66357421875,36.07177734375
2.018336057662964,-229581037,0,0.17538616061210632,0.43955564498901367,0.942380964756012,0.79345703125,61.1572265625,63.29345703125
2.024811029434204,-229581030,1,0.8537772297859192,0.5199253559112549,0.34013694524765015,-18.37158203125,32.65380859375,83.0078125
2.0438239574432373,-229581018,0,0.11483929306268692,0.49448728561401367,0.912107527256012,9.82666015625,62.5,46.56982421875
2.05391001701355,-229581011,1,0.9450858235359192,0.5345737934112549,0.33525413274765015,12.6953125,65.85693359375,143.6767578125
2.0540671348571777,-229580992,1,0.8440116047859192,0.3736851215362549,0.21831077337265015,15.625,93.75,206.97021484375
2.070220947265625,-229580999,0,0.07528851181268692,0.48911619186401367,0.916257917881012,14.46533203125,54.6875,22.76611328125
2.070294141769409,-229580980,0,0.06674358993768692,0.40757322311401367,0.947752058506012,20.08056640625,44.86083984375,4.39453125
2.091784954071045,-229580973,1,1.0857107639312744,0.17544293403625488,0.03740257769823074,6.53076171875,97.900390625,227.35595703125
2.1005170345306396,-229580961,0,0.08285687118768692,0.32773923873901367,0.952634871006012,23.37646484375,35.09521484375,0.1220703125
2.100640058517456,-229580942,0,0.10800335556268692,0.34214353561401367,0.943601667881012,25.20751953125,41.93115234375,4.638671875
2.1156399250030518,-229580954,1,1.0786306858062744,0.060696836560964584,0.21196311712265015,-20.93505859375,78.06396484375,162.41455078125
2.1157331466674805,-229580935,1,0.9118826985359192,-0.06601214408874512,0.15166038274765015,-24.4140625,-15.869140625,85.63232421875
2.1400017738342285,-229580923,0,0.09677288681268692,0.43784666061401367,0.980955183506012,21.78955078125,35.888671875,19.8974609375
2.1459579467773438,-229580916,1,1.0180838108062744,0.19814801216125488,0.27177757024765015,-24.7802734375,-13.36669921875,-13.671875
2.160496950149536,-229580904,0,0.13485881686210632,0.49302244186401367,1.0366191864013672,11.1083984375,24.0478515625,20.20263671875
2.160658121109009,-229580885,0,0.18295451998710632,0.5152392387390137,1.0612773895263672,3.5400390625,19.47021484375,8.6669921875
2.177243947982788,-229580897,1,0.9485037922859192,0.11855816841125488,0.19340842962265015,-52.67333984375,15.380859375,-86.3037109375
2.1880438327789307,-229580878,1,1.0349295139312744,0.17056012153625488,0.08061546832323074,-56.70166015625,-9.58251953125,-97.5341796875
2.1922709941864014,-229580866,0,0.17978069186210632,0.48423337936401367,1.0527324676513672,2.50244140625,18.9208984375,1.8310546875
2.205855131149292,-229580859,1,0.9785330891609192,0.16933941841125488,0.23198264837265015,-58.10546875,52.30712890625,-98.44970703125
2.20599102973938,-229580840,1,0.8882010579109192,0.3087437152862549,0.26225608587265015,-72.93701171875,82.51953125,-76.0498046875
2.2206649780273438,-229580847,0,0.17807170748710632,0.46641111373901367,1.0168437957763672,5.79833984375,33.935546875,5.31005859375
2.2207891941070557,-229580828,0,0.20053264498710632,0.44761228561401367,0.998533308506012,12.5732421875,38.75732421875,11.90185546875
2.2421679496765137,-229580821,1,0.7856619954109192,0.6288120746612549,0.34599632024765015,-73.79150390625,110.4736328125,-53.40576171875
2.249660015106201,-229580809,0,0.2510697543621063,0.48594236373901367,0.982664167881012,15.93017578125,38.330078125,17.4560546875
2.2656190395355225,-229580785,1,0.7068045735359192,0.2696812152862549,0.40898460149765015,4.5166015625,82.70263671875,-63.720703125
2.290663957595825,-229580773,0,0.2608353793621063,0.5638232231140137,0.952146589756012,20.56884765625,39.9169921875,26.85546875
2.297224998474121,-229580766,1,0.9455741047859192,0.2826206684112549,0.6951174139976501,63.3544921875,92.59033203125,-40.0390625
2.3107030391693115,-229580754,0,0.23349162936210632,0.5621142387390137,0.927732527256012,11.65771484375,36.19384765625,8.6669921875
2.310795783996582,-229580735,0,0.2828080356121063,0.5057177543640137,0.914304792881012,0.9765625,32.71484375,-5.9814453125
2.341686964035034,-229580747,1,1.0361502170562744,0.4383823871612549,0.7205080389976501,10.6201171875,93.994140625,-12.451171875
2.341697931289673,-229580728,1,1.0920584201812744,0.5638706684112549,0.8313478827476501,-17.15087890625,105.8349609375,-9.82666015625
2.3488330841064453,-229580716,0,0.2867142856121063,0.40366697311401367,0.912351667881012,-1.40380859375,44.5556640625,-7.01904296875
2.354037046432495,-229580709,1,0.6394217610359192,0.5082066059112549,0.5928224921226501,-18.61572265625,136.29150390625,-26.42822265625
2.3541688919067383,-229580690,1,0.8252127766609192,0.5284702777862549,0.6086916327476501,-57.55615234375,210.99853515625,-83.92333984375
2.370620012283325,-229580697,0,0.23910686373710632,0.41270017623901367,0.898435652256012,4.39453125,53.28369140625,1.03759765625
2.370682954788208,-229580678,0,0.14438030123710632,0.40122556686401367,0.938230574131012,14.83154296875,54.87060546875,11.5966796875
2.3944849967956543,-229580671,1,0.6132987141609192,0.4459507465362549,0.8247560858726501,-159.72900390625,222.2900390625,-92.71240234375
2.40083909034729,-229580659,0,0.12265179306268692,0.47812986373901367,0.937254011631012,12.75634765625,61.03515625,5.9814453125
2.4156219959259033,-229580652,1,0.4909842610359192,0.08364605903625488,0.47075217962265015,-159.60693359375,141.29638671875,-63.41552734375
2.4157159328460693,-229580633,1,0.3108084797859192,0.049954649060964584,0.8508791327476501,-19.287109375,12.5732421875,20.99609375
2.4400970935821533,-229580640,0,0.11630413681268692,0.49521970748901367,0.934568464756012,0.244140625,72.44873046875,-6.89697265625
2.4401049613952637,-229580621,0,0.02646038681268692,0.44199705123901367,0.908201277256012,-15.80810546875,67.0166015625,-8.72802734375
2.448470115661621,-229580614,1,0.5488455891609192,0.18252301216125488,0.8137697577476501,49.072265625,-42.90771484375,78.55224609375
2.459099054336548,-229580602,0,0.07431194931268692,0.43955564498901367,0.911863386631012,-15.31982421875,56.884765625,-0.1220703125
2.459235906600952,-229580583,0,0.07162640243768692,0.48130369186401367,0.916746199131012,-8.7890625,56.5185546875,9.033203125
2.4765541553497314,-229580595,1,0.5371268391609192,0.12173199653625488,0.7551760077476501,62.98828125,20.93505859375,56.82373046875
2.476562976837158,-229580576,1,0.5998709797859192,0.3622105121612549,0.6770510077476501,26.7333984375,55.5419921875,59.02099609375
2.4954841136932373,-229580564,0,0.05819866806268692,0.5001025199890137,0.900877058506012,-4.82177734375,56.94580078125,8.1787109375
2.5055058002471924,-229580557,1,0.4841483235359192,0.4493687152862549,0.49858421087265015,-45.95947265625,71.71630859375,38.2080078125
2.520473003387451,-229580545,0,0.02939007431268692,0.5257372856140137,0.895261824131012,-6.53076171875,55.908203125,-1.40380859375
2.5421149730682373,-229580521,1,0.7194998860359192,0.3524448871612549,0.5300783514976501,30.94482421875,-80.01708984375,75.98876953125
2.550475835800171,-229580509,0,0.04403851181268692,0.48936033248901367,0.888670027256012,-6.7138671875,50.4150390625,-12.939453125
2.564815044403076,-229580502,1,0.5815604329109192,0.2813999652862549,0.6074709296226501,16.66259765625,-54.931640625,58.59375
2.5648999214172363,-229580483,1,0.7028983235359192,0.23452496528625488,0.6665529608726501,45.95947265625,-54.38232421875,94.6044921875
2.5796499252319336,-229580490,0,0.04062054306268692,0.48154783248901367,0.882078230381012,-13.18359375,52.978515625,-10.498046875
2.579659938812256,-229580471,0,0.00766155868768692,0.49033689498901367,0.868406355381012,-16.05224609375,51.20849609375,-11.29150390625
2.5990710258483887,-229580464,1,0.8276541829109192,0.20376324653625488,0.6138185858726501,31.43310546875,-23.5595703125,68.42041015625
2.6122000217437744,-229580452,0,0.01254437118768692,0.5054736137390137,0.867185652256012,-15.625,48.33984375,-12.75634765625
2.6122100353240967,-229580433,0,0.02743694931268692,0.5008349418640137,0.898191511631012,-16.2353515625,40.22216796875,-13.36669921875
2.6382579803466797,-229580445,1,0.8847830891609192,0.19009137153625488,0.6279787421226501,42.29736328125,13.3056640625,46.32568359375
2.6382648944854736,-229580426,1,0.8298514485359192,0.2936069965362549,0.7134279608726501,42.41943359375,-5.4931640625,43.64013671875
2.6436409950256348,-229580414,0,0.04623577743768692,0.5186572074890137,0.907224714756012,-18.1884765625,36.80419921875,-11.5966796875
2.6558279991149902,-229580407,1,0.7182791829109192,0.3946812152862549,0.7297853827476501,78.30810546875,10.80322265625,19.04296875
2.6559479236602783,-229580388,1,0.6694510579109192,0.21841168403625488,0.5750002264976501,147.5830078125,97.900390625,43.39599609375
2.670658826828003,-229580395,0,0.04110882431268692,0.5345263481140137,0.907712996006012,-17.76123046875,37.53662109375,-9.82666015625
2.6707029342651367,-229580376,0,0.02963421493768692,0.5340380668640137,0.899168074131012,-16.29638671875,35.21728515625,-11.71875
2.6922810077667236,-229580369,1,0.8022635579109192,0.3072788715362549,0.5552248358726501,20.8740234375,46.0205078125,68.84765625
2.7008118629455566,-229580357,0,0.00497601181268692,0.5489306449890137,0.915281355381012,-15.5029296875,35.400390625,-18.1884765625
2.7157340049743652,-229580350,1,0.7585623860359192,0.4586460590362549,0.8606447577476501,-44.43359375,78.67431640625,35.58349609375
2.715857982635498,-229580331,1,0.6963065266609192,0.3312046527862549,0.7783693671226501,-1.953125,52.490234375,40.52734375
2.741119146347046,-229580338,0,-0.02676226943731308,0.5303759574890137,0.931394636631012,-13.73291015625,30.82275390625,-21.1181640625
2.7411317825317383,-229580319,0,-0.01406695693731308,0.5020556449890137,0.950681746006012,-11.65771484375,26.2451171875,-18.98193359375
2.7475202083587646,-229580312,1,0.6728690266609192,0.24380230903625488,0.8105959296226501,25.20751953125,77.880859375,1.64794921875
2.760491132736206,-229580300,0,0.00961468368768692,0.5176806449890137,0.938474714756012,-7.50732421875,24.2919921875,-8.544921875
2.779949903488159,-229580293,1,0.6931326985359192,0.2794468402862549,0.6997560858726501,42.8466796875,116.02783203125,-74.21875
2.797497034072876,-229580281,0,-0.00356891006231308,0.5638232231140137,0.949216902256012,-0.9765625,23.8037109375,-5.7373046875
2.8057539463043213,-229580257,1,0.6425955891609192,0.4176304340362549,0.8679689764976501,22.4609375,108.45947265625,-94.90966796875
2.820726156234741,-229580245,0,-0.00967242568731308,0.5831103324890137,0.934324324131012,-0.1220703125,25.87890625,-19.83642578125
2.8208489418029785,-229580226,0,-0.00478961318731308,0.5499072074890137,0.913572371006012,1.953125,23.37646484375,-24.0478515625
2.8425960540771484,-229580238,1,0.6897147297859192,0.3033726215362549,0.7588381171226501,-22.76611328125,65.00244140625,-42.8466796875
2.8426058292388916,-229580219,1,0.7475760579109192,0.2533237934112549,0.5627931952476501,-26.4892578125,81.23779296875,-26.611328125
2.8505160808563232,-229580207,0,-0.02090289443731308,0.5254931449890137,0.908201277256012,1.89208984375,23.86474609375,-21.54541015625
2.864790201187134,-229580200,1,0.6594412922859192,0.3150913715362549,0.6204103827476501,6.65283203125,158.99658203125,-26.30615234375
2.864896059036255,-229580181,1,0.5393241047859192,0.3746616840362549,0.7307619452476501,39.00146484375,178.955078125,-9.09423828125
2.896101951599121,-229580188,0,-0.02944781631231308,0.5062060356140137,0.910154402256012,4.7607421875,17.578125,-8.85009765625
2.8961150646209717,-229580169,0,-0.04116656631231308,0.5435595512390137,0.917478621006012,8.60595703125,16.54052734375,-4.82177734375
2.8998019695281982,-229580162,1,0.5251639485359192,0.3639194965362549,0.8025392889976501,38.02490234375,132.62939453125,17.15087890625
2.9135310649871826,-229580150,0,-0.03652789443731308,0.5716357231140137,0.904783308506012,15.13671875,18.310546875,-9.6435546875
2.9135451316833496,-229580131,0,-0.05019976943731308,0.5709033012390137,0.895261824131012,15.93017578125,25.0244140625,-19.47021484375
2.9272429943084717,-229580143,1,0.3574393391609192,0.2711460590362549,0.8501467108726501,10.986328125,81.60400390625,19.34814453125
2.939915180206299,-229580124,1,0.3581717610359192,0.3639194965362549,0.8499025702476501,41.56494140625,74.40185546875,35.21728515625
2.9470839500427246,-229580112,0,-0.05996539443731308,0.5755419731140137,0.881589949131012,11.962890625,22.64404296875,-24.5361328125
2.9543840885162354,-229580105,1,0.1643241047859192,0.3983433246612549,0.9973635077476501,115.78369140625,120.849609375,30.1513671875
2.968991994857788,-229580093,0,-0.11416461318731308,0.5669970512390137,0.885984480381012,12.3291015625,20.44677734375,-17.7001953125
2.969118118286133,-229580074,0,-0.04727008193731308,0.5066943168640137,0.907712996006012,20.01953125,16.2353515625,4.0283203125
2.993957042694092,-229580086,1,0.2946951985359192,0.11318707466125488,0.8914064764976501,134.46044921875,98.20556640625,11.23046875
2.993964910507202,-229580067,1,0.3906424641609192,0.20473980903625488,0.7769045233726501,141.17431640625,130.7373046875,-39.24560546875
3.000737190246582,-229580055,0,-0.03506305068731308,0.5716357231140137,0.880613386631012,27.40478515625,11.23046875,16.05224609375
3.0156309604644775,-229580048,1,0.2453787922859192,0.5741245746612549,1.015185832977295,138.3056640625,168.15185546875,-74.462890625
3.0157289505004883,-229580029,1,0.1467459797859192,0.5567905902862549,0.8953127264976501,183.4716796875,132.26318359375,-85.75439453125
3.039346933364868,-229580036,0,0.01059124618768692,0.6387743949890137,0.901365339756012,30.94482421875,22.3388671875,16.41845703125
3.039355993270874,-229580017,0,0.04135296493768692,0.5423388481140137,0.881101667881012,44.61669921875,27.4658203125,15.44189453125
3.0583808422088623,-229579981,0,-0.05190875381231308,0.6429247856140137,0.873289167881012,52.1240234375,24.4140625,9.27734375
3.0741260051727295,-229579993,1,-0.001203242689371109,0.4591343402862549,0.9573244452476501,213.31787109375,105.40771484375,-109.4970703125
3.0742921829223633,-229579974,1,-0.09202355146408081,0.5653355121612549,0.9832033514976501,214.599609375,60.05859375,-68.29833984375
3.095659017562866,-229579962,0,0.0015580430626869202,0.6524462699890137,0.846189558506012,56.2744140625,15.44189453125,12.87841796875
3.1055331230163574,-229579955,1,-0.001203242689371109,0.7816441059112549,0.6843752264976501,211.73095703125,71.35009765625,18.798828125
3.1207268238067627,-229579943,0,0.04843304306268692,0.6531786918640137,0.801755964756012,55.419921875,18.310546875,5.859375
3.1208479404449463,-229579924,0,-0.02334430068731308,0.6595263481140137,0.758787214756012,51.08642578125,11.77978515625,7.4462890625
3.144047975540161,-229579936,1,0.09132605791091919,0.7958042621612549,0.5747560858726501,176.08642578125,101.318359375,70.9228515625
3.144059896469116,-229579917,1,0.11647254228591919,0.8641636371612549,0.5029787421226501,141.29638671875,102.23388671875,62.744140625
3.1507809162139893,-229579905,0,0.06552288681268692,0.6797900199890137,0.721921980381012,43.51806640625,9.8876953125,5.18798828125
3.1654980182647705,-229579898,1,0.1306326985359192,1.0924351215362549,0.44707053899765015,88.623046875,80.322265625,67.19970703125
3.1656270027160645,-229579879,1,0.08497840166091919,1.0021030902862549,0.44267600774765015,17.9443359375,45.166015625,31.8603515625
3.1807730197906494,-229579886,0,0.05673382431268692,0.6949267387390137,0.702390730381012,37.04833984375,15.2587890625,-1.77001953125
3.1932618618011475,-229579867,0,0.03744671493768692,0.6624560356140137,0.702390730381012,29.47998046875,18.310546875,-4.2724609375
3.1982438564300537,-229579860,1,0.06080847606062889,0.8724644184112549,0.5000490546226501,-8.056640625,21.66748046875,14.70947265625
3.2118449211120605,-229579848,0,0.07943890243768692,0.6844286918640137,0.674558699131012,22.39990234375,21.6064453125,1.953125
3.2271151542663574,-229579841,1,0.10914832353591919,0.8285191059112549,0.5369142889976501,-24.169921875,18.12744140625,-5.43212890625
3.2381949424743652,-229579822,1,0.12062293291091919,0.8106968402862549,0.5247072577476501,-33.69140625,30.94482421875,-50.78125
3.2435600757598877,-229579829,0,0.06601116806268692,0.7073779106140137,0.650877058506012,17.51708984375,22.27783203125,0.67138671875
3.2435710430145264,-229579810,0,0.04477093368768692,0.7496142387390137,0.656492292881012,8.6669921875,21.66748046875,-8.23974609375
3.255911111831665,-229579803,1,0.07887488603591919,0.7560093402862549,0.5276369452476501,-23.25439453125,37.41455078125,-76.2939453125
3.2723190784454346,-229579791,0,0.05502483993768692,0.7310595512390137,0.653318464756012,2.44140625,9.09423828125,-15.68603515625
3.2723281383514404,-229579772,0,0.03817913681268692,0.7200732231140137,0.678464949131012,5.4931640625,-0.67138671875,-21.3623046875
3.2915642261505127,-229579784,1,0.02833777293562889,0.7774937152862549,0.5427736639976501,-5.37109375,31.8603515625,-81.298828125
3.291572093963623,-229579765,1,0.03126746043562889,0.8297398090362549,0.5681642889976501,-4.94384765625,6.16455078125,-46.08154296875
3.3008370399475098,-229579753,0,0.09286663681268692,0.7439990043640137,0.680173933506012,4.5166015625,-2.62451171875,-22.88818359375
3.3158459663391113,-229579729,1,0.011492069810628891,0.8175327777862549,0.5930666327476501,-25.7568359375,-14.7705078125,-16.4794921875
3.3390700817108154,-229579717,0,0.08896038681268692,0.7447314262390137,0.678464949131012,-9.6435546875,0.42724609375,-23.3154296875
3.3453919887542725,-229579710,1,-0.01975793018937111,0.7806675434112549,0.5188478827476501,-28.564453125,-15.07568359375,-11.1083984375
3.3603789806365967,-229579698,0,0.09555218368768692,0.7361865043640137,0.679929792881012,-13.48876953125,-0.1220703125,-24.10888671875
3.3773698806762695,-229579691,1,0.04103308543562889,0.7626011371612549,0.5330080389976501,-36.2548828125,-19.1650390625,-10.009765625
3.390599012374878,-229579672,1,0.02882605418562889,0.7384312152862549,0.5918459296226501,-48.64501953125,-27.52685546875,-29.9072265625
3.3953280448913574,-229579679,0,0.10482952743768692,0.7200732231140137,0.661863386631012,-18.85986328125,-3.173828125,-27.099609375
3.3953371047973633,-229579660,0,0.12704631686210632,0.7093310356140137,0.665281355381012,-25.0244140625,-6.53076171875,-30.21240234375
3.4055230617523193,-229579653,1,0.007097538560628891,0.7176792621612549,0.6411623358726501,-49.74365234375,-48.7060546875,-29.84619140625
3.420607089996338,-229579641,0,0.14096233248710632,0.7022509574890137,0.669920027256012,-29.60205078125,-9.27734375,-27.34375
3.4206860065460205,-229579622,0,0.15854045748710632,0.7127490043640137,0.676267683506012,-32.40966796875,-17.333984375,-22.5830078125
3.441873073577881,-229579634,1,0.02614050731062889,0.6920444965362549,0.6770510077476501,-43.701171875,-57.7392578125,-26.4892578125
3.441880941390991,-229579615,1,0.02223425731062889,0.6693394184112549,0.6128420233726501,-37.2314453125,-64.94140625,-20.263671875
3.450438976287842,-229579603,0,0.21859905123710632,0.7083544731140137,0.691404402256012,-32.3486328125,-23.49853515625,-23.681640625
3.4653899669647217,-229579596,1,0.02858191356062889,0.7367222309112549,0.5679201483726501,-41.3818359375,-70.61767578125,-16.05224609375
3.492302894592285,-229579584,0,0.2571732699871063,0.7371630668640137,0.706541121006012,-37.59765625,-25.32958984375,-30.82275390625
3.492311954498291,-229579565,0,0.2510697543621063,0.7122607231140137,0.769773542881012,-41.93115234375,-24.90234375,-38.87939453125
3.4979138374328613,-229579577,1,-0.02732628956437111,0.7596714496612549,0.5940431952476501,-63.78173828125,-104.1259765625,-4.57763671875
3.497921943664551,-229579558,1,0.08815222978591919,0.7191441059112549,0.5972170233726501,-69.7021484375,-155.33447265625,11.04736328125
3.5127902030944824,-229579546,0,0.23666545748710632,0.7076220512390137,0.802244246006012,-50.048828125,-20.263671875,-46.81396484375
3.5391130447387695,-229579539,1,0.2649100422859192,0.6273472309112549,0.5974611639976501,-54.50439453125,-174.62158203125,0.18310546875
3.53912091255188,-229579520,1,0.4765799641609192,0.6710484027862549,0.6604494452476501,-40.8935546875,-113.4033203125,-24.59716796875
3.5459580421447754,-229579527,0,0.2637650668621063,0.6959033012390137,0.793455183506012,-56.94580078125,-23.5595703125,-47.18017578125
3.5459659099578857,-229579508,0,0.3235795199871063,0.7232470512390137,0.754148542881012,-63.41552734375,-31.3720703125,-55.96923828125
3.555320978164673,-229579501,1,0.2671073079109192,0.6371128559112549,0.6235842108726501,-37.90283203125,-75.8056640625,-37.90283203125
3.570359945297241,-229579489,0,0.3316361606121063,0.7188525199890137,0.730711042881012,-72.57080078125,-39.61181640625,-68.90869140625
3.594792127609253,-229579465,1,0.2722342610359192,0.7572300434112549,0.6238283514976501,-30.57861328125,-37.17041015625,-19.53125
3.6007277965545654,-229579453,0,0.3689896762371063,0.6644091606140137,0.752683699131012,-73.66943359375,-59.4482421875,-94.6044921875
3.615736961364746,-229579446,1,0.4250662922859192,0.7626011371612549,0.7510256171226501,-67.19970703125,-14.16015625,-29.78515625
3.640181064605713,-229579434,0,0.4053666293621063,0.6509814262390137,0.824949324131012,-89.599609375,-53.16162109375,-119.873046875
3.6401920318603516,-229579415,0,0.4444291293621063,0.6016650199890137,0.808347761631012,-91.9189453125,-51.81884765625,-132.62939453125
3.6491379737854004,-229579427,1,0.3398612141609192,0.6490757465362549,0.8010744452476501,-96.6796875,-18.98193359375,-25.390625
3.6491479873657227,-229579408,1,0.1572440266609192,0.6412632465362549,0.8264650702476501,-113.1591796875,-55.0537109375,-29.47998046875
3.660609006881714,-229579396,0,0.4471146762371063,0.5728564262390137,0.786375105381012,-92.041015625,-52.734375,-136.5966796875
3.6774470806121826,-229579389,1,0.2036307454109192,0.8900425434112549,0.8242678046226501,-86.85302734375,-79.52880859375,-30.8837890625
3.6774559020996094,-229579370,1,0.2605155110359192,0.6712925434112549,0.8384279608726501,-87.70751953125,-60.1806640625,-65.673828125
3.695509195327759,-229579377,0,0.4790970981121063,0.5196337699890137,0.770505964756012,-88.37890625,-63.41552734375,-131.40869140625
3.6955180168151855,-229579358,0,0.4485795199871063,0.5015673637390137,0.781980574131012,-96.74072265625,-80.38330078125,-133.9111328125
3.705505847930908,-229579351,1,0.3322928547859192,0.5514194965362549,0.8413576483726501,-82.94677734375,-71.044921875,-62.8662109375
3.720468044281006,-229579339,0,0.4615189731121063,0.46860837936401367,0.892087996006012,-107.421875,-105.65185546875,-125.91552734375
3.743330955505371,-229579332,1,0.3010428547859192,0.5179722309112549,0.8674806952476501,-80.13916015625,-85.3271484375,-84.1064453125
3.7433969974517822,-229579313,1,0.3725760579109192,0.5003941059112549,0.8152346014976501,-71.533203125,-75.50048828125,-107.48291015625
3.7506508827209473,-229579320,0,0.5042436122894287,0.47812986373901367,0.938230574131012,-109.4970703125,-104.98046875,-114.44091796875
3.7507548332214355,-229579301,0,0.5655229091644287,0.46445798873901367,0.994138777256012,-104.248046875,-109.375,-115.90576171875
3.765547037124634,-229579294,1,0.2209647297859192,0.5946323871612549,0.9170412421226501,-46.2646484375,-64.02587890625,-107.48291015625
3.795262098312378,-229579282,0,0.5315873622894287,0.37119626998901367,1.0383281707763672,-99.365234375,-88.37890625,-127.0751953125
3.7952730655670166,-229579263,0,0.3484818637371063,0.35679197311401367,1.0280742645263672,-96.0693359375,-65.673828125,-141.54052734375
3.8001937866210938,-229579275,1,0.08839637041091919,0.6932651996612549,0.9670900702476501,-26.91650390625,-66.22314453125,-75.13427734375
3.800201177597046,-229579256,1,0.1882498860359192,0.6354038715362549,0.9622072577476501,-23.62060546875,-68.115234375,-52.734375
3.8130970001220703,-229579244,0,0.2754838168621063,0.31455564498901367,1.0759258270263672,-96.3134765625,-65.673828125,-143.4326171875
3.8270790576934814,-229579237,1,0.2441580891609192,0.6234409809112549,0.9587892889976501,-26.3671875,-69.88525390625,-34.60693359375
3.844871997833252,-229579225,0,0.2505814731121063,0.32944822311401367,1.1271953582763672,-96.74072265625,-72.6318359375,-125.06103515625
3.8557729721069336,-229579201,1,0.1797049641609192,0.5062534809112549,1.021777629852295,-18.73779296875,-69.82421875,-44.86083984375
3.8703720569610596,-229579189,0,0.2603470981121063,0.35044431686401367,1.2844219207763672,-107.177734375,-55.0537109375,-168.212890625
3.893699884414673,-229579182,1,0.1643241047859192,0.5248081684112549,1.011767864227295,-11.41357421875,-69.15283203125,-46.142578125
3.8937079906463623,-229579163,1,0.1823905110359192,0.5428745746612549,1.012500286102295,2.62451171875,-54.01611328125,-38.26904296875
3.8991639614105225,-229579170,0,0.19369670748710632,0.26816892623901367,1.2319316864013672,-109.9853515625,-42.78564453125,-199.64599609375
3.899183988571167,-229579151,0,0.12167523056268692,0.20176269114017487,1.1672344207763672,-83.31298828125,-39.61181640625,-194.580078125
3.915872097015381,-229579144,1,0.1899588704109192,0.4652378559112549,1.041553020477295,17.9443359375,-51.513671875,-38.0859375
3.9405131340026855,-229579132,0,0.06967327743768692,0.07065917551517487,1.1853008270263672,-61.767578125,-32.8369140625,-183.9599609375
3.9405221939086914,-229579113,0,0.07040569931268692,0.03696776553988457,1.2382793426513672,-34.5458984375,-31.18896484375,-173.828125
3.946794033050537,-229579125,1,0.1782401204109192,0.3673374652862549,1.017383098602295,31.982421875,-80.50537109375,-50.9033203125
3.946800947189331,-229579106,1,0.2041190266609192,0.5350620746612549,0.9885744452476501,40.46630859375,-86.85302734375,-56.45751953125
3.9604811668395996,-229579094,0,0.03158733993768692,0.34043455123901367,1.3488750457763672,-17.39501953125,-27.40478515625,-166.32080078125
3.9772539138793945,-229579087,1,0.2202323079109192,0.6346714496612549,0.9485353827476501,35.82763671875,-82.58056640625,-50.59814453125
3.9902329444885254,-229579068,1,0.2097342610359192,0.6105015277862549,0.9053224921226501,29.35791015625,-74.15771484375,-33.0810546875
3.9970388412475586,-229579075,0,-0.14272907376289368,0.5369677543640137,1.3264141082763672,-9.033203125,-36.62109375,-152.16064453125
3.9970479011535645,-229579056,0,-0.15102985501289368,0.28086423873901367,1.2167949676513672,1.5869140625,-57.06787109375,-123.71826171875
4.005531072616577,-229579049,1,0.2270682454109192,0.5379917621612549,0.8437990546226501,19.59228515625,-76.59912109375,-12.63427734375
4.020408868789673,-229579037,0,-0.13271930813789368,0.19541503489017487,1.1381816864013672,9.3994140625,-50.048828125,-121.58203125
4.041629076004028,-229579030,1,0.2639334797859192,0.4991734027862549,0.7825197577476501,11.41357421875,-71.044921875,-8.23974609375
4.041639089584351,-229579011,1,0.2592948079109192,0.4864780902862549,0.7319826483726501,8.97216796875,-54.13818359375,-11.53564453125
4.050697088241577,-229579018,0,-0.16274860501289368,0.22104980051517487,1.0769023895263672,9.70458984375,-41.8701171875,-111.572265625
4.050812005996704,-229578999,0,-0.23745563626289368,0.15732909739017487,1.0236797332763672,4.57763671875,-36.31591796875,-95.27587890625
4.0655200481414795,-229578992,1,0.2600272297859192,0.4798862934112549,0.7292971014976501,12.51220703125,-39.24560546875,-12.75634765625
4.093110084533691,-229578980,0,-0.3365767300128937,0.14585448801517487,0.924802839756012,-1.03759765625,-29.296875,-63.232421875
4.097215175628662,-229578973,1,0.2502616047859192,0.4688999652862549,0.7236818671226501,18.61572265625,-30.1513671875,-15.31982421875
4.113178014755249,-229578961,0,-0.3209517300128937,0.14976073801517487,0.845212996006012,-5.06591796875,-30.2734375,-29.11376953125
4.139243125915527,-229578937,1,0.1743338704109192,0.5150425434112549,0.6973146796226501,17.27294921875,-32.28759765625,0.30517578125
4.139250993728638,-229578918,1,0.1819022297859192,0.5025913715362549,0.6663088202476501,7.87353515625,-30.1513671875,18.73779296875
4.146415948867798,-229578925,0,-0.2745650112628937,0.29185056686401367,0.765867292881012,-19.775390625,-33.5693359375,13.36669921875
4.14642596244812,-229578906,0,-0.23672321438789368,0.26816892623901367,0.706296980381012,-16.66259765625,-35.33935546875,20.99609375
4.155388116836548,-229578899,1,0.1665213704109192,0.4405796527862549,0.6125978827476501,-0.1220703125,-26.3671875,34.36279296875
4.170349836349487,-229578887,0,-0.23989704251289368,0.28281736373901367,0.682615339756012,-8.72802734375,-36.865234375,15.5029296875
4.195317029953003,-229578880,1,0.1970389485359192,0.4645054340362549,0.6204103827476501,-6.9580078125,-22.27783203125,44.98291015625
4.195325136184692,-229578861,1,0.2319510579109192,0.4103062152862549,0.6238283514976501,-13.24462890625,-16.05224609375,45.7763671875
4.19902491569519,-229578868,0,-0.2552779018878937,0.21665526926517487,0.640379011631012,0.0,-35.15625,9.09423828125
4.19911003112793,-229578849,0,-0.21182087063789368,0.17979003489017487,0.673093855381012,-4.0283203125,-44.73876953125,24.71923828125
4.214111089706421,-229578842,1,0.2312186360359192,0.3883335590362549,0.6328615546226501,-15.9912109375,-8.6669921875,41.1376953125
4.241667032241821,-229578830,0,-0.17617633938789368,0.17441894114017487,0.739255964756012,-9.46044921875,-50.59814453125,52.91748046875
4.247873067855835,-229578823,1,0.2697928547859192,0.4117710590362549,0.6602053046226501,-18.61572265625,-2.5634765625,38.4521484375
4.247976064682007,-229578804,1,0.3090994954109192,0.4115269184112549,0.6575197577476501,-23.0712890625,1.03759765625,39.306640625
4.2593910694122314,-229578811,0,-0.09951617568731308,0.24131347239017487,0.787595808506012,-17.02880859375,-39.48974609375,76.2939453125
4.259536981582642,-229578792,0,-0.03213336318731308,0.32651853561401367,0.807859480381012,-25.2685546875,-11.65771484375,67.32177734375
4.273942232131958,-229578785,1,0.3515799641609192,0.3810093402862549,0.6553224921226501,-25.45166015625,6.40869140625,35.2783203125
4.295551061630249,-229578773,0,0.02841351181268692,0.25034666061401367,0.777586042881012,-37.841796875,5.126953125,49.98779296875
4.296277046203613,-229578754,0,0.00229046493768692,0.20688964426517487,0.767332136631012,-41.259765625,7.568359375,39.306640625
4.304119825363159,-229578766,1,0.3259451985359192,0.4217808246612549,0.6675295233726501,-27.7099609375,8.48388671875,26.3671875
4.304244041442871,-229578747,1,0.3086112141609192,0.4359409809112549,0.6838869452476501,-29.35791015625,8.72802734375,25.7568359375
4.3189311027526855,-229578735,0,-0.00869586318731308,0.08604003489017487,0.773923933506012,-37.65869140625,3.7841796875,43.701171875
4.342042922973633,-229578728,1,0.3132498860359192,0.4688999652862549,0.7312502264976501,-32.04345703125,17.51708984375,29.72412109375
4.342051029205322,-229578709,1,0.3313162922859192,0.4857456684112549,0.7468752264976501,-37.41455078125,30.21240234375,41.748046875
4.349097967147827,-229578716,0,-0.01235797256231308,0.10117675364017487,0.871336042881012,-37.78076171875,9.33837890625,58.28857421875
4.349204063415527,-229578697,0,0.11337444931268692,0.17954589426517487,0.968015730381012,-38.87939453125,22.5830078125,75.62255859375
4.39459490776062,-229578673,1,0.3723319172859192,0.4586460590362549,0.8601564764976501,-42.29736328125,48.64501953125,58.9599609375
4.394614934921265,-229578654,1,0.3486502766609192,0.4518101215362549,0.9153322577476501,-41.68701171875,44.0673828125,59.63134765625
4.4108498096466064,-229578661,0,0.20370647311210632,0.15146972239017487,0.986082136631012,-39.00146484375,48.40087890625,56.640625
4.410860061645508,-229578642,0,0.15463420748710632,0.11240722239017487,0.994382917881012,-39.36767578125,53.1005859375,46.56982421875
4.424023866653442,-229578635,1,0.3525565266609192,0.4132359027862549,0.9619631171226501,-36.43798828125,30.45654296875,59.75341796875
4.444443941116333,-229578623,0,0.16684123873710632,0.06504394114017487,1.0654277801513672,-35.94970703125,52.8564453125,47.91259765625
4.444453954696655,-229578604,0,0.2571732699871063,0.10264159739017487,1.1347637176513672,-31.31103515625,47.607421875,71.22802734375
4.454129934310913,-229578616,1,0.3803885579109192,0.3995640277862549,0.9873537421226501,-31.6162109375,22.3388671875,56.640625
4.45424485206604,-229578597,1,0.4087088704109192,0.4032261371612549,0.9551271796226501,-27.28271484375,28.3203125,53.22265625
4.468973875045776,-229578585,0,0.3262650668621063,0.18467284739017487,1.1701641082763672,-21.42333984375,52.1240234375,80.87158203125
4.494765996932983,-229578578,1,0.3806326985359192,0.4579136371612549,0.9846681952476501,-19.10400390625,56.884765625,55.48095703125
4.49477481842041,-229578559,1,0.3623221516609192,0.3893101215362549,1.047900676727295,-17.4560546875,73.18115234375,50.4150390625
4.500983953475952,-229578566,0,0.3702103793621063,0.22153808176517487,1.1835918426513672,-11.53564453125,60.97412109375,73.486328125
4.501112937927246,-229578547,0,0.3138138949871063,0.07505370676517487,1.1914043426513672,0.18310546875,82.45849609375,46.630859375
4.516350984573364,-229578540,1,0.3115409016609192,0.3585484027862549,1.054736614227295,-11.65771484375,56.94580078125,50.35400390625
4.539744138717651,-229578528,0,0.23886272311210632,0.020610343664884567,1.2141094207763672,2.62451171875,84.41162109375,38.75732421875
4.54849100112915,-229578521,1,0.3222830891609192,0.3685581684112549,1.001025676727295,-6.7138671875,43.51806640625,52.3681640625
4.548500061035156,-229578502,1,0.3667166829109192,0.4076206684112549,1.022998332977295,-6.28662109375,43.51806640625,55.0537109375
4.560571908950806,-229578509,0,0.2881791293621063,0.07261230051517487,1.2451152801513672,0.30517578125,78.30810546875,57.4951171875
4.560619115829468,-229578490,0,0.3509232699871063,0.15708495676517487,1.2338848114013672,6.103515625,76.416015625,90.02685546875
4.575422048568726,-229578483,1,0.3571951985359192,0.4400913715362549,1.057178020477295,-6.28662109375,48.7060546875,61.21826171875
4.596869945526123,-229578471,0,0.4468705356121063,0.20127440989017487,1.2302227020263672,13.73291015625,91.4306640625,89.7216796875
4.596879959106445,-229578452,0,0.4195267856121063,0.13657714426517487,1.2753887176513672,9.46044921875,102.72216796875,51.45263671875
4.603878021240234,-229578464,1,0.3401053547859192,0.4037144184112549,1.106250286102295,3.84521484375,49.072265625,70.80078125
4.603999137878418,-229578445,1,0.3469412922859192,0.3829624652862549,1.103076457977295,15.19775390625,45.10498046875,73.3642578125
4.618957996368408,-229578433,0,0.3760697543621063,0.11411620676517487,1.3127422332763672,3.47900390625,94.17724609375,38.6962890625
4.641757965087891,-229578409,1,0.3986991047859192,0.3863804340362549,1.073779582977295,27.587890625,41.1376953125,56.45751953125
4.649150133132935,-229578397,0,0.4397904574871063,0.15171386301517487,1.3283672332763672,0.67138671875,107.5439453125,83.49609375
4.664034843444824,-229578390,1,0.4226248860359192,0.4129917621612549,1.096972942352295,29.9072265625,41.07666015625,59.63134765625
4.692992210388184,-229578378,0,0.4883744418621063,0.26694822311401367,1.3217754364013672,7.50732421875,108.0322265625,70.12939453125
4.6979899406433105,-229578371,1,0.4194510579109192,0.3954136371612549,1.116992473602295,32.77587890625,42.724609375,61.1572265625
4.697997808456421,-229578352,1,0.4438651204109192,0.3983433246612549,1.096484661102295,42.54150390625,54.19921875,60.72998046875
4.709089040756226,-229578359,0,0.4598099887371063,0.23545409739017487,1.3293437957763672,16.357421875,100.4638671875,42.236328125
4.709220886230469,-229578340,0,0.4380814731121063,0.17734862864017487,1.3134746551513672,27.40478515625,99.12109375,27.52685546875
4.723851919174194,-229578333,1,0.4470389485359192,0.3836948871612549,1.140185832977295,51.7578125,70.98388671875,53.1005859375
4.744961977005005,-229578321,0,0.4244095981121063,0.16025878489017487,1.3046855926513672,35.09521484375,99.30419921875,25.5126953125
4.744971990585327,-229578302,0,0.4466263949871063,0.18223144114017487,1.2866191864013672,40.22216796875,96.74072265625,16.845703125
4.754134178161621,-229578314,1,0.4402030110359192,0.3717319965362549,1.126513957977295,57.9833984375,81.0546875,41.1376953125
4.754198789596558,-229578295,1,0.4607108235359192,0.4442417621612549,1.154590129852295,70.98388671875,104.3701171875,29.541015625
4.7689409255981445,-229578283,0,0.4261185824871063,0.18711425364017487,1.2573223114013672,39.73388671875,97.47314453125,-3.60107421875
4.793776035308838,-229578276,1,0.4414237141609192,0.4488804340362549,1.161914348602295,83.67919921875,113.83056640625,28.3203125
4.799064874649048,-229578264,0,0.3853470981121063,0.17930175364017487,1.2365703582763672,40.52734375,100.40283203125,-17.2119140625
4.799147129058838,-229578245,0,0.3543412387371063,0.15903808176517487,1.2224102020263672,41.93115234375,101.01318359375,-23.49853515625
4.814090013504028,-229578257,1,0.4204276204109192,0.4518101215362549,1.170703411102295,86.48681640625,111.4501953125,28.38134765625
4.814248085021973,-229578238,1,0.4148123860359192,0.4615757465362549,1.172412395477295,87.0361328125,107.5439453125,30.2734375
4.839482069015503,-229578226,0,0.3125931918621063,0.13364745676517487,1.2033672332763672,41.748046875,100.4638671875,-25.87890625
4.844188928604126,-229578219,1,0.4084647297859192,0.4059116840362549,1.171435832977295,83.8623046875,102.9052734375,30.1513671875
4.844197034835815,-229578200,1,0.4270194172859192,0.3856480121612549,1.109668254852295,86.0595703125,104.6142578125,21.30126953125
4.8593199253082275,-229578207,0,0.2991654574871063,0.12632323801517487,1.1686992645263672,42.66357421875,105.28564453125,-22.8271484375
4.8594970703125,-229578188,0,0.2764603793621063,0.14780761301517487,1.1318340301513672,43.39599609375,110.53466796875,-23.193359375
4.873907089233398,-229578181,1,0.4184744954109192,0.3731968402862549,1.079150676727295,91.61376953125,110.90087890625,12.451171875
4.899389028549194,-229578169,0,0.23129436373710632,0.12217284739017487,1.0615215301513672,46.630859375,113.8916015625,-29.9072265625
4.905422925949097,-229578145,1,0.3444998860359192,0.3685581684112549,0.9517092108726501,106.8115234375,117.49267578125,-10.009765625
4.919708013534546,-229578133,0,0.15780803561210632,0.10215331614017487,0.918699324131012,44.73876953125,108.33740234375,-39.6728515625
4.945100784301758,-229578126,1,0.2966483235359192,0.3863804340362549,0.8997072577476501,111.4501953125,110.90087890625,-13.671875
4.950567960739136,-229578114,0,0.11386273056268692,0.13071776926517487,0.866941511631012,33.3251953125,104.30908203125,-36.4990234375
4.950664043426514,-229578095,0,0.08017132431268692,0.13779784739017487,0.834470808506012,21.54541015625,97.5341796875,-33.8134765625
4.965474843978882,-229578107,1,0.2744315266609192,0.4254429340362549,0.8467287421226501,105.77392578125,98.2666015625,-12.14599609375
4.965595006942749,-229578088,1,0.2566092610359192,0.4273960590362549,0.7642092108726501,98.876953125,90.9423828125,-8.6669921875
4.989844083786011,-229578076,0,0.05600140243768692,0.15024901926517487,0.812986433506012,14.34326171875,91.6748046875,-32.8369140625
4.995920896530151,-229578069,1,0.2649100422859192,0.4147007465362549,0.7075685858726501,88.31787109375,84.28955078125,-11.71875
4.995929002761841,-229578050,1,0.2451346516609192,0.4178745746612549,0.6599611639976501,82.3974609375,80.74951171875,-18.00537109375
5.010390043258667,-229578057,0,0.00595257431268692,0.14609862864017487,0.764890730381012,8.23974609375,95.3369140625,-34.60693359375
5.010499954223633,-229578038,0,-0.04678180068731308,0.15781737864017487,0.707029402256012,1.89208984375,91.97998046875,-42.3583984375
5.027225971221924,-229578031,1,0.2041190266609192,0.4220249652862549,0.6199221014976501,73.3642578125,80.4443359375,-25.45166015625
5.0433669090271,-229578019,0,-0.10244586318731308,0.17173339426517487,0.671384871006012,-7.2021484375,85.51025390625,-48.27880859375
5.055673837661743,-229578012,1,0.1623709797859192,0.4767124652862549,0.5955080389976501,64.453125,80.078125,-31.43310546875
5.055804014205933,-229577993,1,0.1403983235359192,0.5096714496612549,0.5562013983726501,55.84716796875,76.2939453125,-30.09033203125
5.070699214935303,-229578000,0,-0.12417437881231308,0.16880370676517487,0.655515730381012,-15.9912109375,80.6884765625,-52.1240234375
5.070766925811768,-229577981,0,-0.17715290188789368,0.11680175364017487,0.646726667881012,-23.0712890625,71.10595703125,-49.49951171875
5.093855142593384,-229577974,1,0.10109168291091919,0.5082066059112549,0.5498537421226501,48.4619140625,75.01220703125,-29.11376953125
5.100765943527222,-229577962,0,-0.17422321438789368,0.14292480051517487,0.636228621006012,-23.5595703125,61.4013671875,-41.80908203125
5.1008830070495605,-229577943,0,-0.22671344876289368,0.15195800364017487,0.635984480381012,-18.5546875,53.466796875,-42.90771484375
5.115796089172363,-229577955,1,0.07936316728591919,0.4793980121612549,0.5344728827476501,40.1611328125,72.1435546875,-34.97314453125
5.115915775299072,-229577936,1,0.02760535106062889,0.5145542621612549,0.5085939764976501,35.21728515625,74.52392578125,-49.560546875
5.140826940536499,-229577924,0,-0.2535689175128937,0.13877440989017487,0.691404402256012,-20.08056640625,43.02978515625,-47.05810546875
5.145823001861572,-229577917,1,-0.04832238331437111,0.5606968402862549,0.48027366399765015,32.53173828125,73.2421875,-53.8330078125
5.160542964935303,-229577905,0,-0.2904341518878937,0.11533690989017487,0.764158308506012,-27.28271484375,36.9873046875,-41.259765625
5.189119100570679,-229577881,1,-0.10008019208908081,0.6051304340362549,0.48564475774765015,24.169921875,70.9228515625,-55.2978515625
5.195978164672852,-229577869,0,-0.2955611050128937,0.17246581614017487,0.808347761631012,-35.82763671875,36.68212890625,-16.6015625
5.205538988113403,-229577862,1,-0.1606270670890808,0.6371128559112549,0.49223655462265015,19.6533203125,69.64111328125,-52.79541015625
5.205665111541748,-229577843,1,-0.1655098795890808,0.6271030902862549,0.5032228827476501,13.427734375,62.56103515625,-48.828125
5.219894886016846,-229577850,0,-0.2711470425128937,0.21763183176517487,0.798826277256012,-33.87451171875,43.15185546875,-19.6533203125
5.220033168792725,-229577831,0,-0.2638228237628937,0.23081542551517487,0.818357527256012,-35.33935546875,47.42431640625,-36.56005859375
5.2434608936309814,-229577824,1,-0.1684395670890808,0.6329624652862549,0.48759788274765015,4.7607421875,51.6357421875,-48.64501953125
5.252662897109985,-229577812,0,-0.2938521206378937,0.18369628489017487,0.852048933506012,-40.1611328125,41.6259765625,-53.1005859375
5.252673864364624,-229577793,0,-0.3165571987628937,0.13706542551517487,0.884275496006012,-43.212890625,25.7568359375,-48.2177734375
5.265805006027222,-229577805,1,-0.1703926920890808,0.6288120746612549,0.48833030462265015,-3.23486328125,40.8935546875,-49.25537109375
5.265889883041382,-229577786,1,-0.1786934733390808,0.6288120746612549,0.48906272649765015,-12.39013671875,33.75244140625,-51.26953125
5.29439902305603,-229577774,0,-0.2794478237628937,0.14634276926517487,0.890867292881012,-34.97314453125,9.1552734375,-25.0244140625
5.298935890197754,-229577767,1,-0.1667305827140808,0.6324741840362549,0.5017580389976501,-18.00537109375,26.3671875,-52.8564453125
5.310559034347534,-229577755,0,-0.23110798001289368,0.18784667551517487,0.907224714756012,-27.89306640625,5.06591796875,-19.71435546875
5.310719013214111,-229577736,0,-0.23745563626289368,0.22129394114017487,0.939695417881012,-31.1279296875,11.16943359375,-44.5556640625
5.324160099029541,-229577748,1,-0.1916329264640808,0.6173374652862549,0.5330080389976501,-22.8271484375,23.86474609375,-55.6640625
5.324274063110352,-229577729,1,-0.2048165202140808,0.5951206684112549,0.5400881171226501,-27.83203125,22.216796875,-59.814453125
5.346710920333862,-229577717,0,-0.24282673001289368,0.15659667551517487,0.984861433506012,-44.12841796875,11.23046875,-84.28955078125
5.355736970901489,-229577710,1,-0.2062813639640808,0.5860874652862549,0.5435060858726501,-30.45654296875,21.42333984375,-65.4296875
5.355811834335327,-229577691,1,-0.2245919108390808,0.5882847309112549,0.5920900702476501,-32.470703125,19.4091796875,-73.05908203125
5.370880126953125,-229577698,0,-0.22085407376289368,0.11387206614017487,1.0119609832763672,-56.640625,6.2255859375,-89.41650390625
5.371052026748657,-229577679,0,-0.20547321438789368,0.08628417551517487,0.996580183506012,-56.15234375,-0.67138671875,-76.7822265625
5.394917964935303,-229577672,1,-0.2497383952140808,0.5711948871612549,0.6392092108726501,-33.447265625,18.00537109375,-79.2236328125
5.4008448123931885,-229577660,0,-0.18667438626289368,0.07554198801517487,0.989255964756012,-47.36328125,-7.32421875,-74.27978515625
5.416290998458862,-229577653,1,-0.2743965983390808,0.5511753559112549,0.6702150702476501,-32.89794921875,7.32421875,-83.31298828125
5.43815803527832,-229577641,0,-0.19448688626289368,0.06748534739017487,1.0139141082763672,-46.7529296875,-5.92041015625,-88.56201171875
5.44765305519104,-229577617,1,-0.2624337077140808,0.5616734027862549,0.6687502264976501,-34.24072265625,-20.08056640625,-85.693359375
5.460599899291992,-229577605,0,-0.22500446438789368,-0.004780281335115433,1.0856914520263672,-69.15283203125,-12.39013671875,-120.60546875
5.460774898529053,-229577586,0,-0.22158649563789368,-0.03627442196011543,1.1215801239013672,-73.3642578125,-17.63916015625,-112.97607421875
5.477245092391968,-229577598,1,-0.2741524577140808,0.5406773090362549,0.7183107733726501,-35.94970703125,-30.76171875,-82.70263671875
5.489125967025757,-229577579,1,-0.3193184733390808,0.5121128559112549,0.7559084296226501,-35.70556640625,-39.0625,-88.92822265625
5.4940619468688965,-229577567,0,-0.23794391751289368,-0.04530762508511543,1.1643047332763672,-69.39697265625,-25.45166015625,-98.81591796875
5.50481915473938,-229577560,1,-0.3483712077140808,0.4986851215362549,0.7791017889976501,-32.8369140625,-47.4853515625,-92.529296875
5.504927158355713,-229577541,1,-0.3554512858390808,0.5152866840362549,0.8118166327476501,-29.60205078125,-58.349609375,-93.505859375
5.520734071731567,-229577548,0,-0.23721149563789368,-0.03627442196011543,1.2297344207763672,-64.0869140625,-34.0576171875,-97.900390625
5.520817041397095,-229577529,0,-0.24331501126289368,-0.027485359460115433,1.2841777801513672,-64.697265625,-37.841796875,-108.3984375
5.54280686378479,-229577522,1,-0.3720528483390808,0.4959995746612549,0.8250002264976501,-25.93994140625,-64.8193359375,-93.26171875
5.550634145736694,-229577510,0,-0.24185016751289368,-0.03261231258511543,1.2912578582763672,-67.7490234375,-38.2080078125,-114.19677734375
5.564619064331055,-229577503,1,-0.4008614420890808,0.4679234027862549,0.8379396796226501,-17.578125,-74.462890625,-93.6279296875
5.564728021621704,-229577484,1,-0.4618965983390808,0.4532749652862549,0.8777346014976501,-9.70458984375,-83.0078125,-96.74072265625
5.591435194015503,-229577491,0,-0.21597126126289368,-0.05507325008511543,1.2653789520263672,-68.29833984375,-42.1142578125,-116.455078125
5.59144401550293,-229577472,0,-0.21279743313789368,-0.06654785573482513,1.2861309051513672,-65.0634765625,-50.29296875,-114.92919921875
5.59539008140564,-229577465,1,-0.5014473795890808,0.4496128559112549,0.9055666327476501,-7.26318359375,-93.32275390625,-98.388671875
5.614771127700806,-229577453,0,-0.24673298001289368,-0.05604981258511543,1.3342266082763672,-62.01171875,-57.55615234375,-119.2626953125
5.614783048629761,-229577434,0,-0.24746540188789368,-0.04579590633511543,1.3610820770263672,-60.302734375,-65.0634765625,-124.51171875
5.639136075973511,-229577446,1,-0.5305001139640808,0.4601109027862549,0.9448732733726501,-4.94384765625,-105.1025390625,-89.599609375
5.639143943786621,-229577427,1,-0.5956856608390808,0.4388706684112549,0.9661135077476501,-2.38037109375,-109.31396484375,-80.810546875
5.644354820251465,-229577415,0,-0.2518599331378937,-0.03920410946011543,1.3889141082763672,-59.326171875,-68.9697265625,-128.0517578125
5.655848026275635,-229577408,1,-0.6345040202140808,0.4374058246612549,0.9648928046226501,-1.03759765625,-115.966796875,-72.3876953125
5.655976057052612,-229577389,1,-0.6381661295890808,0.4269077777862549,0.9866213202476501,0.67138671875,-122.9248046875,-55.84716796875
5.6705827713012695,-229577396,0,-0.2801802456378937,-0.03334473446011543,1.4157695770263672,-63.720703125,-70.556640625,-135.498046875
5.6706531047821045,-229577377,0,-0.3490279018878937,-0.030903328210115433,1.4560527801513672,-63.04931640625,-72.8759765625,-144.71435546875
5.715510129928589,-229577353,1,-0.5983712077140808,0.3375523090362549,1.103320598602295,-6.53076171875,-127.01416015625,-25.2685546875
5.7161619663238525,-229577334,1,-0.6115548014640808,0.2813999652862549,1.189502239227295,-7.62939453125,-124.81689453125,-26.123046875
5.739866018295288,-229577341,0,-0.4325239956378937,0.05283690616488457,1.5595684051513672,-56.5185546875,-83.06884765625,-147.0947265625
5.739877939224243,-229577322,0,-0.4742720425128937,0.10386230051517487,1.6745586395263672,-48.7060546875,-91.30859375,-140.93017578125
5.744504928588867,-229577315,1,-0.6418282389640808,0.2953159809112549,1.176074504852295,-4.69970703125,-122.802734375,-36.56005859375
5.7593019008636475,-229577303,0,-0.5504438877105713,0.19687987864017487,1.7878398895263672,-39.24560546875,-93.68896484375,-135.31494140625
5.759456157684326,-229577284,0,-0.6639692783355713,0.28965330123901367,1.8701152801513672,-14.09912109375,-85.693359375,-126.77001953125
5.77443790435791,-229577296,1,-0.6100899577140808,0.3578159809112549,1.191211223602295,10.6201171875,-122.98583984375,-32.1044921875
5.774561882019043,-229577277,1,-0.5427071452140808,0.3331577777862549,1.171924114227295,24.169921875,-132.4462890625,-2.62451171875
5.796744108200073,-229577265,0,-0.7948286533355713,0.33286619186401367,1.9506816864013672,14.2822265625,-72.75390625,-130.55419921875
5.804022789001465,-229577258,1,-0.4789864420890808,0.21572613716125488,1.187549114227295,29.78515625,-143.24951171875,10.3759765625
5.80413818359375,-229577239,1,-0.4826485514640808,0.18301129341125488,1.165576457977295,29.11376953125,-146.3623046875,-2.5634765625
5.819171905517578,-229577246,0,-0.9178755283355713,0.26377439498901367,2.054685592651367,51.6357421875,-59.08203125,-147.4609375
5.819257020950317,-229577227,0,-1.0663130283355713,0.029399406164884567,2.102048873901367,92.041015625,-52.8564453125,-155.8837890625
5.841879844665527,-229577220,1,-0.4885079264640808,0.2765171527862549,1.150195598602295,34.72900390625,-146.3623046875,-14.34326171875
5.851078033447266,-229577208,0,-1.2303755283355713,-0.23061035573482513,2.113035202026367,151.18408203125,-80.50537109375,-136.3525390625
5.86414909362793,-229577201,1,-0.4579903483390808,0.3334019184112549,1.080615520477295,44.37255859375,-143.12744140625,1.64794921875
5.864300012588501,-229577182,1,-0.4035469889640808,0.3192417621612549,1.026172161102295,48.828125,-145.263671875,29.72412109375
5.8900110721588135,-229577189,0,-1.3177778720855713,-0.37514162063598633,2.152341842651367,209.9609375,-114.07470703125,-115.29541015625
5.890018939971924,-229577170,0,-1.2635786533355713,-0.5284619331359863,2.194334030151367,270.5078125,-113.037109375,-101.86767578125
5.895570993423462,-229577163,1,-0.3657051920890808,0.2882359027862549,1.030322551727295,48.64501953125,-143.5546875,33.14208984375
5.90916109085083,-229577151,0,-1.0775434970855713,-0.7977490425109863,2.126462936401367,299.74365234375,-42.29736328125,-101.318359375
5.909247159957886,-229577132,0,-1.0135786533355713,-0.9596142768859863,1.9277324676513672,326.35498046875,7.080078125,-79.9560546875
5.923979043960571,-229577144,1,-0.2968575358390808,0.3412144184112549,0.9687990546226501,45.83740234375,-140.5029296875,21.66748046875
5.92409086227417,-229577125,1,-0.2516915202140808,0.4415562152862549,0.9224123358726501,44.5556640625,-129.39453125,20.81298828125
5.942880153656006,-229577113,0,-0.9537642002105713,-1.0060009956359863,1.7773418426513672,358.45947265625,2.86865234375,-64.208984375
5.953923940658569,-229577089,1,-0.1662423014640808,0.5184605121612549,0.8132814764976501,44.00634765625,-97.65625,61.82861328125
5.968847036361694,-229577077,0,-0.4571821987628937,-0.9310498237609863,1.6584453582763672,385.43701171875,24.0478515625,-66.650390625
5.993865013122559,-229577070,1,-0.08860558271408081,0.4889194965362549,0.8008303046226501,39.00146484375,-76.47705078125,66.10107421875
5.999157190322876,-229577058,0,-0.19692829251289368,-0.8607373237609863,1.5278301239013672,366.3330078125,62.80517578125,-83.251953125
6.014132976531982,-229577051,1,-0.04050988331437111,0.5157749652862549,0.7820314764976501,38.87939453125,-64.3310546875,64.697265625
6.014259099960327,-229577032,1,0.03273230418562889,0.5660679340362549,0.7856935858726501,40.771484375,-60.05859375,73.66943359375
6.039969205856323,-229577039,0,-0.00625445693731308,-0.7726025581359863,1.3815898895263672,341.064453125,92.10205078125,-89.84375
6.03997802734375,-229577020,0,0.05697796493768692,-0.7496533393859863,1.1979961395263672,321.47216796875,103.1494140625,-99.30419921875
6.044708013534546,-229577013,1,0.07325965166091919,0.5523960590362549,0.7737306952476501,41.9921875,-61.82861328125,101.1962890625
6.059226036071777,-229577001,0,0.05819866806268692,-0.8009228706359863,1.1142559051513672,312.255859375,95.5810546875,-110.83984375
6.059347152709961,-229576982,0,0.15585491061210632,-0.9539990425109863,1.0065898895263672,318.7255859375,63.53759765625,-109.19189453125
6.074086904525757,-229576994,1,0.1469901204109192,0.4532749652862549,0.7786135077476501,38.02490234375,-60.6689453125,124.45068359375
6.0741870403289795,-229576975,1,0.2204764485359192,0.3917515277862549,0.8049806952476501,33.50830078125,-63.04931640625,131.9580078125
6.094985008239746,-229576963,0,0.3528763949871063,-1.0799756050109863,1.0527324676513672,334.04541015625,44.5556640625,-74.8291015625
6.105427026748657,-229576956,1,0.2649100422859192,0.2933628559112549,0.8079103827476501,30.45654296875,-60.85205078125,129.39453125
6.1207969188690186,-229576944,0,0.5472123622894287,-1.0143017768859863,1.0449199676513672,335.3271484375,65.85693359375,-13.916015625
6.120903015136719,-229576925,0,0.8714311122894287,-0.9256787300109863,0.942380964756012,308.53271484375,129.21142578125,71.2890625
6.143126010894775,-229576937,1,0.3222830891609192,0.24233746528625488,0.8364748358726501,42.17529296875,-53.64990234375,117.73681640625
6.143134117126465,-229576918,1,0.3528006672859192,0.23672223091125488,0.8252443671226501,58.9599609375,-44.189453125,106.99462890625
6.150400161743164,-229576906,0,1.1473100185394287,-0.9200634956359863,0.804685652256012,281.92138671875,201.416015625,139.83154296875
6.165607929229736,-229576899,1,0.3354666829109192,0.2560093402862549,0.8267092108726501,59.50927734375,-37.17041015625,102.47802734375
6.165680885314941,-229576880,1,0.3344901204109192,0.2665073871612549,0.8765138983726501,49.01123046875,-32.958984375,99.9755859375
6.193656921386719,-229576887,0,1.3394486904144287,-0.9425244331359863,0.670164167881012,285.70556640625,253.96728515625,199.8291015625
6.193666934967041,-229576868,0,1.4812943935394287,-0.9972119331359863,0.617429792881012,304.99267578125,275.08544921875,232.2998046875
6.19780421257019,-229576861,1,0.3620780110359192,0.3036167621612549,0.9077638983726501,50.9033203125,-25.146484375,101.1962890625
6.21051287651062,-229576849,0,1.6661088466644287,-1.0926709175109863,0.560056746006012,343.75,289.48974609375,262.8173828125
6.239297866821289,-229576825,1,0.4787772297859192,0.3438999652862549,0.8789553046226501,74.5849609375,-5.2490234375,82.3974609375
6.244623899459839,-229576813,0,1.9114701747894287,-1.2799267768859863,0.46728330850601196,389.46533203125,303.1005859375,299.8046875
6.254102945327759,-229576806,1,0.4902518391609192,0.3783237934112549,0.8259767889976501,91.6748046875,8.97216796875,64.39208984375
6.269086122512817,-229576794,0,1.9039018154144287,-1.3482861518859863,0.40942198038101196,376.77001953125,298.64501953125,336.36474609375
6.2691709995269775,-229576775,0,1.8108842372894287,-1.3302197456359863,0.49316221475601196,338.68408203125,273.62060546875,352.84423828125
6.296001195907593,-229576787,1,0.4836600422859192,0.3834507465362549,0.7529787421226501,98.44970703125,23.5595703125,59.6923828125
6.2960100173950195,-229576768,1,0.4843924641609192,0.4098179340362549,0.6743654608726501,97.59521484375,35.70556640625,63.3544921875
6.3000688552856445,-229576756,0,1.7981889247894287,-1.3292431831359863,0.610349714756012,321.71630859375,260.8642578125,343.505859375
6.314317941665649,-229576749,1,0.5117362141609192,0.4024937152862549,0.6316408514976501,90.75927734375,54.01611328125,79.28466796875
6.314425945281982,-229576730,1,0.5576346516609192,0.3851597309112549,0.6050295233726501,83.49609375,68.115234375,92.6513671875
6.340226888656616,-229576737,0,1.7723100185394287,-1.3456006050109863,0.625242292881012,334.8388671875,260.92529296875,320.6787109375
6.340235948562622,-229576718,0,1.8699662685394287,-1.4813427925109863,0.532957136631012,361.87744140625,265.625,294.0673828125
6.3464038372039795,-229576711,1,0.5908377766609192,0.3648960590362549,0.6069826483726501,85.205078125,80.56640625,99.79248046875
6.358860969543457,-229576699,0,1.7598588466644287,-1.5821728706359863,0.548826277256012,347.83935546875,263.24462890625,286.68212890625
6.373948097229004,-229576692,1,0.5903494954109192,0.3741734027862549,0.6392092108726501,93.68896484375,91.064453125,99.12109375
6.374036073684692,-229576673,1,0.5576346516609192,0.4422886371612549,0.6609377264976501,97.16796875,95.703125,106.93359375
6.39761209487915,-229576680,0,1.6807572841644287,-1.6905713081359863,0.560545027256012,308.837890625,237.73193359375,288.75732421875
6.397621154785156,-229576661,0,1.7608354091644287,-1.8390088081359863,0.48705869913101196,275.634765625,213.0126953125,293.27392578125
6.404093027114868,-229576654,1,0.5398123860359192,0.5072300434112549,0.7283205389976501,93.44482421875,85.0830078125,135.3759765625
6.4190192222595215,-229576642,0,1.9695756435394287,-1.8939404487609863,0.37841612100601196,277.2216796875,204.77294921875,286.376953125
6.419136047363281,-229576623,0,1.9810502529144287,-1.8751416206359863,0.35204893350601196,280.45654296875,216.12548828125,245.9716796875
6.443238019943237,-229576635,1,0.5298026204109192,0.5248081684112549,0.8520998358726501,96.19140625,63.04931640625,176.3916015625
6.443246841430664,-229576616,1,0.4704764485359192,0.5235874652862549,0.8774904608726501,114.68505859375,36.7431640625,216.796875
6.452919960021973,-229576604,0,1.7415482997894287,-1.7271924018859863,0.36962705850601196,238.28125,222.5341796875,192.138671875
6.46434211730957,-229576597,1,0.6191580891609192,0.4547398090362549,0.7024416327476501,106.38427734375,13.671875,260.6201171875
6.495293140411377,-229576585,0,1.5430619716644287,-1.7513623237609863,0.47533994913101196,175.23193359375,175.537109375,153.80859375
6.5000998973846436,-229576561,1,0.7238944172859192,-0.09286761283874512,0.10258812457323074,243.95751953125,281.8603515625,123.6572265625
6.515758037567139,-229576549,0,2.0267045497894287,-1.9215283393859863,0.44262510538101196,170.34912109375,96.923828125,109.9853515625
6.539382219314575,-229576542,1,0.02321081981062889,0.5946323871612549,0.6194338202476501,149.90234375,307.12890625,102.783203125
6.539391040802002,-229576523,1,0.07594519853591919,1.0653355121612549,0.8953127264976501,-66.58935546875,170.71533203125,251.52587890625
6.544615030288696,-229576530,0,1.6792924404144287,-1.6336865425109863,0.27197080850601196,177.24609375,18.6767578125,75.0732421875
6.544622898101807,-229576511,0,1.4026811122894287,-1.4896435737609863,0.28442198038101196,177.6123046875,-77.392578125,36.376953125
6.55396580696106,-229576504,1,0.1640799641609192,1.0179722309112549,1.186816692352295,-121.52099609375,103.8818359375,380.31005859375
6.570565938949585,-229576492,0,1.2105424404144287,-1.4845166206359863,0.44286924600601196,150.69580078125,-146.8505859375,-7.2021484375
6.5706610679626465,-229576473,0,1.1480424404144287,-1.4852490425109863,0.604734480381012,115.234375,-157.5927734375,-35.2783203125
6.593199968338013,-229576485,1,0.1574881672859192,1.0631382465362549,1.776904582977295,-47.54638671875,81.84814453125,430.84716796875
6.593206882476807,-229576466,1,0.3667166829109192,1.0426304340362549,1.727099895477295,125.42724609375,159.423828125,458.1298828125
6.600716829299927,-229576454,0,1.1844193935394287,-1.1812939643859863,0.624021589756012,114.6240234375,-139.09912109375,-46.93603515625
6.6157920360565186,-229576447,1,0.09718543291091919,0.5384800434112549,1.726123332977295,224.06005859375,278.25927734375,462.58544921875
6.639396905899048,-229576435,0,1.2530229091644287,-0.9500927925109863,0.513181746006012,130.2490234375,-105.5908203125,-98.876953125
6.639405012130737,-229576416,0,1.1775834560394287,-0.9923291206359863,0.28637510538101196,137.6953125,-58.41064453125,-165.95458984375
6.646605014801025,-229576428,1,0.01564246043562889,0.3395054340362549,1.882129192352295,181.45751953125,264.09912109375,454.40673828125
6.646612167358398,-229576409,1,0.1435721516609192,0.012356992810964584,1.987109661102295,78.61328125,103.82080078125,504.33349609375
6.659114122390747,-229576397,0,0.9236772060394287,-1.1539502143859863,-0.048829980194568634,126.708984375,-46.0205078125,-193.54248046875
6.675475120544434,-229576390,1,0.6179373860359192,-0.4297816753387451,2.004687786102295,70.9228515625,-4.150390625,531.55517578125
6.675631046295166,-229576371,1,0.7795584797859192,-0.9053676128387451,1.896289348602295,171.20361328125,32.2265625,405.94482421875
6.694133043289185,-229576378,0,0.8497025966644287,-1.0929150581359863,0.002927832305431366,149.90234375,-74.3408203125,-187.8662109375
6.69414210319519,-229576359,0,0.8540971279144287,-0.7015576362609863,0.09252744168043137,159.7900390625,-119.68994140625,-192.2607421875
6.705471992492676,-229576352,1,0.5339530110359192,-0.7286098003387451,1.847217082977295,249.8779296875,44.25048828125,298.7060546875
6.72052001953125,-229576340,0,0.8296830654144287,-0.26723146438598633,0.10497861355543137,160.888671875,-158.447265625,-261.16943359375
6.742469072341919,-229576333,1,0.4948905110359192,-0.6038539409637451,1.616748332977295,278.62548828125,-0.9765625,223.93798828125
6.750632047653198,-229576321,0,0.5999467372894287,-0.7237744331359863,0.12939268350601196,108.5205078125,-243.95751953125,-235.3515625
6.765564918518066,-229576297,1,0.3567069172859192,-0.5997035503387451,1.022265911102295,317.93212890625,-54.931640625,138.24462890625
6.791958808898926,-229576285,0,0.07797405868768692,-0.23280762135982513,0.633298933506012,174.13330078125,-301.57470703125,-96.435546875
6.7919697761535645,-229576266,0,0.3882767856121063,0.18809081614017487,0.563962996006012,195.12939453125,-320.4345703125,-191.71142578125
6.7963080406188965,-229576278,1,0.4028494954109192,-0.6590297222137451,0.7654299139976501,344.482421875,-46.81396484375,70.37353515625
6.796315908432007,-229576259,1,0.4655936360359192,-0.6675746440887451,0.5720705389976501,367.7978515625,-8.1787109375,22.52197265625
6.810426950454712,-229576247,0,0.4881303012371063,0.17148925364017487,0.49755674600601196,97.2900390625,-326.7822265625,-350.76904296875
6.8384010791778564,-229576240,1,0.2624686360359192,-0.17904925346374512,0.12211937457323074,326.66015625,20.8740234375,36.07177734375
6.838410139083862,-229576221,1,0.1347830891609192,-0.13583636283874512,0.11357445269823074,229.30908203125,19.4091796875,33.26416015625
6.84323787689209,-229576228,0,0.19662639498710632,-0.40395021438598633,0.670408308506012,-3.2958984375,-325.8056640625,-348.69384765625
6.843245983123779,-229576209,0,-0.05972125381231308,-0.05873535946011543,0.45507627725601196,-11.8408203125,-285.70556640625,-220.703125
6.855764150619507,-229576202,1,0.2055838704109192,-0.14120745658874512,0.22441428899765015,159.1796875,1.28173828125,25.390625
6.870612144470215,-229576190,0,0.08188030868768692,0.27158689498901367,0.24584776163101196,15.625,-273.681640625,-142.15087890625
6.89448618888855,-229576183,1,0.3715994954109192,-0.22055315971374512,0.27788108587265015,158.0810546875,-10.986328125,-37.109375
6.895298004150391,-229576164,1,0.3274100422859192,-0.16049456596374512,0.25078147649765015,164.97802734375,-12.26806640625,-111.26708984375
6.900745153427124,-229576171,0,0.19198772311210632,0.36313962936401367,0.11034970730543137,9.521484375,-279.78515625,-181.2744140625
6.900877952575684,-229576152,0,0.20517131686210632,0.15830565989017487,0.20873838663101196,-46.630859375,-266.6015625,-217.71240234375
6.915817022323608,-229576145,1,0.1902030110359192,-0.11484026908874512,0.22197288274765015,134.58251953125,-28.25927734375,-136.8408203125
6.94036602973938,-229576133,0,0.08969280868768692,0.08066894114017487,0.37280088663101196,-85.14404296875,-229.30908203125,-180.48095703125
6.940375804901123,-229576114,0,0.07675335556268692,0.12754394114017487,0.35326963663101196,-103.82080078125,-192.626953125,-127.685546875
6.949135065078735,-229576126,1,-0.014142695814371109,-0.026461366564035416,0.29204124212265015,61.58447265625,-35.5224609375,-128.60107421875
6.949146032333374,-229576107,1,-0.05247277393937111,0.07973980903625488,0.44609397649765015,-18.98193359375,-38.57421875,-94.482421875
6.960006952285767,-229576095,0,0.20736858248710632,0.21787597239017487,0.26757627725601196,-129.45556640625,-126.220703125,-67.5048828125
6.977519989013672,-229576088,1,0.02565222606062889,0.06362652778625488,0.5696291327476501,-64.3310546875,-26.42822265625,-81.48193359375
6.991162061691284,-229576069,1,0.11793738603591919,0.049222227185964584,0.6440920233726501,-71.71630859375,-20.01953125,-104.1259765625
6.998347759246826,-229576076,0,0.2801224887371063,0.31528806686401367,0.15722471475601196,-174.37744140625,-70.12939453125,-29.72412109375
6.998355150222778,-229576057,0,0.3123490512371063,0.35166501998901367,0.17846494913101196,-208.251953125,-48.583984375,-8.85009765625
7.0431129932403564,-229576033,1,0.04274206981062889,0.16396832466125488,0.8364748358726501,-85.26611328125,-28.6865234375,-180.72509765625
7.04411506652832,-229576014,1,-0.1711251139640808,0.3839390277862549,0.8923830389976501,-109.31396484375,-47.9736328125,-193.603515625
7.053367853164673,-229576021,0,0.4974076449871063,0.42856931686401367,0.36083799600601196,-229.55322265625,-0.1220703125,41.50390625
7.0533788204193115,-229576002,0,0.6404740810394287,0.45859861373901367,0.40673643350601196,-236.14501953125,37.353515625,86.48681640625
7.064256191253662,-229575995,1,-0.1684395670890808,0.4908726215362549,0.9089846014976501,-126.77001953125,-35.21728515625,-174.31640625
7.094465970993042,-229575983,0,0.8238236904144287,0.5289111137390137,0.47680479288101196,-254.94384765625,69.15283203125,126.708984375
7.094477891921997,-229575964,0,0.9168412685394287,0.5564990043640137,0.562986433506012,-281.1279296875,90.39306640625,150.32958984375
7.099292993545532,-229575976,1,-0.10056847333908081,0.5934116840362549,0.9644045233726501,-122.25341796875,-6.16455078125,-190.73486328125
7.099302053451538,-229575957,1,-0.11228722333908081,0.6854526996612549,1.046679973602295,-109.55810546875,17.02880859375,-250.18310546875
7.114436864852905,-229575945,0,0.8604447841644287,0.5777392387390137,0.638425886631012,-293.39599609375,104.1259765625,156.25
7.138940095901489,-229575938,1,-0.3117501139640808,0.8246128559112549,1.226367473602295,-107.91015625,24.71923828125,-331.1767578125
7.1389479637146,-229575919,1,-0.6254708170890808,1.1769077777862549,1.222705364227295,-92.529296875,41.8701171875,-351.62353515625
7.145970106124878,-229575926,0,1.0118119716644287,0.5640673637390137,0.800779402256012,-278.80859375,114.3798828125,158.87451171875
7.145978927612305,-229575907,0,1.2366654872894287,0.5879931449890137,0.856931746006012,-215.02685546875,139.95361328125,171.2646484375
7.155334949493408,-229575900,1,-0.7531563639640808,1.3541538715362549,1.010058879852295,-64.8193359375,114.990234375,-319.15283203125
7.16887903213501,-229575888,0,1.3260209560394287,0.6678271293640137,0.880369246006012,-140.19775390625,191.46728515625,177.42919921875
7.1951210498809814,-229575881,1,-0.7663399577140808,1.2845737934112549,0.9849123358726501,-72.57080078125,168.76220703125,-320.4345703125
7.195129871368408,-229575862,1,-0.8547188639640808,1.1971714496612549,1.119678020477295,-92.6513671875,192.626953125,-358.21533203125
7.200767993927002,-229575869,0,1.2959916591644287,0.7571825981140137,0.843504011631012,-125.67138671875,215.88134765625,156.43310546875
7.200884103775024,-229575850,0,1.2225053310394287,0.7708544731140137,0.789793074131012,-138.0615234375,221.98486328125,113.76953125
7.215768814086914,-229575843,1,-0.9181954264640808,1.2066929340362549,1.254199504852295,-107.5439453125,163.51318359375,-414.0625
7.239345073699951,-229575831,0,1.3196732997894287,0.7681689262390137,0.718748152256012,-109.2529296875,215.4541015625,95.21484375
7.2393529415130615,-229575812,0,1.3396928310394287,0.6822314262390137,0.650388777256012,-53.28369140625,207.58056640625,99.91455078125
7.243618965148926,-229575824,1,-1.1689279079437256,1.2740757465362549,1.346972942352295,-129.8828125,122.4365234375,-444.51904296875
7.248739957809448,-229575805,1,-1.3930490016937256,1.3270542621612549,1.259326457977295,-120.7275390625,133.11767578125,-447.20458984375
7.260879993438721,-229575793,0,1.2947709560394287,0.6202197074890137,0.578123152256012,-24.0478515625,199.8291015625,101.50146484375
7.274725914001465,-229575769,1,-1.6432931423187256,0.9967319965362549,1.014941692352295,-136.29150390625,232.36083984375,-447.20458984375
7.299988031387329,-229575757,0,1.2496049404144287,0.5645556449890137,0.617918074131012,-32.5927734375,168.212890625,106.14013671875
7.305423021316528,-229575750,1,-1.6567208766937256,0.6429722309112549,0.9680666327476501,-142.333984375,284.66796875,-510.43701171875
7.320796012878418,-229575738,0,1.3567826747894287,0.6644091606140137,0.690427839756012,6.65283203125,148.98681640625,70.49560546875
7.343836069107056,-229575731,1,-1.9692208766937256,0.4681675434112549,0.8635744452476501,-142.4560546875,311.4013671875,-576.0498046875
7.343843936920166,-229575712,1,-2.3901193141937256,0.5350620746612549,0.7183107733726501,-137.20703125,296.38671875,-562.68310546875
7.350804090499878,-229575719,0,1.3081986904144287,0.5562548637390137,0.693113386631012,32.89794921875,174.560546875,16.357421875
7.35091495513916,-229575700,0,1.1604936122894287,0.38608884811401367,0.688718855381012,28.74755859375,191.71142578125,-1.0986328125
7.365682125091553,-229575693,1,-2.5060861110687256,0.6918003559112549,0.47343772649765015,-122.98583984375,301.57470703125,-520.3857421875
7.390383958816528,-229575681,0,0.9891068935394287,0.40464353561401367,0.617429792881012,56.70166015625,159.36279296875,26.123046875
7.390393018722534,-229575662,0,1.0057084560394287,0.17881347239017487,0.46142393350601196,-6.103515625,101.62353515625,13.12255859375
7.396694898605347,-229575674,1,-2.3095529079437256,0.5995151996612549,0.36528342962265015,-148.193359375,308.41064453125,-420.59326171875
7.396703004837036,-229575655,1,-1.8342111110687256,0.2945835590362549,0.5120119452476501,-140.19775390625,330.13916015625,-382.4462890625
7.410362958908081,-229575643,0,0.7769486904144287,0.35361814498901367,0.716795027256012,56.70166015625,95.15380859375,-24.5361328125
7.440644025802612,-229575636,1,-1.5097482204437256,0.14370465278625488,0.7024416327476501,-115.234375,323.42529296875,-399.71923828125
7.446521997451782,-229575624,0,0.5962846279144287,0.28599119186401367,0.802732527256012,95.64208984375,112.73193359375,-36.2548828125
7.4465320110321045,-229575605,0,0.3140580356121063,-0.04286621883511543,0.735837996006012,101.01318359375,153.62548828125,-11.71875
7.455832004547119,-229575617,1,-1.3754708766937256,0.3168003559112549,0.8813967108726501,-110.7177734375,279.78515625,-405.70068359375
7.455950975418091,-229575598,1,-1.2573068141937256,0.3104526996612549,1.282275676727295,-92.28515625,257.6904296875,-396.8505859375
7.470440149307251,-229575586,0,0.24130412936210632,-0.020893562585115433,0.664060652256012,81.97021484375,157.5927734375,29.23583984375
7.496628999710083,-229575579,1,-1.1240060329437256,0.3517124652862549,1.191455364227295,-24.0478515625,229.248046875,-417.17529296875
7.496641159057617,-229575560,1,-1.0593087673187256,0.3072788715362549,1.211719036102295,-33.26416015625,193.54248046875,-404.11376953125
7.5007100105285645,-229575567,0,0.20590373873710632,0.12852050364017487,0.628416121006012,95.76416015625,94.8486328125,71.4111328125
7.500814914703369,-229575548,0,0.24447795748710632,0.16343261301517487,0.723630964756012,129.45556640625,34.60693359375,107.36083984375
7.515836954116821,-229575541,1,-0.9728829264640808,0.3043491840362549,1.129199504852295,-54.3212890625,165.71044921875,-369.44580078125
7.5397279262542725,-229575529,0,0.3453080356121063,0.18931151926517487,0.904539167881012,211.669921875,15.625,143.5546875
7.548173904418945,-229575505,1,-0.7219063639640808,0.12783551216125488,1.045459270477295,-60.05859375,173.7060546875,-332.33642578125
7.560626983642578,-229575493,0,0.5957963466644287,0.49521970748901367,0.886961042881012,209.228515625,103.82080078125,-7.75146484375
7.57477593421936,-229575486,1,-0.4492012858390808,0.020901914685964584,1.070849895477295,-77.33154296875,172.66845703125,-298.88916015625
7.596081018447876,-229575474,0,0.6895463466644287,0.6060595512390137,0.699949324131012,117.0654296875,105.46875,-69.64111328125
7.596089839935303,-229575455,0,0.7105424404144287,0.7144579887390137,0.716306746006012,66.46728515625,69.88525390625,-120.2392578125
7.603265047073364,-229575467,1,-0.1913887858390808,-0.14609026908874512,1.185595989227295,-119.9951171875,187.5,-263.36669921875
7.6048500537872314,-229575448,1,-0.05808800831437111,-0.18979144096374512,1.270068645477295,-155.76171875,192.19970703125,-244.140625
7.6208720207214355,-229575436,0,0.6890580654144287,0.7259325981140137,0.913816511631012,62.43896484375,21.54541015625,-178.89404296875
7.642899036407471,-229575429,1,-0.03001183643937111,-0.15439105033874512,1.423633098602295,-170.654296875,190.36865234375,-216.12548828125
7.643710136413574,-229575410,1,0.003435429185628891,-0.10238909721374512,1.520801067352295,-171.5087890625,183.349609375,-180.11474609375
7.650820016860962,-229575417,0,0.6570756435394287,0.6885790824890137,1.0646953582763672,88.19580078125,14.70947265625,-222.16796875
7.65094518661499,-229575398,0,0.6888139247894287,0.6363329887390137,1.1291484832763672,81.787109375,45.10498046875,-250.48828125
7.66546893119812,-229575391,1,0.07716590166091919,-0.022066835314035416,1.556933879852295,-150.45166015625,181.21337890625,-121.88720703125
7.6922149658203125,-229575379,0,0.7498490810394287,0.6214404106140137,1.0683574676513672,81.6650390625,64.27001953125,-273.681640625
7.696545124053955,-229575372,1,0.2024100422859192,-0.09677386283874512,1.535205364227295,-134.521484375,186.21826171875,-89.599609375
7.696552991867065,-229575353,1,0.2629569172859192,-0.22250628471374512,1.561084270477295,-123.10791015625,207.763671875,-48.7060546875
7.713670015335083,-229575360,0,0.8616654872894287,0.5816454887390137,0.990476667881012,93.1396484375,56.82373046875,-299.25537109375
7.713680982589722,-229575341,0,0.8672807216644287,0.5218310356140137,0.942625105381012,106.38427734375,32.53173828125,-324.40185546875
7.739620923995972,-229575334,1,0.4743826985359192,-0.4671351909637451,1.616992473602295,-118.7744140625,241.51611328125,-40.10009765625
7.746068000793457,-229575322,0,0.7642533779144287,0.48667478561401367,0.890623152256012,98.5107421875,5.0048828125,-336.0595703125
7.746077060699463,-229575303,0,0.6778275966644287,0.44199705123901367,0.826902449131012,75.3173828125,-13.671875,-332.33642578125
7.755645036697388,-229575315,1,0.5412772297859192,-0.4815394878387451,1.554248332977295,-105.46875,281.92138671875,-17.51708984375
7.755745887756348,-229575296,1,0.7368338704109192,-0.6082484722137451,1.657275676727295,-115.29541015625,323.2421875,-0.91552734375
7.770437002182007,-229575284,0,0.5684525966644287,0.46152830123901367,0.703855574131012,40.52734375,-27.587890625,-320.80078125
7.793138027191162,-229575277,1,0.8562186360359192,-0.7098109722137451,1.851855754852295,-105.8349609375,353.08837890625,4.69970703125
7.800892114639282,-229575265,0,0.4822709262371063,0.48032712936401367,0.596677839756012,28.74755859375,-60.97412109375,-332.03125
7.815773010253906,-229575241,1,1.0266287326812744,-0.9302699565887451,1.908496379852295,-72.75390625,376.3427734375,39.73388671875
7.840275049209595,-229575229,0,0.18051311373710632,0.24863769114017487,0.722654402256012,-9.27734375,-67.0166015625,-417.236328125
7.844688892364502,-229575222,1,1.1408865451812744,-1.0472133159637451,1.910205364227295,-72.265625,381.2255859375,78.125
7.844697952270508,-229575203,1,1.2822439670562744,-1.1031215190887451,1.982715129852295,-58.2275390625,362.12158203125,134.765625
7.859425067901611,-229575210,0,-0.05337359756231308,0.16636230051517487,0.780515730381012,-27.40478515625,-42.41943359375,-439.697265625
7.859493017196655,-229575191,0,-0.09707476943731308,0.17979003489017487,0.749265730381012,-29.1748046875,-17.822265625,-463.43994140625
7.873938083648682,-229575184,1,1.3357107639312744,-1.2032191753387451,1.968066692352295,-19.47021484375,330.62744140625,171.56982421875
7.898921012878418,-229575172,0,-0.06826617568731308,0.11533690989017487,0.737302839756012,-29.35791015625,14.34326171875,-524.7802734375
7.89893102645874,-229575153,0,-0.4339888393878937,-0.09364746510982513,0.833738386631012,-2.685546875,4.57763671875,-583.31298828125
7.904038906097412,-229575165,1,1.2463552951812744,-1.3733851909637451,1.793994426727295,15.68603515625,290.71044921875,225.15869140625
7.904162883758545,-229575146,1,0.9680350422859192,-1.4100062847137451,1.666553020477295,35.58349609375,267.578125,270.1416015625
7.91917610168457,-229575134,0,-0.5970747470855713,-0.19936035573482513,0.948484480381012,51.20849609375,-54.3212890625,-568.05419921875
7.942262887954712,-229575127,1,0.7370780110359192,-1.6336390972137451,1.583056926727295,50.47607421875,257.38525390625,344.970703125
7.949757099151611,-229575115,0,-0.7362349033355713,-0.44081544876098633,1.0568828582763672,110.3515625,-196.22802734375,-469.7265625
7.949765920639038,-229575096,0,-1.9813520908355713,-1.2445263862609863,0.521726667881012,137.26806640625,-315.673828125,-371.337890625
7.964077949523926,-229575108,1,0.6252616047859192,-1.8548305034637451,1.630176067352295,70.73974609375,265.31982421875,394.1650390625
7.9641430377960205,-229575089,1,0.6743338704109192,-2.049166440963745,1.647998332977295,74.3408203125,252.74658203125,408.38623046875
7.99088191986084,-229575077,0,-1.0404341220855713,-0.7154736518859863,0.540037214756012,174.8046875,-500.3662109375,-176.57470703125
7.9968421459198,-229575070,1,0.5708182454109192,-2.211519956588745,1.265674114227295,91.00341796875,231.14013671875,402.7099609375
7.99685001373291,-229575051,1,0.11549597978591919,-2.245455503463745,0.7612795233726501,93.81103515625,223.14453125,407.8369140625
8.009035110473633,-229575058,0,-0.3287642300128937,-0.03480957821011543,0.904783308506012,55.60302734375,-461.85302734375,-194.091796875
8.009155988693237,-229575039,0,-0.05850055068731308,0.22837401926517487,0.913084089756012,-197.265625,-232.0556640625,-353.759765625
8.023969173431396,-229575032,1,-0.08958214521408081,-1.9612758159637451,0.49589866399765015,59.99755859375,281.43310546875,412.109375
8.044385194778442,-229575020,0,0.3392045199871063,0.18296386301517487,0.969724714756012,-341.61376953125,-6.2255859375,-523.681640625
8.053997993469238,-229575013,1,-0.1391426920890808,-2.263277769088745,0.7212404608726501,27.77099609375,288.818359375,439.697265625
8.070583820343018,-229575001,0,-0.23135212063789368,0.06846190989017487,0.946775496006012,-348.93798828125,144.6533203125,-612.4267578125
8.09409499168396,-229574977,1,-0.07761925458908081,-1.6519496440887451,0.46586936712265015,-25.69580078125,135.6201171875,430.35888671875
8.100803852081299,-229574965,0,-0.13979938626289368,-0.7752881050109863,1.1616191864013672,64.14794921875,23.98681640625,-350.7080078125
8.10083794593811,-229574946,0,0.3550736606121063,-0.5091748237609863,0.875730574131012,172.79052734375,-70.1904296875,-322.08251953125
8.11704683303833,-229574958,1,-0.1867501139640808,-1.5914027690887451,-0.006298594176769257,-62.92724609375,203.06396484375,371.03271484375
8.11705994606018,-229574939,1,-0.3715645670890808,-1.4822719097137451,0.18413108587265015,-83.06884765625,285.400390625,348.14453125
8.139607906341553,-229574927,0,0.01498577743768692,-0.6253857612609863,0.835203230381012,122.00927734375,-54.6875,-355.89599609375
8.148216962814331,-229574920,1,-0.08469933271408081,-1.5779750347137451,0.45830100774765015,-111.14501953125,277.40478515625,301.513671875
8.148235082626343,-229574901,1,-0.06223839893937111,-0.8721644878387451,0.7234377264976501,-102.1728515625,234.130859375,258.7890625
8.160506010055542,-229574908,0,-0.05581500381231308,-0.5743603706359863,1.0512676239013672,86.48681640625,-27.40478515625,-314.27001953125
8.160600900650024,-229574889,0,-0.08120562881231308,-0.6422314643859863,0.918211042881012,101.318359375,16.17431640625,-285.58349609375
8.175371170043945,-229574882,1,-0.3906075358390808,-0.5496547222137451,0.49760764837265015,-141.78466796875,154.1748046875,285.2783203125
8.196457147598267,-229574870,0,-0.09243609756231308,-0.6261181831359863,0.627683699131012,131.16455078125,-12.51220703125,-214.35546875
8.205700874328613,-229574863,1,-0.2463204264640808,-0.3853480815887451,0.39262717962265015,-198.8525390625,117.49267578125,309.9365234375
8.205803155899048,-229574844,1,-0.2319161295890808,-0.6004359722137451,0.44243186712265015,-193.2373046875,127.9296875,268.37158203125
8.220720052719116,-229574851,0,-0.11416461318731308,-0.5238232612609863,0.865232527256012,197.265625,-77.69775390625,-94.05517578125
8.220791816711426,-229574832,0,0.3233353793621063,-0.15468262135982513,1.0639629364013672,225.830078125,-109.80224609375,-111.6943359375
8.243096828460693,-229574825,1,-0.1274239420890808,-0.5513637065887451,0.41118186712265015,-148.25439453125,175.84228515625,187.80517578125
8.252604007720947,-229574813,0,0.23251506686210632,-0.12611816823482513,1.1691875457763672,215.33203125,-123.9013671875,-111.81640625
8.252617120742798,-229574794,0,0.09213421493768692,-0.11952637135982513,1.1479473114013672,227.35595703125,-122.00927734375,-78.2470703125
8.26573920249939,-229574806,1,-0.3256661295890808,-0.08114886283874512,0.39775413274765015,-125.1220703125,184.5703125,129.21142578125
8.265873908996582,-229574787,1,-0.5002266764640808,-0.06381487846374512,0.5198244452476501,-148.681640625,166.19873046875,129.57763671875
8.292896032333374,-229574775,0,0.18954631686210632,-0.028461921960115433,1.1442852020263672,227.96630859375,-128.41796875,-52.978515625
8.299778938293457,-229574768,1,-0.4611641764640808,0.054349180310964584,0.36162132024765015,-178.52783203125,113.58642578125,133.72802734375
8.29978609085083,-229574749,1,-0.6254708170890808,0.12954449653625488,0.37089866399765015,-194.03076171875,99.2431640625,133.1787109375
8.310475826263428,-229574756,0,0.2644974887371063,0.023295890539884567,1.1276836395263672,226.01318359375,-123.10791015625,-12.51220703125
8.310624122619629,-229574737,0,0.3777787387371063,0.07505370676517487,1.1813945770263672,221.49658203125,-116.39404296875,16.11328125
8.3540780544281,-229574713,1,-0.4794747233390808,0.11782574653625488,0.47319358587265015,-207.763671875,69.82421875,43.3349609375
8.355504989624023,-229574694,1,-0.4760567545890808,0.14590191841125488,0.5430178046226501,-201.47705078125,49.13330078125,-14.2822265625
8.370884895324707,-229574701,0,0.4712845981121063,0.15391112864017487,1.2314434051513672,220.27587890625,-97.22900390625,66.58935546875
8.37099814414978,-229574682,0,0.5103471279144287,0.22324706614017487,1.2307109832763672,225.4638671875,-88.9892578125,82.3974609375
8.392261981964111,-229574675,1,-0.5034005045890808,0.21889996528625488,0.5730471014976501,-192.44384765625,24.2919921875,-26.42822265625
8.399190902709961,-229574663,0,0.5162065029144287,0.28452634811401367,1.3142070770263672,227.6611328125,-63.720703125,106.689453125
8.399311065673828,-229574644,0,0.4893510043621063,0.41318845748901367,1.4155254364013672,243.1640625,-18.85986328125,144.4091796875
8.415771961212158,-229574656,1,-0.5207344889640808,0.22451519966125488,0.6414064764976501,-196.4111328125,-17.76123046875,-30.45654296875
8.415930032730103,-229574637,1,-0.6103340983390808,0.2569859027862549,0.7336916327476501,-198.2421875,-57.06787109375,-34.60693359375
8.439599990844727,-229574625,0,0.4610306918621063,0.5540575981140137,1.3566875457763672,225.09765625,26.9775390625,174.25537109375
8.445538997650146,-229574618,1,-0.6115548014640808,0.2948276996612549,0.8010744452476501,-207.82470703125,-100.2197265625,-32.40966796875
8.445658922195435,-229574599,1,-0.5495430827140808,0.2811558246612549,0.8232912421226501,-204.04052734375,-115.05126953125,-38.818359375
8.459841012954712,-229574606,0,0.4917924106121063,0.7938036918640137,1.3642559051513672,177.3681640625,93.6279296875,185.1806640625
8.459961891174316,-229574587,0,0.5022904872894287,1.0047411918640137,1.2744121551513672,66.95556640625,179.99267578125,165.58837890625
8.477295875549316,-229574580,1,-0.5825020670890808,0.22939801216125488,0.8872560858726501,-163.39111328125,-99.9755859375,-78.857421875
8.4968740940094,-229574568,0,0.2857377231121063,1.2112841606140137,1.2338848114013672,-50.23193359375,268.00537109375,136.53564453125
8.505074977874756,-229574561,1,-0.6408516764640808,0.23428082466125488,0.9033693671226501,-129.150390625,-84.5947265625,-132.38525390625
8.505181074142456,-229574542,1,-0.7472969889640808,0.3121616840362549,1.050097942352295,-111.38916015625,-88.19580078125,-162.29248046875
8.52067494392395,-229574549,0,0.19125530123710632,1.3528857231140137,1.1462383270263672,-136.23046875,309.75341796875,105.77392578125
8.520786046981812,-229574530,0,0.06869671493768692,1.6006884574890137,1.0356426239013672,-201.23291015625,310.85205078125,59.6923828125
8.54226016998291,-229574523,1,-0.8762032389640808,0.3876011371612549,1.252246379852295,-102.96630859375,-115.17333984375,-176.94091796875
8.550809860229492,-229574511,0,-0.06777789443731308,1.8182177543640137,0.961912214756012,-192.19970703125,254.69970703125,-0.18310546875
8.550870895385742,-229574492,0,-0.2955611050128937,1.8553271293640137,0.958494246006012,-175.78125,202.20947265625,-35.5224609375
8.56571888923645,-229574504,1,-0.9916817545890808,0.4483921527862549,1.368457317352295,-79.1015625,-166.1376953125,-168.27392578125
8.565813064575195,-229574485,1,-1.0207345485687256,0.3946812152862549,1.265185832977295,-78.67431640625,-212.2802734375,-141.78466796875
8.590572118759155,-229574473,0,-0.4977095425128937,1.7776904106140137,0.982175886631012,-213.19580078125,154.84619140625,-43.5791015625
8.5967378616333,-229574449,1,-1.2299630641937256,0.4649937152862549,1.385791301727295,-30.82275390625,-262.75634765625,-184.50927734375
8.608613967895508,-229574437,0,-0.7315962314605713,2.0210986137390137,1.0561504364013672,-247.6806640625,39.12353515625,-75.8056640625
8.638455867767334,-229574430,1,-1.4030587673187256,0.6092808246612549,1.243213176727295,42.1142578125,-280.70068359375,-155.45654296875
8.643367052078247,-229574418,0,-1.1134321689605713,1.9102587699890137,1.4287090301513672,-170.71533203125,-31.79931640625,-185.85205078125
8.655436992645264,-229574411,1,-1.3805978298187256,0.5226109027862549,1.123828411102295,57.55615234375,-283.69140625,-101.13525390625
8.655549049377441,-229574392,1,-1.4430978298187256,0.4676792621612549,1.012500286102295,57.861328125,-276.123046875,-68.66455078125
8.670753955841064,-229574399,0,-1.4215376377105713,1.0357470512390137,1.4272441864013672,-66.46728515625,-13.0615234375,-271.30126953125
8.670873880386353,-229574380,0,-1.7767622470855713,0.6106982231140137,1.0644512176513672,-68.78662109375,68.359375,-284.423828125
8.694447040557861,-229574373,1,-1.7714669704437256,0.6539585590362549,0.8330568671226501,61.8896484375,-268.85986328125,-22.76611328125
8.700577020645142,-229574361,0,-1.9928267002105713,0.36094236373901367,0.741209089756012,-71.96044921875,117.1875,-257.4462890625
8.700654029846191,-229574342,0,-1.9872114658355713,-0.15199707448482513,0.20117002725601196,-39.306640625,55.48095703125,-235.53466796875
8.720044136047363,-229574354,1,-2.0041329860687256,0.7657749652862549,0.5208010077476501,73.8525390625,-223.7548828125,69.091796875
8.72005581855774,-229574335,1,-1.8915841579437256,0.6092808246612549,0.32695335149765015,43.88427734375,-167.66357421875,174.560546875
8.742110013961792,-229574323,0,-1.6275923252105713,-0.8453564643859863,-0.053712792694568634,-43.8232421875,-18.798828125,-293.5791015625
8.747941970825195,-229574316,1,-1.5041329860687256,0.3707554340362549,0.22539085149765015,17.578125,-126.40380859375,199.27978515625
8.761030912399292,-229574304,0,-1.5731489658355713,-1.3861279487609863,-0.025392480194568634,-38.9404296875,-36.56005859375,-318.90869140625
8.761169910430908,-229574285,0,-1.3768599033355713,-1.6236767768859863,0.001951269805431366,5.92041015625,-22.39990234375,-259.33837890625
8.77742600440979,-229574297,1,-0.9767891764640808,0.06924176216125488,0.38090842962265015,16.41845703125,-96.25244140625,133.6669921875
8.790395021438599,-229574278,1,-0.6730782389640808,0.12441754341125488,0.45122092962265015,39.00146484375,-102.23388671875,63.04931640625
8.79755187034607,-229574266,0,-0.6991255283355713,-1.6683545112609863,-0.19140809774398804,29.4189453125,42.48046875,-195.1904296875
8.804973840713501,-229574259,1,-0.3312813639640808,0.055814024060964584,0.40776389837265015,28.564453125,-127.74658203125,38.6962890625
8.805063962936401,-229574240,1,-0.1628243327140808,-0.23837542533874512,0.46562522649765015,24.23095703125,-111.6943359375,5.2490234375
8.820595026016235,-229574247,0,-0.2550337612628937,-1.5975537300109863,-0.23828309774398804,85.5712890625,37.353515625,-132.568359375
8.82072901725769,-229574228,0,0.15707561373710632,-1.4977002143859863,-0.17993348836898804,157.8369140625,-56.7626953125,-92.95654296875
8.842714071273804,-229574221,1,0.002703007310628891,-0.025484804064035416,0.6675295233726501,50.23193359375,-47.42431640625,-36.4990234375
8.852199077606201,-229574209,0,0.4143998324871063,-1.3668408393859863,0.06811337918043137,284.85107421875,-127.9296875,-37.2314453125
8.86559009552002,-229574185,1,-0.06931847333908081,0.20473980903625488,1.224414348602295,58.59375,-59.08203125,4.8828125
8.891294956207275,-229574173,0,0.6341264247894287,-0.9688916206359863,0.12280087918043137,463.2568359375,-228.6376953125,82.03125
8.895344018936157,-229574166,1,-0.05174035206437111,0.3143589496612549,1.407763957977295,66.40625,-108.70361328125,62.744140625
8.91236424446106,-229574154,0,0.8384721279144287,-1.0238232612609863,0.042478613555431366,593.44482421875,-280.09033203125,154.84619140625
8.91237497329712,-229574135,0,1.0813920497894287,-1.0033154487609863,0.07055478543043137,683.837890625,-321.47216796875,220.03173828125
8.937743902206421,-229574147,1,-0.2258126139640808,0.3565952777862549,1.464648723602295,122.98583984375,-129.08935546875,63.1103515625
8.93775200843811,-229574128,1,-0.3207833170890808,0.4242222309112549,1.325732707977295,153.86962890625,-118.65234375,60.546875
8.94292688369751,-229574116,0,1.5950639247894287,-0.8326611518859863,0.18505674600601196,726.806640625,-295.7763671875,273.8037109375
8.955749034881592,-229574109,1,-0.3827950358390808,0.4938023090362549,1.112109661102295,141.845703125,-82.82470703125,75.50048828125
8.955836057662964,-229574090,1,-0.3508126139640808,0.5296909809112549,1.133105754852295,153.1982421875,-53.03955078125,82.275390625
8.970594882965088,-229574097,0,1.7832963466644287,-0.8336377143859863,0.27783018350601196,687.43896484375,-176.8798828125,332.8857421875
8.970706939697266,-229574078,0,1.9585893154144287,-1.0138134956359863,0.35156065225601196,608.642578125,-28.86962890625,398.13232421875
8.994349956512451,-229574071,1,-0.4081856608390808,0.6317417621612549,1.082324504852295,160.58349609375,-36.19384765625,129.8828125
9.000832080841064,-229574059,0,2.2574174404144287,-1.0902295112609863,0.37988096475601196,531.3720703125,92.71240234375,430.5419921875
9.017089128494263,-229574052,1,-0.3984200358390808,0.5030796527862549,1.081103801727295,167.48046875,-38.57421875,143.37158203125
9.017100811004639,-229574033,1,-0.3410469889640808,0.5116245746612549,1.037646770477295,184.326171875,-57.67822265625,147.27783203125
9.039686918258667,-229574040,0,2.6131303310394287,-1.0770459175109863,0.26659971475601196,466.4306640625,206.97021484375,434.99755859375
9.039695024490356,-229574021,0,2.7293412685394287,-1.1039013862609863,0.11865048855543137,469.1162109375,266.2353515625,409.97314453125
9.045854091644287,-229574014,1,-0.3317696452140808,0.6092808246612549,0.9863771796226501,193.17626953125,-82.82470703125,171.875
9.060790061950684,-229574002,0,2.6766068935394287,-1.2020459175109863,-0.12841981649398804,514.7705078125,211.9140625,368.7744140625
9.060858011245728,-229573983,0,2.5606400966644287,-1.3141064643859863,-0.22387880086898804,532.1044921875,128.41796875,331.787109375
9.08878493309021,-229573995,1,-0.3456856608390808,0.7508823871612549,0.8608888983726501,169.73876953125,-97.35107421875,235.107421875
9.0887930393219,-229573976,1,-0.3539864420890808,0.7770054340362549,0.8936037421226501,158.14208984375,-95.76416015625,299.13330078125
9.095709085464478,-229573964,0,2.3389604091644287,-1.2318310737609863,-0.12671083211898804,503.0517578125,54.5654296875,304.99267578125
9.10553503036499,-229573957,1,-0.3190743327140808,0.7701694965362549,0.9226564764976501,159.5458984375,-57.67822265625,358.21533203125
