sync_time,timestamp_ms,device_id,ax,ay,az,gx,gy,gz
0.018810749053955078,-1267870362,0,0.4017210900783539,-0.4302401840686798,1.0477888584136963,9.58251953125,-14.34326171875,-25.69580078125
0.018820762634277344,-1267870343,0,0.4100218713283539,-0.4256015121936798,1.0626814365386963,13.916015625,-14.58740234375,-22.52197265625
0.038498640060424805,-1267870364,1,0.1390421986579895,-0.0017302893102169037,1.0963153839111328,27.89306640625,-10.498046875,-12.02392578125
0.03850579261779785,-1267870345,1,0.1368449330329895,0.009011898189783096,1.1092548370361328,33.50830078125,-5.126953125,-10.31494140625
0.04810976982116699,-1267870324,0,0.4166136682033539,-0.4243808090686798,1.0912458896636963,17.7001953125,-12.451171875,-22.03369140625
0.05625796318054199,-1267870326,1,0.1263468861579895,0.027566585689783096,1.1256122589111328,35.5224609375,-2.99072265625,-10.7421875
0.0887596607208252,-1267870305,0,0.4114867150783539,-0.4026522934436798,1.1364119052886963,19.04296875,-11.16943359375,-24.5361328125
0.08876681327819824,-1267870286,0,0.4368773400783539,-0.3943515121936798,1.1596052646636963,19.287109375,-14.46533203125,-21.484375
0.09266185760498047,-1267870307,1,0.0926554799079895,0.054910335689783096,1.1495380401611328,37.29248046875,-0.732421875,-10.92529296875
0.09266996383666992,-1267870288,1,0.0743449330329895,0.0785919725894928,1.1627216339111328,39.55078125,-2.62451171875,-5.859375
0.10865378379821777,-1267870267,0,0.4324828088283539,-0.3997226059436798,1.1737654209136963,18.98193359375,-19.53125,-18.6767578125
0.11487174034118652,-1267870269,1,0.054569538682699203,0.0712677538394928,1.1529560089111328,38.0859375,-7.32421875,-1.220703125
0.1149449348449707,-1267870250,1,0.040653523057699203,0.0778595507144928,1.1156024932861328,38.51318359375,-16.7236328125,1.5869140625
0.1431407928466797,-1267870248,0,0.4192992150783539,-0.4046054184436798,1.1605818271636963,20.69091796875,-28.9306640625,-18.12744140625
0.14314794540405273,-1267870229,0,0.4153929650783539,-0.3938632309436798,1.0949079990386963,16.29638671875,-37.2314453125,-24.658203125
0.14524269104003906,-1267870231,1,0.0699504017829895,0.0834747850894928,1.0775165557861328,41.07666015625,-28.076171875,0.244140625
0.16812586784362793,-1267870210,0,0.4102660119533539,-0.3755526840686798,1.0270369052886963,14.58740234375,-41.07666015625,-33.0810546875
0.17607378959655762,-1267870212,1,0.1138957142829895,0.0873810350894928,1.0267353057861328,40.8935546875,-34.5458984375,-6.65283203125
0.19890785217285156,-1267870174,0,0.4515257775783539,-0.3191561996936798,0.9452497959136963,10.43701171875,-32.40966796875,-59.02099609375
0.20661282539367676,-1267870176,1,0.1868937611579895,0.1581818163394928,0.9774188995361328,46.9970703125,-32.04345703125,-33.935546875
0.24049878120422363,-1267870155,0,0.4857054650783539,-0.2949862778186798,0.9542829990386963,10.3759765625,-22.52197265625,-68.90869140625
0.2405087947845459,-1267870136,0,0.5023069977760315,-0.2605624496936798,0.9808943271636963,8.4228515625,-19.53125,-80.078125
0.24448895454406738,-1267870157,1,0.1744425892829895,0.1813751757144928,0.9769306182861328,48.76708984375,-26.30615234375,-45.95947265625
0.24449586868286133,-1267870138,1,0.1734660267829895,0.2345978319644928,0.9678974151611328,49.62158203125,-26.79443359375,-56.396484375
0.2575187683105469,-1267870117,0,0.5379515290260315,-0.246646448969841,0.9625837802886963,5.92041015625,-18.98193359375,-85.9375
0.2645890712738037,-1267870119,1,0.1956828236579895,0.2629181444644928,0.9556903839111328,46.93603515625,-27.9541015625,-62.07275390625
0.2646908760070801,-1267870100,1,0.2620890736579895,0.2609650194644928,0.9554462432861328,40.8935546875,-24.4140625,-74.0966796875
0.2968108654022217,-1267870098,0,0.5464964509010315,-0.2512851059436798,0.9198591709136963,2.74658203125,-13.00048828125,-91.796875
0.2968177795410156,-1267870079,0,0.5560179352760315,-0.2861972153186798,0.8793318271636963,1.15966796875,6.65283203125,-99.12109375
0.29980897903442383,-1267870081,1,0.3126261830329895,0.2450958788394928,0.9490985870361328,35.58349609375,-11.8408203125,-89.599609375
0.31716179847717285,-1267870060,0,0.5406370759010315,-0.2556796371936798,0.8910505771636963,-1.77001953125,25.0244140625,-113.70849609375
0.32470178604125977,-1267870062,1,0.2010539174079895,0.2297150194644928,0.9459247589111328,35.64453125,-2.86865234375,-107.421875
0.3247859477996826,-1267870043,1,0.1597941517829895,0.2944122850894928,0.9285907745361328,41.68701171875,-3.41796875,-107.7880859375
0.34891176223754883,-1267870041,0,0.5887327790260315,-0.126285120844841,0.9935896396636963,-5.43212890625,23.74267578125,-122.0703125
0.34897375106811523,-1267870022,0,0.6644163727760315,-0.117984339594841,0.9933454990386963,2.9296875,13.671875,-109.06982421875
0.3553779125213623,-1267870024,1,0.2398722767829895,0.3251740038394928,0.9534931182861328,44.7998046875,-7.080078125,-93.32275390625
0.3904237747192383,-1267870003,0,0.6763792634010315,-0.191958948969841,0.9650251865386963,5.43212890625,1.15966796875,-95.458984375
0.39043188095092773,-1267869984,0,0.7134886384010315,-0.239810511469841,0.8629744052886963,-9.58251953125,12.39013671875,-104.91943359375
0.3921070098876953,-1267870005,1,0.2891886830329895,0.3976837694644928,0.9412860870361328,37.29248046875,-15.31982421875,-83.0078125
0.39211273193359375,-1267869986,1,0.3985636830329895,0.3998810350894928,0.9525165557861328,20.81298828125,-13.00048828125,-97.2900390625
0.40898895263671875,-1267869965,0,0.7623167634010315,-0.180972620844841,0.8036482334136963,-22.3388671875,35.5224609375,-119.140625
0.414625883102417,-1267869967,1,0.5008586049079895,0.4660431444644928,0.9254169464111328,5.859375,-2.685546875,-113.95263671875
0.44341564178466797,-1267869946,0,0.7786741852760315,-0.130923792719841,0.7850935459136963,-25.146484375,70.37353515625,-122.00927734375
0.444807767868042,-1267869948,1,0.5433390736579895,0.3776642382144928,0.9434833526611328,0.9765625,25.5126953125,-126.64794921875
0.46800875663757324,-1267869910,0,0.6766234040260315,-0.101626917719841,0.8834822177886963,-10.43701171875,116.39404296875,-126.03759765625
0.4753379821777344,-1267869912,1,0.2755168080329895,0.4103790819644928,0.8836688995361328,4.5166015625,72.3876953125,-135.498046875
0.47543883323669434,-1267869893,1,0.2279093861579895,0.5173127055168152,0.9254169464111328,-22.52197265625,85.14404296875,-124.267578125
0.5006997585296631,-1267869891,0,0.6597777009010315,-0.010074179619550705,0.9657576084136963,-26.67236328125,129.21142578125,-121.7041015625
0.500708818435669,-1267869872,0,0.5445433259010315,0.3007168471813202,1.2863142490386963,16.9677734375,106.62841796875,-58.7158203125
0.5057008266448975,-1267869874,1,0.024296101182699203,0.3737579882144928,1.1951923370361328,-32.1044921875,112.3046875,-87.70751953125
0.5395839214324951,-1267869853,0,0.6055784821510315,0.2936367690563202,1.4913923740386963,49.4384765625,83.3740234375,11.1083984375
0.5395908355712891,-1267869834,0,0.4808226525783539,-0.106509730219841,1.2848494052886963,-15.5029296875,112.060546875,33.50830078125
0.5447218418121338,-1267869855,1,-0.3157917857170105,0.6127716898918152,1.1856708526611328,-1.28173828125,131.4697265625,-27.7099609375
0.5447287559509277,-1267869836,1,-0.6524617075920105,0.6384064555168152,1.4053974151611328,-26.123046875,99.4873046875,-22.5830078125
0.5588338375091553,-1267869815,0,0.2784300744533539,-0.231998011469841,1.1137068271636963,-48.64501953125,166.6259765625,-19.83642578125
0.5663349628448486,-1267869817,1,-0.2147175669670105,0.2719513475894928,0.9210224151611328,-58.7158203125,61.95068359375,-14.0380859375
0.5955069065093994,-1267869796,0,0.1566038876771927,-0.063785120844841,1.1110212802886963,-34.0576171875,156.6162109375,-75.1953125
0.5955138206481934,-1267869777,0,0.3524046838283539,-0.012759726494550705,1.2177107334136963,-9.21630859375,141.2353515625,-82.6416015625
0.5991158485412598,-1267869798,1,-0.2049519419670105,0.3117462694644928,0.8900165557861328,-29.23583984375,72.265625,-51.08642578125
0.5991270542144775,-1267869779,1,-0.2713581919670105,0.3981720507144928,0.9600849151611328,-20.08056640625,85.205078125,-34.11865234375
0.6179666519165039,-1267869758,0,0.3785277307033539,-0.206607386469841,1.3302595615386963,-13.5498046875,112.73193359375,-58.41064453125
0.6263048648834229,-1267869760,1,-0.3282429575920105,0.3864533007144928,1.1646747589111328,-60.60791015625,22.705078125,-6.8359375
0.6421468257904053,-1267869741,1,-0.2122761607170105,0.3378693163394928,1.1329364776611328,-60.11962890625,17.88330078125,38.818359375
0.6490418910980225,-1267869739,0,0.3550902307033539,-0.230777308344841,1.0783064365386963,-29.296875,118.34716796875,-5.67626953125
0.6491398811340332,-1267869720,0,0.4246703088283539,0.176693394780159,0.9586775302886963,-20.3857421875,137.20703125,12.63427734375
0.6562039852142334,-1267869722,1,-0.1226765513420105,-0.1064666211605072,1.1378192901611328,-28.25927734375,14.22119140625,78.43017578125
0.6907467842102051,-1267869701,0,0.053332407027482986,-0.031314413994550705,0.9591658115386963,-23.5595703125,136.23046875,-7.38525390625
0.6932170391082764,-1267869703,1,0.0665324330329895,-0.0659392774105072,0.8641376495361328,-5.4931640625,-9.3994140625,30.82275390625
0.6932258605957031,-1267869684,1,0.0072062574326992035,0.0995880663394928,0.7840595245361328,23.8037109375,-3.173828125,5.31005859375
0.7072257995605469,-1267869682,0,-0.0067261867225170135,-0.094790980219841,0.8319685459136963,-24.4140625,81.1767578125,-26.123046875
0.7438027858734131,-1267869646,0,0.2579222619533539,0.233334019780159,0.8239119052886963,26.67236328125,1.46484375,-15.56396484375
0.7438127994537354,-1267869627,0,0.2808714807033539,0.067562535405159,0.7269880771636963,43.9453125,-1.64794921875,30.09033203125
0.7462508678436279,-1267869648,1,0.053592976182699203,0.1886993944644928,0.7225360870361328,44.677734375,-4.8828125,0.9765625
0.7463557720184326,-1267869629,1,0.015751179307699203,0.3017365038394928,0.4632587432861328,32.89794921875,-10.68115234375,-2.38037109375
0.7688617706298828,-1267869608,0,0.1849242001771927,-0.137515589594841,0.6749861240386963,44.5556640625,59.38720703125,33.99658203125
0.774702787399292,-1267869610,1,-0.1050984263420105,0.3620392382144928,0.6204853057861328,23.5595703125,19.53125,27.7099609375
0.7747728824615479,-1267869591,1,-0.2862507700920105,0.3405548632144928,0.6966571807861328,-27.7099609375,31.6162109375,6.7138671875
0.8001918792724609,-1267869589,0,0.015246469527482986,-0.248843714594841,0.7875349521636963,15.07568359375,114.990234375,-8.6669921875
0.8002018928527832,-1267869570,0,-0.10487072169780731,-0.163882777094841,1.4252302646636963,-27.52685546875,120.7275390625,-50.6591796875
0.804872989654541,-1267869572,1,-0.2633015513420105,0.2326447069644928,0.8419208526611328,-36.07177734375,14.404296875,14.09912109375
0.8394477367401123,-1267869551,0,0.028918344527482986,-0.023257773369550705,1.1173689365386963,-34.60693359375,85.8154296875,-48.64501953125
0.843073844909668,-1267869553,1,-0.1461140513420105,0.0778595507144928,0.7928485870361328,-24.7802734375,-10.68115234375,21.54541015625
0.8430807590484619,-1267869534,1,-0.2779499888420105,0.1259552538394928,0.7935810089111328,-22.3388671875,0.30517578125,22.64404296875
0.8590278625488281,-1267869532,0,-0.010632436722517014,0.017513711005449295,1.0497419834136963,-5.55419921875,90.14892578125,-42.66357421875
0.8591597080230713,-1267869513,0,-0.1490601748228073,-0.086001917719841,1.0170271396636963,2.86865234375,79.833984375,-53.7109375
0.866182804107666,-1267869515,1,-0.3685261607170105,0.1911408007144928,0.8407001495361328,-22.8271484375,9.09423828125,26.9775390625
0.8953180313110352,-1267869494,0,-0.1663941591978073,-0.076968714594841,1.0516951084136963,7.99560546875,55.35888671875,-39.24560546875
0.8953278064727783,-1267869475,0,-0.026257436722517014,0.016781289130449295,1.2174665927886963,5.18798828125,-20.263671875,-18.6767578125
0.8958048820495605,-1267869496,1,-0.3907429575920105,0.1808868944644928,0.8992938995361328,-27.7099609375,15.2587890625,36.62109375
0.8958127498626709,-1267869477,1,-0.3433796763420105,0.1808868944644928,0.9976825714111328,-19.287109375,-0.3662109375,42.1142578125
0.917158842086792,-1267869456,0,0.010363657027482986,0.239681676030159,1.1332380771636963,-9.33837890625,-59.14306640625,-68.54248046875
0.9278469085693359,-1267869458,1,-0.2982136607170105,0.1369415819644928,0.8822040557861328,-20.44677734375,-22.8271484375,26.611328125
0.9481489658355713,-1267869437,0,0.2361937314271927,0.3055996596813202,1.0824568271636963,-68.4814453125,-64.51416015625,-135.07080078125
0.9481589794158936,-1267869418,0,0.2720824182033539,0.2880215346813202,0.9459822177886963,-101.4404296875,2.50244140625,-125.30517578125
0.9547410011291504,-1267869439,1,-0.2501179575920105,0.2775665819644928,0.7557392120361328,0.8544921875,-16.90673828125,54.74853515625
0.9547998905181885,-1267869420,1,-0.3321492075920105,0.3469025194644928,0.8385028839111328,18.9208984375,-1.0986328125,101.13525390625
0.9914638996124268,-1267869384,1,-0.1793171763420105,0.2980743944644928,0.9603290557861328,-22.39990234375,4.2724609375,77.81982421875
1.0081908702850342,-1267869382,0,0.07164295017719269,-0.079898402094841,0.9928572177886963,-28.86962890625,23.8037109375,-27.52685546875
1.0083067417144775,-1267869363,0,0.06993396580219269,0.123714879155159,0.9782087802886963,1.64794921875,22.3388671875,-23.37646484375
1.0150747299194336,-1267869365,1,-0.052364055067300797,0.1293732225894928,0.9769306182861328,-34.3017578125,28.74755859375,4.8828125
1.0441789627075195,-1267869344,0,0.023547250777482986,0.004574257880449295,0.9572126865386963,39.0625,5.126953125,-8.11767578125
1.0441868305206299,-1267869325,0,-0.1400269716978073,-0.169253870844841,1.1117537021636963,72.08251953125,-16.6015625,-1.953125
1.0454740524291992,-1267869346,1,0.1178019642829895,0.0812775194644928,0.8953876495361328,-14.46533203125,44.677734375,-27.89306640625
1.045557975769043,-1267869327,1,0.0968058705329895,0.1945587694644928,0.9251728057861328,27.52685546875,61.03515625,-48.52294921875
1.068809986114502,-1267869306,0,-0.08826915919780731,-0.040103476494550705,0.9840681552886963,87.158203125,-44.0673828125,37.2314453125
1.076066017150879,-1267869308,1,0.1168254017829895,0.3386017382144928,0.9732685089111328,43.212890625,38.39111328125,-15.31982421875
1.1025190353393555,-1267869287,0,-0.030651967972517014,0.166439488530159,1.3339216709136963,81.11572265625,-27.03857421875,29.23583984375
1.1025300025939941,-1267869268,0,-0.08997814357280731,-0.010806601494550705,1.4955427646636963,48.88916015625,-24.59716796875,47.8515625
1.106339693069458,-1267869289,1,0.1910441517829895,0.4162384569644928,0.8924579620361328,61.6455078125,13.671875,33.02001953125
1.1064438819885254,-1267869270,1,0.058475788682699203,0.3871857225894928,0.8436298370361328,68.7255859375,-3.90625,47.4853515625
1.1385488510131836,-1267869249,0,-0.2393922060728073,0.070736363530159,1.2658064365386963,53.52783203125,15.44189453125,79.345703125
1.1409437656402588,-1267869251,1,0.1895793080329895,0.3779083788394928,0.7159442901611328,28.74755859375,-16.90673828125,-21.1181640625
1.1409516334533691,-1267869232,1,-0.044551555067300797,0.4535919725894928,0.7989521026611328,25.81787109375,13.7939453125,-58.349609375
1.1590027809143066,-1267869230,0,-0.5704469084739685,0.3195156753063202,1.3341658115386963,65.0634765625,57.9833984375,-11.53564453125
1.1591277122497559,-1267869211,0,-0.3680543005466461,0.176937535405159,1.3612654209136963,62.3779296875,45.34912109375,1.28173828125
1.1661827564239502,-1267869213,1,-0.011592570692300797,0.6047150492668152,0.8009052276611328,-19.775390625,-13.48876953125,-47.4853515625
1.1953070163726807,-1267869192,0,-0.2196168154478073,0.176449254155159,1.3043806552886963,71.2890625,66.22314453125,49.072265625
1.1953189373016357,-1267869173,0,-0.1434449404478073,0.220638707280159,1.3251326084136963,98.44970703125,91.552734375,44.677734375
1.1957988739013672,-1267869194,1,0.1192668080329895,0.5810334086418152,0.9119892120361328,-80.87158203125,-28.9306640625,13.5498046875
1.1958069801330566,-1267869175,1,0.1981242299079895,0.4311310350894928,1.1917743682861328,-107.36083984375,3.41796875,65.24658203125
1.218066930770874,-1267869154,0,-0.2435425966978073,0.4252285659313202,1.2777693271636963,104.248046875,87.40234375,42.96875
1.2260937690734863,-1267869156,1,-0.1497761607170105,0.1677033007144928,1.1778583526611328,-98.5107421875,11.16943359375,47.36328125
1.2471957206726074,-1267869118,0,-0.1768922060728073,0.4078945815563202,1.3151228427886963,64.3310546875,119.93408203125,61.5234375
1.2563788890838623,-1267869120,1,-0.1102253794670105,0.2155548632144928,1.1434345245361328,-30.1513671875,-2.197265625,0.244140625
1.2925057411193848,-1267869099,0,-0.10511486232280731,0.4479336440563202,1.1481306552886963,50.47607421875,137.0849609375,41.56494140625
1.2941968441009521,-1267869101,1,-0.2083699107170105,0.3674103319644928,1.1617450714111328,-19.775390625,33.87451171875,14.22119140625
1.294203758239746,-1267869082,1,-0.3030964732170105,0.2765900194644928,1.2352313995361328,-19.34814453125,24.71923828125,9.8876953125
1.3074097633361816,-1267869080,0,-0.1754273623228073,0.4110684096813202,1.0004255771636963,33.3251953125,132.32421875,4.69970703125
1.3074889183044434,-1267869061,0,-0.1295289248228073,0.4022793471813202,1.0197126865386963,17.51708984375,96.435546875,-9.82666015625
1.3173418045043945,-1267869063,1,-0.1651570200920105,0.3381134569644928,1.1744403839111328,-17.9443359375,2.197265625,-1.953125
1.3442738056182861,-1267869042,0,-0.07386486232280731,0.4435391128063202,0.9601423740386963,15.44189453125,83.06884765625,-19.22607421875
1.3442816734313965,-1267869023,0,-0.09583751857280731,0.3978848159313202,0.9303572177886963,16.11328125,77.63671875,-37.59765625
1.3448169231414795,-1267869044,1,-0.2374226450920105,0.4535919725894928,1.0250263214111328,-17.08984375,14.2822265625,1.15966796875
1.344822883605957,-1267869025,1,-0.2352253794670105,0.4814240038394928,0.9151630401611328,-5.2490234375,32.5927734375,50.47607421875
1.3672237396240234,-1267869004,0,-0.10975353419780731,0.4332852065563202,0.8893415927886963,13.427734375,74.21875,-17.08984375
1.3747308254241943,-1267869006,1,-0.1202351450920105,0.3124786913394928,0.8990497589111328,27.89306640625,49.37744140625,103.515625
1.3980998992919922,-1267868985,0,-0.08582775294780731,0.5502285361289978,0.8119490146636963,4.08935546875,68.84765625,-8.48388671875
1.3982288837432861,-1267868966,0,-0.1385621279478073,0.5621914267539978,0.8126814365386963,-8.7890625,52.55126953125,-15.13671875
1.406404733657837,-1267868987,1,0.012333210557699203,0.2336212694644928,1.0152606964111328,83.984375,27.52685546875,117.7978515625
1.4065139293670654,-1267868968,1,0.2095988392829895,0.2861115038394928,0.8795185089111328,126.28173828125,-3.662109375,120.91064453125
1.440140962600708,-1267868947,0,-0.1842164248228073,0.6742519736289978,0.7872908115386963,-35.2783203125,31.92138671875,-46.20361328125
1.441741704940796,-1267868949,1,0.010868366807699203,0.4230743944644928,0.7511005401611328,130.06591796875,-6.04248046875,137.20703125
1.4417479038238525,-1267868930,1,-0.2398640513420105,0.4767853319644928,0.5487079620361328,158.75244140625,34.3017578125,145.263671875
1.4573979377746582,-1267868928,0,-0.2227906435728073,0.5907558798789978,0.8324568271636963,-55.7861328125,13.97705078125,-89.78271484375
1.457519769668579,-1267868909,0,-0.4486207067966461,0.3453945815563202,0.8070662021636963,-58.59375,-6.28662109375,-112.79296875
1.4646408557891846,-1267868911,1,0.1815226674079895,0.5744416117668152,0.5101337432861328,138.427734375,36.4990234375,29.541015625
1.494551658630371,-1267868890,0,-0.2879761755466461,0.134457066655159,0.8373396396636963,-35.64453125,-9.521484375,-126.708984375
1.495065689086914,-1267868892,1,-0.036494914442300797,0.5993439555168152,0.4981708526611328,131.103515625,-10.1318359375,-9.6435546875
1.5187866687774658,-1267868854,0,-0.3990601599216461,0.3107266128063202,0.7997419834136963,48.828125,-32.28759765625,-53.40576171875
1.5252127647399902,-1267868856,1,-0.1561238169670105,0.4445587694644928,0.9080829620361328,113.1591796875,-87.95166015625,77.392578125
1.5489180088043213,-1267868835,0,-0.4930543005466461,0.147640660405159,0.8859236240386963,85.38818359375,-36.19384765625,-31.982421875
1.5490906238555908,-1267868816,0,-0.3426636755466461,0.2929043471813202,1.0062849521636963,95.03173828125,-48.583984375,-31.005859375
1.5564618110656738,-1267868837,1,-0.3038288950920105,0.3527618944644928,0.9320087432861328,80.62744140625,-86.24267578125,103.8818359375
1.5565738677978516,-1267868818,1,0.6512492299079895,1.7741485834121704,-0.6561260223388672,66.0400390625,-177.79541015625,139.70947265625
1.5931966304779053,-1267868797,0,-0.2262086123228073,0.3905605971813202,1.0770857334136963,44.61669921875,-47.7294921875,2.01416015625
1.5941197872161865,-1267868799,1,-0.1107136607170105,0.8256623148918152,0.5814228057861328,-1.708984375,-20.751953125,23.25439453125
1.5941267013549805,-1267868780,1,0.0948527455329895,0.6044709086418152,0.7723407745361328,-43.76220703125,-15.31982421875,61.21826171875
1.608940601348877,-1267868778,0,-0.3419312536716461,0.3087734878063202,1.1349470615386963,3.0517578125,-30.45654296875,39.61181640625
1.6090848445892334,-1267868759,0,-0.3165406286716461,0.4125332534313202,1.1027204990386963,-27.40478515625,-12.6953125,63.1103515625
1.6153678894042969,-1267868761,1,-0.012813273817300797,0.6076447367668152,0.7696552276611328,-52.91748046875,15.13671875,50.72021484375
1.6421477794647217,-1267868740,0,-0.2835816442966461,0.4115566909313202,1.1139509677886963,-41.19873046875,-14.22119140625,92.46826171875
1.6462748050689697,-1267868742,1,-0.0921589732170105,0.6139923930168152,0.9122333526611328,-56.884765625,28.9306640625,-5.0048828125
1.646352767944336,-1267868723,1,-0.1234089732170105,0.5937287211418152,0.9598407745361328,-63.04931640625,10.009765625,-57.4951171875
1.668949842453003,-1267868721,0,-0.2953003942966461,0.4313320815563202,1.1832869052886963,-53.5888671875,-43.9453125,134.21630859375
1.6690168380737305,-1267868702,0,-0.5770387053489685,0.5487636923789978,1.1774275302886963,-56.09130859375,-69.82421875,154.84619140625
1.688506841659546,-1267868704,1,-0.053584758192300797,0.4343048632144928,0.8812274932861328,-82.275390625,-35.400390625,-62.3779296875
1.6981737613677979,-1267868683,0,-0.032605092972517014,0.4352383315563202,1.1329939365386963,-62.80517578125,-86.85302734375,142.02880859375
1.6982529163360596,-1267868664,0,-0.2161988466978073,0.5617031455039978,1.2640974521636963,-107.48291015625,29.296875,109.375
1.7071278095245361,-1267868685,1,-0.0980183482170105,0.4716583788394928,0.7608661651611328,-80.26123046875,-78.79638671875,-9.70458984375
1.7071380615234375,-1267868666,1,-0.019893351942300797,0.5700470805168152,0.7564716339111328,-82.09228515625,-80.26123046875,-7.87353515625
1.740398645401001,-1267868645,0,-0.09632579982280731,0.152279332280159,1.0658552646636963,-109.0087890625,60.11962890625,141.9677734375
1.742722749710083,-1267868647,1,0.1854289174079895,0.5749298930168152,0.8074970245361328,-72.8759765625,-53.7109375,-4.94384765625
1.758779764175415,-1267868626,0,-0.3717164099216461,0.2855801284313202,1.1491072177886963,-19.22607421875,76.35498046875,73.66943359375
1.7661969661712646,-1267868628,1,0.1602824330329895,0.4811798632144928,0.8809833526611328,-64.8193359375,-23.01025390625,9.46044921875
1.7923829555511475,-1267868590,0,-0.3426636755466461,0.239681676030159,1.1515486240386963,51.45263671875,13.5498046875,100.76904296875
1.797374963760376,-1267868592,1,0.030399616807699203,0.2277618944644928,1.0762958526611328,-16.4794921875,-21.17919921875,-16.90673828125
1.7973837852478027,-1267868573,1,0.0704386830329895,0.2724396288394928,1.0606708526611328,14.09912109375,-49.25537109375,-34.48486328125
1.8173880577087402,-1267868571,0,-0.2518433630466461,0.3466152846813202,1.1100447177886963,69.15283203125,59.4482421875,106.38427734375
1.8175768852233887,-1267868552,0,-0.1524781435728073,0.3217129409313202,0.9794294834136963,65.12451171875,17.27294921875,140.0146484375
1.82499098777771,-1267868554,1,0.1788371205329895,0.4306427538394928,1.0487079620361328,26.0009765625,-60.11962890625,-23.193359375
1.8473548889160156,-1267868533,0,-0.2411011904478073,0.3673672378063202,0.9428083896636963,77.5146484375,19.1650390625,96.37451171875
1.8474769592285156,-1267868514,0,-0.1952027529478073,0.3707852065563202,0.9828474521636963,96.6796875,-23.0712890625,60.9130859375
1.8547158241271973,-1267868535,1,0.1851847767829895,0.4118439257144928,1.0052509307861328,20.20263671875,-41.748046875,-8.1787109375
1.8548049926757812,-1267868516,1,0.1029093861579895,0.3849884569644928,0.9818134307861328,19.6533203125,-31.92138671875,-6.2255859375
1.890617847442627,-1267868495,0,-0.2042359560728073,0.4088711440563202,1.0494978427886963,121.4599609375,-44.00634765625,29.1748046875
1.8938088417053223,-1267868497,1,0.2139933705329895,0.4452911913394928,0.8985614776611328,17.08984375,-17.76123046875,-32.71484375
1.9082067012786865,-1267868476,0,-0.1600465029478073,0.4930996596813202,1.0075056552886963,127.62451171875,1.953125,42.8466796875
1.9083199501037598,-1267868457,0,-0.08338634669780731,0.5568203330039978,0.9298689365386963,110.90087890625,49.4384765625,42.1142578125
1.9157018661499023,-1267868478,1,0.0928996205329895,0.4001251757144928,0.8646259307861328,1.89208984375,11.5966796875,-63.3544921875
1.9157817363739014,-1267868459,1,0.046268757432699203,0.4316193163394928,0.7840595245361328,24.71923828125,-4.69970703125,-21.66748046875
1.943065881729126,-1267868438,0,-0.07923595607280731,0.5485195517539978,0.9000837802886963,78.91845703125,69.03076171875,2.01416015625
1.9463188648223877,-1267868440,1,0.1204875111579895,0.4472443163394928,0.8316669464111328,33.26416015625,-3.2958984375,-1.77001953125
1.946448802947998,-1267868421,1,0.1307414174079895,0.4162384569644928,0.8531513214111328,39.97802734375,0.06103515625,-4.21142578125
1.967261791229248,-1267868419,0,-0.2247437685728073,0.5145840048789978,0.9005720615386963,65.00244140625,40.34423828125,14.5263671875
1.9674007892608643,-1267868400,0,-0.1737183779478073,0.5106777548789978,0.9093611240386963,82.1533203125,11.16943359375,29.72412109375
1.974599838256836,-1267868402,1,0.1732218861579895,0.4389435350894928,0.8587665557861328,38.57421875,-1.40380859375,-13.61083984375
1.997297763824463,-1267868381,0,-0.09388439357280731,0.5997890830039978,0.8981306552886963,97.10693359375,10.19287109375,41.6259765625
2.0052077770233154,-1267868383,1,0.2432902455329895,0.4618927538394928,0.8826923370361328,37.90283203125,5.4931640625,-28.3203125
2.0053329467773438,-1267868364,1,0.2215617299079895,0.5597931742668152,0.8267841339111328,40.71044921875,1.5869140625,-28.99169921875
2.039642810821533,-1267868362,0,-0.08021251857280731,0.7167324423789978,0.8993513584136963,88.37890625,40.22216796875,32.65380859375
2.0577468872070312,-1267868326,0,-0.09925548732280731,0.7218593955039978,0.7621443271636963,42.66357421875,59.63134765625,20.56884765625
2.057872772216797,-1267868307,0,-0.007946889847517014,0.7311367392539978,0.7362654209136963,39.48974609375,23.62060546875,32.04345703125
2.0906119346618652,-1267868288,0,0.045275766402482986,0.7916836142539978,0.7240583896636963,37.78076171875,14.95361328125,32.2265625
2.098101854324341,-1267868328,1,0.2640421986579895,0.5234162211418152,0.7830829620361328,33.69140625,-4.0283203125,-25.93994140625
2.0981109142303467,-1267868309,1,0.2828410267829895,0.5846955180168152,0.7237567901611328,41.1376953125,3.47900390625,-32.3486328125
2.1173880100250244,-1267868269,0,-0.052136342972517014,0.8104824423789978,0.7345564365386963,30.8837890625,16.11328125,27.77099609375
2.117485761642456,-1267868250,0,0.050402719527482986,0.8961758017539978,0.7553083896636963,24.47509765625,21.91162109375,25.32958984375
2.124964714050293,-1267868290,1,0.2723429799079895,0.6401154398918152,0.7449970245361328,37.78076171875,13.18359375,-26.79443359375
2.1250827312469482,-1267868271,1,0.2323039174079895,0.6818634867668152,0.7249774932861328,32.1044921875,26.611328125,-5.2490234375
2.1251447200775146,-1267868252,1,0.2249796986579895,0.5861603617668152,0.7281513214111328,27.099609375,20.5078125,20.01953125
2.148038864135742,-1267868231,0,0.051623422652482986,0.8993496298789978,0.7396833896636963,10.80322265625,24.4140625,12.26806640625
2.154831886291504,-1267868233,1,0.2750285267829895,0.5107209086418152,0.7845478057861328,26.2451171875,5.06591796875,4.7607421875
2.154911994934082,-1267868214,1,0.2296183705329895,0.5024201273918152,0.7474384307861328,27.099609375,-6.591796875,-12.87841796875
2.190438747406006,-1267868212,0,0.08140857517719269,0.8812832236289978,0.6671736240386963,5.0048828125,12.3291015625,6.2255859375
2.1904456615448,-1267868193,0,0.056750375777482986,0.7885097861289978,0.6571638584136963,-2.5634765625,-8.72802734375,5.7373046875
2.1944568157196045,-1267868195,1,0.2274211049079895,0.6098420023918152,0.6881122589111328,30.57861328125,-8.23974609375,-16.11328125
2.208906888961792,-1267868174,0,0.043810922652482986,0.7626308798789978,0.7565290927886963,-10.3759765625,-18.1884765625,25.93994140625
2.2090208530426025,-1267868155,0,0.09508045017719269,0.8246425986289978,0.7758162021636963,-3.2958984375,-2.99072265625,22.0947265625
2.215519905090332,-1267868176,1,0.1527140736579895,0.6266877055168152,0.7005634307861328,45.22705078125,-15.380859375,11.23046875
2.2156288623809814,-1267868157,1,0.3187296986579895,0.8075959086418152,0.6595478057861328,27.89306640625,-14.6484375,28.50341796875
2.2460548877716064,-1267868136,0,0.10484607517719269,0.8527187705039978,0.7982771396636963,-2.50244140625,12.26806640625,5.615234375
2.247513771057129,-1267868138,1,0.3519328236579895,0.6916291117668152,0.7022724151611328,7.080078125,-21.42333984375,33.3251953125
2.269242763519287,-1267868117,0,0.013293344527482986,0.7887539267539978,0.7282087802886963,2.13623046875,14.2822265625,-18.73779296875
2.269251823425293,-1267868098,0,-0.059216421097517014,0.7731289267539978,0.6830427646636963,-1.52587890625,3.60107421875,-16.41845703125
2.289000988006592,-1267868119,1,0.3795207142829895,0.6010529398918152,0.6541767120361328,8.6669921875,-26.4892578125,8.36181640625
2.2890138626098633,-1267868100,1,0.2581828236579895,0.5878693461418152,0.7066669464111328,4.8828125,-15.44189453125,2.99072265625
2.303989887237549,-1267868064,1,0.2825968861579895,0.6523224711418152,0.7718524932861328,15.2587890625,1.708984375,35.5224609375
2.3382818698883057,-1267868062,0,-0.017468374222517014,0.8248867392539978,0.7355329990386963,-21.1181640625,-8.1787109375,-10.1318359375
2.3382887840270996,-1267868043,0,0.0076781101524829865,0.8419765830039978,0.7401716709136963,-21.54541015625,1.8310546875,-20.5078125
2.3400557041168213,-1267868045,1,0.2865031361579895,0.7521759867668152,0.7535419464111328,15.93017578125,-13.916015625,12.3291015625
2.357322931289673,-1267868024,0,-0.0064820460975170135,0.8551601767539978,0.7394392490386963,-23.0712890625,9.21630859375,-28.1982421875
2.357454776763916,-1267868005,0,-0.057019155472517014,0.7792324423789978,0.7152693271636963,-27.64892578125,13.7939453125,-25.45166015625
2.3646888732910156,-1267868026,1,0.3148234486579895,0.7468048930168152,0.7349872589111328,-1.3427734375,-22.3388671875,5.79833984375
2.3647258281707764,-1267868007,1,0.2923625111579895,0.7543732523918152,0.7039813995361328,-1.3427734375,-13.7939453125,-8.1787109375
2.394171714782715,-1267867986,0,-0.09949962794780731,0.7599453330039978,0.7081892490386963,-30.6396484375,14.58740234375,-12.0849609375
2.394648790359497,-1267867988,1,0.2139933705329895,0.7092072367668152,0.6243915557861328,-7.26318359375,10.8642578125,-4.45556640625
2.417381763458252,-1267867967,0,-0.060681264847517014,0.8024258017539978,0.6991560459136963,-33.02001953125,13.24462890625,3.662109375
2.417447805404663,-1267867948,0,-0.046276967972517014,0.8241543173789978,0.6959822177886963,-36.07177734375,-1.3427734375,-8.056640625
2.424535036087036,-1267867969,1,0.2191203236579895,0.7277619242668152,0.5792255401611328,-23.4375,29.23583984375,1.953125
2.4247498512268066,-1267867950,1,0.2191203236579895,0.7006623148918152,0.5167255401611328,-48.2177734375,43.5791015625,-2.9296875
2.449265718460083,-1267867929,0,-0.032605092972517014,0.8917812705039978,0.7064802646636963,-50.23193359375,-3.84521484375,-22.27783203125
2.4549779891967773,-1267867931,1,0.1583293080329895,0.6440216898918152,0.4559345245361328,-59.326171875,50.29296875,-2.86865234375
2.4550747871398926,-1267867912,1,0.1065714955329895,0.5859162211418152,0.4390888214111328,-69.39697265625,46.44775390625,10.7421875
2.489689826965332,-1267867910,0,-0.009655874222517014,0.9406093955039978,0.6505720615386963,-83.67919921875,-2.13623046875,-48.095703125
2.4896979331970215,-1267867891,0,-0.0037964992225170135,0.8842129111289978,0.6227400302886963,-121.27685546875,6.7138671875,-68.29833984375
2.4939768314361572,-1267867893,1,0.1036418080329895,0.4899689257144928,0.4490985870361328,-69.580078125,49.8046875,18.24951171875
2.5074288845062256,-1267867872,0,-0.0037964992225170135,0.7470058798789978,0.6566755771636963,-167.48046875,25.93994140625,-75.50048828125
2.507492780685425,-1267867853,0,0.055529672652482986,0.6708340048789978,0.7179548740386963,-188.4765625,57.7392578125,-85.26611328125
2.5148417949676514,-1267867874,1,0.1075480580329895,0.4926544725894928,0.5360126495361328,-73.73046875,70.12939453125,27.9541015625
2.514908790588379,-1267867855,1,-0.2430378794670105,0.4428497850894928,0.6153583526611328,-101.07421875,5.126953125,79.4677734375
2.5461068153381348,-1267867834,0,-0.08265392482280731,0.5629238486289978,0.7611677646636963,-203.91845703125,69.03076171875,-149.59716796875
2.5491509437561035,-1267867836,1,0.4727824330329895,0.4069611132144928,0.7620868682861328,-127.3193359375,-26.42822265625,107.421875
2.5671958923339844,-1267867798,0,-0.2098511904478073,0.4916348159313202,0.8324568271636963,-179.6875,-20.263671875,-140.5029296875
2.5745279788970947,-1267867800,1,0.3824504017829895,0.3793732225894928,0.8414325714111328,-48.583984375,111.75537109375,17.7001953125
2.5972506999969482,-1267867779,0,-0.2862671911716461,0.3912930190563202,0.9494001865386963,-182.9833984375,-31.67724609375,-156.06689453125
2.6052968502044678,-1267867781,1,0.2999308705329895,0.2741486132144928,0.8575458526611328,-26.55029296875,103.94287109375,37.841796875
2.6053969860076904,-1267867762,1,0.2672160267829895,0.2975861132144928,0.9722919464111328,-31.79931640625,128.41796875,49.86572265625
2.638593912124634,-1267867760,0,-0.3800171911716461,0.3659023940563202,1.1788923740386963,-181.2744140625,-66.10107421875,-180.5419921875
2.6386008262634277,-1267867741,0,-0.2765015661716461,0.123714879155159,1.0250837802886963,-189.75830078125,-85.87646484375,-157.16552734375
2.6419219970703125,-1267867743,1,0.1612589955329895,0.3925568163394928,1.1014423370361328,-41.56494140625,143.98193359375,57.2509765625
2.6588709354400635,-1267867722,0,-0.1309937685728073,-0.3189120590686798,0.9577009677886963,-155.2734375,-74.5849609375,-144.34814453125
2.6589548587799072,-1267867703,0,-0.4749878942966461,-0.2625155746936798,1.0624372959136963,-56.7626953125,-43.212890625,-117.919921875
2.666297674179077,-1267867724,1,-0.0052449144423007965,0.3847443163394928,1.1654071807861328,-34.72900390625,141.29638671875,68.90869140625
2.6664156913757324,-1267867705,1,-0.1361042857170105,0.4164825975894928,1.1558856964111328,-46.56982421875,86.181640625,82.33642578125
2.6938629150390625,-1267867684,0,-0.5328492522239685,-0.3579745590686798,1.2662947177886963,18.798828125,-109.9853515625,-29.11376953125
2.696415901184082,-1267867686,1,-0.045283976942300797,0.2145783007144928,1.0933856964111328,-48.76708984375,51.26953125,53.7109375
2.7174577713012695,-1267867665,0,-0.09559337794780731,0.078793004155159,1.1432478427886963,86.85302734375,-152.34375,3.662109375
2.717615842819214,-1267867646,0,-0.1473511904478073,0.140804722905159,1.1950056552886963,111.14501953125,-140.07568359375,4.21142578125
2.7249300479888916,-1267867667,1,-0.0677449107170105,0.1796661913394928,1.1231708526611328,-22.216796875,42.3583984375,26.55029296875
2.725024938583374,-1267867648,1,-0.4114949107170105,0.2448517382144928,1.1046161651611328,4.39453125,25.08544921875,-7.87353515625
2.748015880584717,-1267867627,0,-0.1915406435728073,0.135921910405159,1.1383650302886963,119.07958984375,-126.953125,1.89208984375
2.7547338008880615,-1267867629,1,0.0015910230576992035,0.3930450975894928,1.2679462432861328,-10.07080078125,-17.63916015625,-9.8876953125
2.7548327445983887,-1267867610,1,-0.017451945692300797,0.4584747850894928,1.0799579620361328,-29.78515625,-17.2119140625,44.189453125
2.788651943206787,-1267867608,0,0.1644163876771927,0.3082852065563202,1.4015486240386963,93.44482421875,-177.24609375,52.3681640625
2.7886598110198975,-1267867589,0,0.1685667783021927,0.4056973159313202,1.2316267490386963,31.73828125,-75.0732421875,104.6142578125
2.7920548915863037,-1267867591,1,-0.0843464732170105,0.4282013475894928,1.0606708526611328,-32.65380859375,-77.33154296875,65.97900390625
2.807407855987549,-1267867570,0,0.06968982517719269,0.4979824721813202,1.3700544834136963,-8.7890625,-29.78515625,132.62939453125
2.8148579597473145,-1267867572,1,0.2425578236579895,0.3906036913394928,1.0152606964111328,-19.775390625,-125.244140625,61.1572265625
2.845216989517212,-1267867534,0,0.08360584080219269,0.4743008315563202,1.4147322177886963,-87.46337890625,50.96435546875,108.154296875
2.846658706665039,-1267867536,1,0.3060343861579895,0.1579376757144928,0.7222919464111328,99.79248046875,69.15283203125,20.08056640625
2.8673908710479736,-1267867515,0,-0.1363648623228073,0.4530605971813202,1.2843611240386963,-108.21533203125,73.91357421875,99.18212890625
2.867523670196533,-1267867496,0,-0.033093374222517014,0.2514004409313202,1.1002790927886963,-86.73095703125,90.63720703125,88.43994140625
2.8963329792022705,-1267867477,0,-0.2869996130466461,0.3075527846813202,1.1620466709136963,-46.875,109.619140625,9.94873046875
2.9052798748016357,-1267867517,1,0.059696491807699203,0.2387482225894928,0.7540302276611328,116.39404296875,89.17236328125,-21.30126953125
2.905367612838745,-1267867498,1,0.2325480580329895,0.3032013475894928,0.8184833526611328,77.08740234375,56.2744140625,-73.91357421875
2.905444860458374,-1267867479,1,-0.3070027232170105,0.5290314555168152,0.9327411651611328,31.3720703125,31.6162109375,-86.60888671875
2.9061098098754883,-1267867460,1,-0.2769734263420105,0.6647736430168152,1.0096454620361328,-5.67626953125,-5.7373046875,-19.4091796875
2.939279794692993,-1267867458,0,-0.2813843786716461,0.2545742690563202,1.1283552646636963,-29.11376953125,111.9384765625,20.08056640625
2.939286947250366,-1267867439,0,-0.3382691442966461,0.3602871596813202,1.2260115146636963,-14.09912109375,98.69384765625,48.095703125
2.94183087348938,-1267867441,1,-0.0709187388420105,0.4474884569644928,1.0094013214111328,-18.12744140625,-11.3525390625,4.638671875
2.9579756259918213,-1267867420,0,-0.5096558928489685,0.060726601630449295,1.2001326084136963,53.8330078125,72.998046875,100.40283203125
2.9663498401641846,-1267867422,1,0.011844929307699203,0.4460236132144928,1.0084247589111328,7.01904296875,11.71875,-36.376953125
2.96645188331604,-1267867403,1,-0.2252156138420105,0.6020295023918152,1.1190204620361328,-0.79345703125,3.11279296875,-71.96044921875
2.9934027194976807,-1267867401,0,-0.3236207067966461,0.4933438003063202,1.1515486240386963,82.763671875,75.13427734375,115.78369140625
2.99341082572937,-1267867382,0,-0.2293824404478073,0.7030605673789978,1.2077009677886963,68.603515625,46.2646484375,85.205078125
2.9961509704589844,-1267867384,1,-0.3836628794670105,0.8324982523918152,1.2349872589111328,-23.01025390625,-29.052734375,-41.259765625
3.0174126625061035,-1267867363,0,-0.1798218935728073,0.7079433798789978,1.2052595615386963,44.37255859375,47.05810546875,24.84130859375
3.0175228118896484,-1267867344,0,-0.2801636755466461,0.7284511923789978,1.0765974521636963,22.39990234375,84.41162109375,11.962890625
3.024608850479126,-1267867365,1,-0.2808796763420105,0.8515412211418152,1.2357196807861328,-32.40966796875,-46.630859375,32.89794921875
3.024695634841919,-1267867346,1,-0.1666218638420105,0.7949005961418152,1.1905536651611328,-3.90625,-20.20263671875,44.61669921875
3.048661947250366,-1267867325,0,-0.2420777529478073,0.6805996298789978,1.1005232334136963,10.25390625,97.0458984375,14.0380859375
3.054705858230591,-1267867327,1,-0.0745808482170105,0.7905060648918152,1.1441669464111328,28.076171875,19.10400390625,15.5029296875
3.0888938903808594,-1267867306,0,-0.1890992373228073,0.6278652548789978,1.1581404209136963,-9.82666015625,129.69970703125,-13.7939453125
3.091592788696289,-1267867308,1,-0.041621867567300797,0.8227326273918152,1.1077899932861328,35.58349609375,32.3486328125,-13.00048828125
3.1072769165039062,-1267867270,0,-0.3563355505466461,0.3854336440563202,1.1984236240386963,-1.15966796875,105.40771484375,-96.98486328125
3.114853858947754,-1267867272,1,-0.1592976450920105,0.8512970805168152,1.1287860870361328,3.35693359375,-12.75634765625,25.08544921875
3.1149637699127197,-1267867253,1,-0.033321086317300797,0.6247345805168152,1.0919208526611328,6.4697265625,-22.52197265625,53.52783203125
3.145847797393799,-1267867251,0,-0.3941773474216461,0.241390660405159,1.1522810459136963,26.0009765625,55.60302734375,-84.9609375
3.1458580493927,-1267867232,0,-0.4691285192966461,0.183041051030159,1.1596052646636963,30.1513671875,6.9580078125,-67.626953125
3.146298885345459,-1267867234,1,0.1595500111579895,0.5702912211418152,1.0662860870361328,-9.3994140625,-1.89208984375,31.43310546875
3.1673598289489746,-1267867213,0,-0.6136597990989685,0.177914097905159,1.1791365146636963,15.68603515625,-21.91162109375,-44.189453125
3.167379856109619,-1267867194,0,-0.5240601897239685,0.247005894780159,1.1234724521636963,-7.8125,-65.61279296875,-15.07568359375
3.177975654602051,-1267867215,1,0.1502726674079895,0.3581329882144928,1.0230731964111328,29.1748046875,20.69091796875,-7.01904296875
3.1779849529266357,-1267867196,1,0.1876261830329895,0.3962189257144928,1.0401630401611328,35.0341796875,26.91650390625,-25.93994140625
3.1992549896240234,-1267867175,0,-0.1541871279478073,0.065853551030159,1.2035505771636963,-29.1748046875,-52.18505859375,-35.7666015625
3.2048628330230713,-1267867177,1,0.0631144642829895,0.4626251757144928,1.0589618682861328,45.34912109375,4.57763671875,-37.90283203125
3.2395949363708496,-1267867156,0,-0.2030152529478073,0.121029332280159,1.1906111240386963,-28.99169921875,-33.447265625,-18.49365234375
3.2405717372894287,-1267867137,0,-0.2474488466978073,0.074642613530159,1.1327497959136963,-20.1416015625,-16.11328125,-4.82177734375
3.242274761199951,-1267867158,1,0.1939738392829895,0.4531036913394928,0.9302997589111328,50.96435546875,-21.1181640625,-31.73828125
3.242280960083008,-1267867139,1,0.1370890736579895,0.4242950975894928,0.8687763214111328,53.22265625,-9.8876953125,-34.3017578125
3.257227897644043,-1267867118,0,-0.2472047060728073,-0.073794886469841,1.1137068271636963,10.498046875,20.93505859375,-2.38037109375
3.2647688388824463,-1267867120,1,0.1541789174079895,0.4596954882144928,0.8497333526611328,46.81396484375,-5.37109375,-35.46142578125
3.264875888824463,-1267867101,1,0.2095988392829895,0.4289337694644928,0.8304462432861328,34.11865234375,-0.54931640625,-32.2265625
3.294605016708374,-1267867099,0,-0.2852906286716461,-0.003482382744550705,1.2013533115386963,15.2587890625,30.1513671875,50.78125
3.29461669921875,-1267867080,0,-0.3026246130466461,0.118099644780159,1.0868513584136963,3.35693359375,18.4326171875,117.37060546875
3.2951338291168213,-1267867082,1,0.2147257924079895,0.2724396288394928,0.8487567901611328,21.97265625,2.50244140625,-41.015625
3.3172757625579834,-1267867061,0,-0.2752808630466461,0.2968105971813202,1.0138533115386963,3.173828125,28.38134765625,96.61865234375
3.3248987197875977,-1267867063,1,0.2010539174079895,0.2248322069644928,0.8433856964111328,21.78955078125,-14.2822265625,-61.4013671875
3.324971914291382,-1267867044,1,0.1832316517829895,0.2949005663394928,0.7948017120361328,25.7568359375,2.38037109375,-62.255859375
3.352252721786499,-1267867042,0,-0.10877697169780731,0.2504238784313202,1.0895369052886963,18.310546875,25.20751953125,2.62451171875
3.376603841781616,-1267867006,0,-0.2454957216978073,0.122250035405159,1.0809919834136963,52.42919921875,17.76123046875,-13.427734375
3.3882038593292236,-1267866987,0,-0.3661011755466461,0.2604336440563202,0.9494001865386963,59.02099609375,21.97265625,5.615234375
3.389979839324951,-1267867008,1,0.1278117299079895,0.2507111132144928,0.8377704620361328,32.958984375,28.38134765625,-39.00146484375
3.389986038208008,-1267866989,1,0.1402629017829895,0.2018829882144928,0.8536396026611328,41.259765625,47.30224609375,-42.41943359375
3.4072368144989014,-1267866968,0,-0.1302613466978073,0.2794766128063202,0.9630720615386963,50.35400390625,7.50732421875,26.55029296875
3.4149539470672607,-1267866970,1,-0.036983195692300797,0.3239533007144928,0.7569599151611328,49.25537109375,59.75341796875,-53.1005859375
3.415019989013672,-1267866951,1,-0.3048054575920105,0.4220978319644928,0.7044696807861328,55.2978515625,77.7587890625,-47.79052734375
3.4471700191497803,-1267866949,0,0.028430063277482986,0.3046230971813202,0.9515974521636963,34.60693359375,12.14599609375,23.01025390625
3.447178840637207,-1267866930,0,-0.06434337794780731,0.2582363784313202,0.9269392490386963,26.0009765625,16.90673828125,-15.44189453125
3.447190046310425,-1267866932,1,-0.3433796763420105,0.4272247850894928,0.7596454620361328,42.6025390625,67.56591796875,-24.0478515625
3.467460870742798,-1267866911,0,-0.10804454982280731,0.2792324721813202,0.9689314365386963,32.470703125,17.08984375,-43.02978515625
3.4748599529266357,-1267866913,1,-0.2171589732170105,0.3549591600894928,0.7950458526611328,24.23095703125,38.2080078125,-8.30078125
3.474900960922241,-1267866894,1,-0.039912883192300797,0.3122345507144928,0.7594013214111328,13.61083984375,0.06103515625,-13.12255859375
3.497483015060425,-1267866892,0,-0.1768922060728073,0.2689785659313202,0.8966658115386963,34.97314453125,36.2548828125,-42.78564453125
3.497607946395874,-1267866873,0,-0.2179078310728073,0.224544957280159,0.7897322177886963,43.0908203125,49.62158203125,-22.15576171875
3.504894971847534,-1267866875,1,0.0047648511826992035,0.3278595507144928,0.6546649932861328,22.27783203125,-2.13623046875,-32.16552734375
3.539693832397461,-1267866854,0,-0.2664918005466461,0.233334019780159,0.7489607334136963,47.2412109375,43.51806640625,-10.31494140625
3.5397019386291504,-1267866835,0,-0.2374390810728073,0.2865566909313202,0.7963240146636963,39.12353515625,24.71923828125,-17.4560546875
3.542609930038452,-1267866856,1,-0.1021687388420105,0.4101349413394928,0.5987567901611328,34.60693359375,25.2685546875,-45.8984375
3.5434207916259766,-1267866837,1,-0.1295124888420105,0.4118439257144928,0.5963153839111328,37.29248046875,39.4287109375,-43.0908203125
3.5669779777526855,-1267866818,1,-0.0667683482170105,0.4062286913394928,0.5960712432861328,35.46142578125,41.32080078125,-43.64013671875
3.593559741973877,-1267866816,0,-0.2198609560728073,0.2990078628063202,0.8219587802886963,32.1044921875,16.4794921875,-27.83203125
3.5935678482055664,-1267866797,0,-0.1978882998228073,0.3627285659313202,0.7843611240386963,31.25,11.41357421875,-30.1513671875
3.5935747623443604,-1267866778,0,-0.2130250185728073,0.3829922378063202,0.7616560459136963,35.70556640625,12.8173828125,-45.83740234375
3.594644784927368,-1267866799,1,-0.0665242075920105,0.4286896288394928,0.6041278839111328,34.48486328125,32.3486328125,-40.71044921875
3.594770908355713,-1267866780,1,-0.0965535044670105,0.4120880663394928,0.5611591339111328,39.306640625,31.6162109375,-40.95458984375
3.6238629817962646,-1267866744,1,-0.1234089732170105,0.4252716600894928,0.5496845245361328,31.73828125,25.20751953125,-62.68310546875
3.6473729610443115,-1267866742,0,-0.2852906286716461,0.3436855971813202,0.7218611240386963,30.94482421875,12.75634765625,-64.39208984375
3.6474907398223877,-1267866723,0,-0.2921265661716461,0.3756680190563202,0.7438337802886963,24.10888671875,4.8828125,-67.87109375
3.6554758548736572,-1267866725,1,-0.1436726450920105,0.4384552538394928,0.5780048370361328,26.06201171875,9.70458984375,-73.2421875
3.689074754714966,-1267866704,0,-0.3065308630466461,0.3956875503063202,0.7499372959136963,20.8740234375,-4.45556640625,-79.04052734375
3.6890828609466553,-1267866685,0,-0.3455933630466461,0.3773770034313202,0.7230818271636963,22.94921875,-11.23046875,-89.05029296875
3.6915838718414307,-1267866706,1,-0.1524617075920105,0.4850861132144928,0.5335712432861328,13.61083984375,-15.44189453125,-72.509765625
3.691589832305908,-1267866687,1,-0.1810261607170105,0.4914337694644928,0.5574970245361328,4.94384765625,-24.5361328125,-73.42529296875
3.7073898315429688,-1267866666,0,-0.024060171097517014,0.2846035659313202,0.8241560459136963,14.09912109375,-15.5029296875,-81.11572265625
3.714818000793457,-1267866668,1,-0.8472859263420105,0.8571564555168152,0.3946552276611328,-4.150390625,-20.5078125,-48.7060546875
3.745985984802246,-1267866647,0,-0.4344605505466461,0.4562344253063202,0.7516462802886963,-4.69970703125,-0.18310546875,-59.14306640625
3.745994806289673,-1267866628,0,-0.3949097692966461,0.3541836440563202,0.8375837802886963,-24.96337890625,-15.9912109375,-64.02587890625
3.7464089393615723,-1267866649,1,-0.4376179575920105,0.6882111430168152,0.5596942901611328,-22.39990234375,-27.16064453125,-21.484375
3.7464146614074707,-1267866630,1,-0.3099324107170105,0.5424591898918152,0.6329364776611328,-17.9443359375,-25.0244140625,-34.5458984375
3.7677576541900635,-1267866609,0,-0.4090699255466461,0.2892422378063202,0.8766462802886963,-29.96826171875,-20.20263671875,-56.7626953125
3.7747058868408203,-1267866611,1,-0.2723347544670105,0.5563752055168152,0.6593036651611328,-13.12255859375,-26.611328125,-47.54638671875
3.7747907638549805,-1267866592,1,-0.2759968638420105,0.5180451273918152,0.6966571807861328,-17.9443359375,-27.34375,-50.537109375
3.7974419593811035,-1267866590,0,-0.4032105505466461,0.2860684096813202,0.8991072177886963,-22.94921875,-21.42333984375,-61.6455078125
3.7975118160247803,-1267866571,0,-0.4254273474216461,0.2987637221813202,0.8922712802886963,-18.1884765625,-21.484375,-57.18994140625
3.805072784423828,-1267866573,1,-0.2889363169670105,0.5248810648918152,0.7249774932861328,-22.39990234375,-28.25927734375,-51.3916015625
3.844282865524292,-1267866552,0,-0.4307984411716461,0.3654141128063202,0.9061872959136963,-14.404296875,-26.30615234375,-50.35400390625
3.8442907333374023,-1267866533,0,-0.4134644567966461,0.3947109878063202,0.9476912021636963,-18.37158203125,-22.15576171875,-51.33056640625
3.8452439308166504,-1267866554,1,-0.2801472544670105,0.5209748148918152,0.7244892120361328,-17.9443359375,-18.61572265625,-51.6357421875
3.845249891281128,-1267866535,1,-0.3040730357170105,0.5112091898918152,0.7708759307861328,-17.7001953125,-12.0849609375,-54.3212890625
3.8572938442230225,-1267866514,0,-0.4359253942966461,0.3571133315563202,0.9684431552886963,-22.88818359375,-16.05224609375,-62.6220703125
3.8647048473358154,-1267866516,1,-0.3343464732170105,0.5119416117668152,0.7845478057861328,-9.27734375,-13.00048828125,-60.97412109375
3.8944199085235596,-1267866478,0,-0.4937867224216461,0.3004727065563202,0.9782087802886963,-20.263671875,-9.82666015625,-65.5517578125
3.894972801208496,-1267866480,1,-0.3904988169670105,0.4963165819644928,0.7855243682861328,-7.62939453125,-22.5830078125,-63.78173828125
3.9172449111938477,-1267866459,0,-0.4969605505466461,0.3168301284313202,0.9755232334136963,-19.287109375,-6.89697265625,-62.56103515625
3.946530818939209,-1267866440,0,-0.5540894865989685,0.3095059096813202,0.9657576084136963,-18.85986328125,1.28173828125,-72.998046875
3.947403907775879,-1267866421,0,-0.5982789397239685,0.2506680190563202,0.9533064365386963,-21.8505859375,0.1220703125,-75.68359375
3.9565229415893555,-1267866461,1,-0.4122273325920105,0.5026642680168152,0.7921161651611328,-5.06591796875,-20.32470703125,-66.2841796875
3.9565317630767822,-1267866442,1,-0.4429890513420105,0.5114533305168152,0.7989521026611328,-1.8310546875,-20.20263671875,-60.72998046875
3.9565377235412598,-1267866423,1,-0.5081745982170105,0.4963165819644928,0.7957782745361328,-1.3427734375,-20.44677734375,-54.443359375
3.989006757736206,-1267866402,0,-0.5604371428489685,0.240169957280159,0.9681990146636963,-22.39990234375,-5.615234375,-78.7353515625
3.989013910293579,-1267866383,0,-0.5225953459739685,0.216488316655159,0.9723494052886963,-19.1650390625,-16.78466796875,-83.31298828125
3.991518974304199,-1267866404,1,-0.4459187388420105,0.5058380961418152,0.7452411651611328,5.2490234375,-14.5263671875,-55.7861328125
3.9915237426757812,-1267866385,1,-0.3973347544670105,0.4152618944644928,0.7469501495361328,4.69970703125,-13.18359375,-52.6123046875
4.007260799407959,-1267866364,0,-0.4635132849216461,0.208187535405159,0.9562361240386963,-11.5966796875,-24.658203125,-95.21484375
4.014727830886841,-1267866366,1,-0.3978230357170105,0.4052521288394928,0.7403583526611328,7.4462890625,-14.7705078125,-57.43408203125
4.043591737747192,-1267866345,0,-0.5001344084739685,0.156673863530159,0.8683454990386963,-8.30078125,-30.21240234375,-105.04150390625
4.043598651885986,-1267866326,0,-0.3375367224216461,0.150326207280159,0.9291365146636963,-1.28173828125,-43.51806640625,-111.51123046875
4.049003839492798,-1267866347,1,-0.4403035044670105,0.3044220507144928,0.8421649932861328,6.2255859375,-17.7001953125,-64.453125
4.049012899398804,-1267866328,1,-0.3780476450920105,0.3744904100894928,0.7117938995361328,2.5634765625,-26.91650390625,-74.15771484375
4.067373752593994,-1267866307,0,-0.3189820349216461,0.132748082280159,0.9537947177886963,-1.28173828125,-33.447265625,-118.22509765625
4.074805021286011,-1267866309,1,-0.4532429575920105,0.4045197069644928,0.6478290557861328,-1.220703125,-20.3857421875,-65.91796875
4.074918746948242,-1267866290,1,-0.3746296763420105,0.3129669725894928,0.7269306182861328,4.7607421875,-13.48876953125,-80.50537109375
4.097517728805542,-1267866288,0,-0.2804078161716461,0.2921719253063202,0.9777204990386963,-7.2021484375,-3.5400390625,-167.41943359375
4.097621917724609,-1267866269,0,-0.3470582067966461,0.3068203628063202,0.9581892490386963,-18.00537109375,-18.85986328125,-205.9326171875
4.105299949645996,-1267866271,1,-0.3587605357170105,0.1943146288394928,0.7579364776611328,17.27294921875,-7.62939453125,-116.76025390625
4.129243850708008,-1267866250,0,-0.4144410192966461,0.176205113530159,1.0084822177886963,-25.0244140625,-32.2265625,-206.9091796875
4.145650863647461,-1267866252,1,-0.4398152232170105,0.3456818163394928,0.7508563995361328,28.9306640625,-0.9765625,-158.5693359375
4.163729906082153,-1267866216,1,-0.3223835825920105,0.2900177538394928,0.7520771026611328,-24.90234375,-32.8369140625,-92.529296875
4.191614866256714,-1267866214,0,-0.3516968786716461,0.131039097905159,1.1596052646636963,-25.390625,-33.14208984375,-182.373046875
4.191622734069824,-1267866195,0,-0.5238160490989685,-0.041568320244550705,1.2360212802886963,-13.85498046875,-33.38623046875,-215.02685546875
4.1916279792785645,-1267866176,0,-0.6864137053489685,-0.172915980219841,1.2472517490386963,-2.685546875,-44.0673828125,-187.744140625
4.195052623748779,-1267866197,1,-0.2300984263420105,0.1728302538394928,0.8145771026611328,-2.0751953125,3.23486328125,-135.25390625
4.195141792297363,-1267866178,1,-0.3961140513420105,0.3617950975894928,0.8668231964111328,28.86962890625,39.24560546875,-180.17578125
4.217296838760376,-1267866157,0,-0.6934937834739685,-0.183169886469841,1.2672712802886963,4.08935546875,-40.34423828125,-138.48876953125
4.224782705307007,-1267866159,1,-0.5599324107170105,0.5070587992668152,0.9127216339111328,29.72412109375,30.82275390625,-172.607421875
4.2248969078063965,-1267866140,1,-0.4774128794670105,0.4330841600894928,0.9434833526611328,8.30078125,-0.9765625,-141.6015625
4.247384786605835,-1267866138,0,-0.6407594084739685,-0.172671839594841,1.2929060459136963,5.9814453125,-28.4423828125,-125.0
4.247472763061523,-1267866119,0,-0.7208375334739685,-0.2754550278186798,1.2777693271636963,14.2822265625,-26.06201171875,-125.67138671875
4.254644870758057,-1267866121,1,-0.3345906138420105,0.2507111132144928,1.0050067901611328,12.39013671875,-8.97216796875,-146.240234375
4.289564847946167,-1267866100,0,-0.7735719084739685,-0.3030429184436798,1.2553083896636963,28.25927734375,-36.4990234375,-99.79248046875
4.29226279258728,-1267866102,1,-0.4400593638420105,0.2426544725894928,1.0203876495361328,26.30615234375,-9.09423828125,-185.302734375
4.293027639389038,-1267866083,1,-0.6868855357170105,0.3808380663394928,1.0914325714111328,39.24560546875,-7.9345703125,-212.5244140625
4.307398796081543,-1267866081,0,-0.7699097990989685,-0.3223300278186798,1.2157576084136963,33.87451171875,-36.4990234375,-77.08740234375
4.307501792907715,-1267866062,0,-0.7157105803489685,-0.2832675278186798,1.1447126865386963,41.259765625,-41.44287109375,-38.2080078125
4.314734697341919,-1267866064,1,-0.8934285044670105,0.4553009569644928,1.0589618682861328,47.66845703125,-9.94873046875,-195.6787109375
4.344862937927246,-1267866043,0,-0.4447144567966461,-0.041568320244550705,1.1024763584136963,51.69677734375,-68.78662109375,-21.728515625
4.344873905181885,-1267866024,0,0.1292601376771927,0.4389004409313202,1.1212751865386963,157.470703125,-213.8671875,7.4462890625
4.345372915267944,-1267866045,1,-1.8585164546966553,0.6530548930168152,0.5560321807861328,0.3662109375,-24.35302734375,-51.3916015625
4.345379829406738,-1267866026,1,-1.3150594234466553,0.4448029100894928,0.7606220245361328,-48.64501953125,-23.62060546875,15.31982421875
4.367572784423828,-1267866005,0,0.12193591892719269,0.4191250503063202,1.2162458896636963,172.8515625,-179.50439453125,-65.673828125
4.374652862548828,-1267866007,1,-0.9420124888420105,0.1027618944644928,0.8511981964111328,28.3203125,17.76123046875,-51.20849609375
4.397267818450928,-1267865986,0,-0.1329468935728073,0.117367222905159,1.1510603427886963,87.34130859375,-70.80078125,-101.6845703125
4.404923915863037,-1267865988,1,-0.8446003794670105,0.2499786913394928,0.9871845245361328,64.8193359375,5.37109375,-86.669921875
4.44110107421875,-1267865950,0,-0.1881226748228073,-0.066470667719841,1.0885603427886963,-10.6201171875,-104.18701171875,-81.9091796875
4.444515705108643,-1267865952,1,-0.5484578013420105,0.0668732225894928,0.9410419464111328,74.27978515625,-37.109375,-113.83056640625
4.444522857666016,-1267865933,1,-0.5887410044670105,0.1069122850894928,0.8541278839111328,62.5,-32.77587890625,-131.34765625
4.457780838012695,-1267865931,0,-0.09827892482280731,-0.043277304619550705,1.2108747959136963,-10.55908203125,-159.72900390625,-92.34619140625
4.457892656326294,-1267865912,0,-0.08363048732280731,-0.040103476494550705,1.2335798740386963,3.2958984375,-162.78076171875,-106.62841796875
4.464583873748779,-1267865914,1,-0.6055867075920105,0.0890900194644928,0.7977313995361328,47.9736328125,-31.79931640625,-136.16943359375
4.495252847671509,-1267865893,0,-0.11463634669780731,-0.065494105219841,1.1849958896636963,25.0244140625,-165.771484375,-90.33203125
4.495265007019043,-1267865874,0,-0.044323842972517014,0.164974644780159,1.2421247959136963,33.87451171875,-179.8095703125,-62.1337890625
4.49751091003418,-1267865895,1,-0.5989949107170105,0.0949493944644928,0.7948017120361328,59.87548828125,-23.98681640625,-146.05712890625
4.497517824172974,-1267865876,1,-0.5987507700920105,0.1323029100894928,0.7828388214111328,84.65576171875,-8.6669921875,-151.06201171875
4.519219875335693,-1267865855,0,0.06602771580219269,0.179378941655159,1.2955915927886963,2.25830078125,-143.85986328125,-75.3173828125
4.524672985076904,-1267865857,1,-0.7025105357170105,0.1606232225894928,0.8394794464111328,88.68408203125,-27.7099609375,-117.24853515625
4.547498941421509,-1267865836,0,0.029406625777482986,0.164242222905159,1.3016951084136963,2.0751953125,-137.02392578125,-91.24755859375
4.54758095741272,-1267865817,0,0.009387094527482986,0.173763707280159,1.4303572177886963,5.9814453125,-148.62060546875,-102.4169921875
4.55526876449585,-1267865838,1,-0.8087117075920105,0.1926056444644928,0.8704853057861328,80.56640625,-56.70166015625,-86.181640625
4.555375814437866,-1267865819,1,-0.8555867075920105,0.2297150194644928,0.8765888214111328,92.10205078125,-62.255859375,-59.08203125
4.588879823684692,-1267865798,0,-0.1290406435728073,0.183773472905159,1.6630232334136963,7.9345703125,-150.5126953125,-103.8818359375
4.592319965362549,-1267865800,1,-0.9803425669670105,0.2570587694644928,0.9425067901611328,115.1123046875,-49.8046875,-27.77099609375
4.592326879501343,-1267865781,1,-1.1378133296966553,0.3044220507144928,0.9945087432861328,116.69921875,-53.77197265625,6.9580078125
4.60734486579895,-1267865779,0,-0.2769898474216461,0.122250035405159,1.8949568271636963,27.4658203125,-147.03369140625,-80.810546875
4.607468605041504,-1267865760,0,-0.08533947169780731,0.098324254155159,2.1224958896636963,55.0537109375,-130.06591796875,-58.41064453125
4.614593982696533,-1267865762,1,-1.4163777828216553,0.3696075975894928,1.0252704620361328,92.59033203125,-80.13916015625,57.373046875
4.643752813339233,-1267865741,0,-0.2352418154478073,0.118099644780159,2.2958357334136963,81.60400390625,-132.87353515625,-80.9326171875
4.644985675811768,-1267865743,1,-1.6363484859466553,0.3854767382144928,1.1097431182861328,80.62744140625,-96.37451171875,99.91455078125
4.6452836990356445,-1267865724,1,-1.8482625484466553,0.3742462694644928,1.1651630401611328,97.412109375,-92.22412109375,152.89306640625
4.667403936386108,-1267865722,0,-0.5372437834739685,0.009457070380449295,2.8063337802886963,133.23974609375,-146.484375,-85.38818359375
4.7000768184661865,-1267865686,0,-0.5982789397239685,-0.164859339594841,3.0717146396636963,225.9521484375,-62.80517578125,26.123046875
4.700085878372192,-1267865667,0,-0.6619996428489685,-0.2537265121936798,3.0531599521636963,266.66259765625,-63.17138671875,52.490234375
4.705006837844849,-1267865688,1,-2.0291707515716553,0.5363556742668152,1.3607196807861328,93.93310546875,-116.02783203125,279.1748046875
4.705142021179199,-1267865669,1,-2.0286824703216553,0.4147736132144928,1.4749774932861328,81.4208984375,-151.79443359375,332.70263671875
4.74005389213562,-1267865648,0,-0.6468629240989685,-0.3316073715686798,3.0177595615386963,309.26513671875,-70.1904296875,56.94580078125
4.744220733642578,-1267865650,1,-2.0196492671966553,0.4604279100894928,1.5023212432861328,84.8388671875,-168.701171875,369.32373046875
4.744228839874268,-1267865631,1,-1.9100301265716553,0.5075470805168152,1.5011005401611328,92.4072265625,-173.76708984375,392.02880859375
4.757509708404541,-1267865629,0,-0.4898804724216461,-0.4844394028186798,2.8012068271636963,359.7412109375,-41.1376953125,73.73046875
4.7575788497924805,-1267865610,0,-0.3224000036716461,-0.4837069809436798,2.6696150302886963,368.83544921875,14.5263671875,93.56689453125
4.764617919921875,-1267865612,1,-1.3738973140716553,0.2675568163394928,1.5745868682861328,105.46875,-179.26025390625,365.53955078125
4.796097993850708,-1267865591,0,-0.4913453161716461,-0.8362460732460022,2.3842146396636963,315.97900390625,123.10791015625,73.486328125
4.799246788024902,-1267865593,1,-0.7904011607170105,0.1840607225894928,1.5765399932861328,138.36669921875,-155.8837890625,303.64990234375
4.799257755279541,-1267865574,1,-1.6341512203216553,0.4811798632144928,1.3026142120361328,158.14208984375,-166.80908203125,272.52197265625
4.81745982170105,-1267865572,0,-0.5807008147239685,-1.3281893730163574,2.0936872959136963,279.11376953125,174.1943359375,107.23876953125
4.823060989379883,-1267865553,0,-0.06727306544780731,-1.4026522636413574,1.4677107334136963,333.3740234375,106.689453125,268.98193359375
4.824755907058716,-1267865555,1,-1.4945027828216553,0.2663361132144928,1.4202899932861328,74.40185546875,-226.98974609375,336.24267578125
4.84747576713562,-1267865534,0,0.2728148400783539,-1.1533846855163574,1.0797712802886963,392.578125,47.9736328125,281.92138671875
4.8475987911224365,-1267865515,0,0.5010862946510315,-1.0625643730163574,0.8339216709136963,401.67236328125,3.84521484375,236.6943359375
4.854848861694336,-1267865536,1,-0.8304402232170105,-0.3232634961605072,1.2415790557861328,117.5537109375,-206.48193359375,316.0400390625
4.8549299240112305,-1267865517,1,-0.6121785044670105,-0.4653533399105072,1.1082782745361328,185.24169921875,-133.48388671875,279.296875
4.888913869857788,-1267865496,0,0.4893675744533539,-1.0239901542663574,0.6901228427886963,392.15087890625,-17.63916015625,207.70263671875
4.8923499584198,-1267865498,1,-0.4444538950920105,-0.6103728413581848,1.0108661651611328,208.1298828125,-101.13525390625,263.73291015625
4.907938003540039,-1267865477,0,0.4732542932033539,-1.0252108573913574,0.5839216709136963,372.6806640625,-22.15576171875,179.62646484375
4.9079508781433105,-1267865458,0,0.4625121057033539,-1.0615878105163574,0.4437849223613739,361.75537109375,-3.84521484375,188.04931640625
4.914965867996216,-1267865479,1,-0.3016316294670105,-0.7285369038581848,0.8482685089111328,217.59033203125,-75.86669921875,232.36083984375
4.915080785751343,-1267865460,1,-0.1722370982170105,-0.7917693257331848,0.6954364776611328,218.017578125,-33.0810546875,188.5986328125
4.944299936294556,-1267865424,1,0.1053507924079895,-0.8769744038581848,0.5057392120361328,193.42041015625,42.6025390625,142.27294921875
4.967489957809448,-1267865422,0,0.5867796540260315,-0.9807773232460022,0.1469099223613739,321.6552734375,5.126953125,231.87255859375
4.967613935470581,-1267865403,0,0.6671019196510315,-0.9461093544960022,0.1256696879863739,293.64013671875,-6.591796875,216.49169921875
4.998925685882568,-1267865384,0,0.6275511384010315,-0.9529452919960022,0.0538923516869545,270.44677734375,-8.36181640625,193.17626953125
4.998934984207153,-1267865365,0,0.4410277307033539,-0.9444003701210022,-0.0286271795630455,245.05615234375,-22.705078125,178.89404296875
5.005029916763306,-1267865405,1,0.2760050892829895,-0.9572966694831848,0.4014911651611328,197.3876953125,67.3828125,120.849609375
5.005123853683472,-1267865386,1,0.3033488392829895,-0.9448454976081848,0.2672138214111328,203.0029296875,82.09228515625,104.00390625
5.005985975265503,-1267865367,1,0.4090617299079895,-0.8725798726081848,0.2379169464111328,170.71533203125,91.49169921875,110.3515625
5.040349960327148,-1267865346,0,0.3968382775783539,-0.9439120888710022,-0.1170060858130455,226.07421875,-54.8095703125,177.67333984375
5.044267892837524,-1267865348,1,0.5699504017829895,-0.8462126851081848,0.2076435089111328,135.986328125,86.85302734375,118.408203125
5.057420969009399,-1267865327,0,0.4915648400783539,-0.9006991982460022,-0.1746232807636261,217.041015625,-56.2744140625,179.26025390625
5.057514905929565,-1267865308,0,0.7034788727760315,-0.9468417763710022,-0.1416642963886261,205.74951171875,-39.55078125,170.22705078125
5.095115900039673,-1267865289,0,0.8260374665260315,-0.9985995888710022,-0.0669572576880455,197.69287109375,-32.77587890625,154.296875
5.097298860549927,-1267865329,1,0.7332804799079895,-0.8676970601081848,0.1607685089111328,107.48291015625,78.4912109375,135.68115234375
5.097305774688721,-1267865310,1,0.8055461049079895,-0.8611052632331848,0.1851825714111328,98.32763671875,75.98876953125,131.7138671875
5.097311973571777,-1267865291,1,0.8104289174079895,-0.6609099507331848,0.3057880401611328,91.9189453125,83.55712890625,106.50634765625
5.097327709197998,-1267865272,1,0.8292277455329895,-0.5322478413581848,0.3663349151611328,94.78759765625,98.6328125,100.40283203125
5.117472887039185,-1267865270,0,0.9041624665260315,-0.9773593544960022,0.0641462579369545,198.3642578125,-31.18896484375,127.74658203125
5.117553949356079,-1267865251,0,0.9219847321510315,-0.9387851357460022,0.0768415704369545,200.8056640625,-20.263671875,96.25244140625
5.12467098236084,-1267865253,1,0.8797648549079895,-0.5141814351081848,0.3468036651611328,99.06005859375,115.41748046875,123.779296875
5.147782802581787,-1267865232,0,0.8338499665260315,-1.0042147636413574,0.1088239923119545,175.72021484375,33.87451171875,49.072265625
5.147792816162109,-1267865213,0,0.7176390290260315,-1.1431307792663574,0.0878278985619545,168.39599609375,50.9033203125,44.677734375
5.154918909072876,-1267865234,1,1.0916788578033447,-0.5713103413581848,0.3460712432861328,96.13037109375,96.435546875,150.32958984375
5.155071973800659,-1267865215,1,1.0882608890533447,-0.3984588086605072,0.4075946807861328,80.50537109375,86.42578125,164.36767578125
5.190151929855347,-1267865194,0,0.7435179352760315,-1.1502108573913574,0.0707380548119545,173.88916015625,30.70068359375,60.85205078125
5.192960977554321,-1267865196,1,1.0824015140533447,-0.4875701367855072,0.5164813995361328,85.38818359375,104.736328125,147.64404296875
5.2073328495025635,-1267865158,0,0.8838987946510315,-1.1668124198913574,0.015562273561954498,187.1337890625,0.79345703125,80.56640625
5.214673757553101,-1267865160,1,0.9403117299079895,-0.5725310444831848,0.6344013214111328,100.2197265625,136.1083984375,135.8642578125
5.243712902069092,-1267865139,0,0.8826780915260315,-1.1243319511413574,0.0665876641869545,191.650390625,-0.91552734375,85.5712890625
5.244750738143921,-1267865141,1,1.0677530765533447,-0.4099334180355072,0.6793231964111328,84.228515625,108.70361328125,190.85693359375
5.244764804840088,-1267865122,1,1.0950968265533447,-0.4284881055355072,0.8297138214111328,74.27978515625,101.37939453125,230.04150390625
5.267483711242676,-1267865120,0,0.9014769196510315,-1.2302889823913574,0.1564314067363739,195.73974609375,0.0,89.78271484375
5.267536878585815,-1267865101,0,1.1551390886306763,-1.2649569511413574,0.1808454692363739,230.40771484375,7.080078125,109.55810546875
5.274585723876953,-1267865103,1,1.0596964359283447,-0.4453338086605072,0.9354267120361328,73.2421875,107.72705078125,234.31396484375
5.299248695373535,-1267865082,0,1.4647094011306763,-1.3826327323913574,0.3136579692363739,251.953125,35.46142578125,106.14013671875
5.299259901046753,-1267865063,0,1.4434691667556763,-1.2710604667663574,0.3556501567363739,244.81201171875,96.6796875,90.63720703125
5.304889678955078,-1267865084,1,0.9830363392829895,-0.3774627149105072,0.9151630401611328,73.18115234375,121.337890625,232.5439453125
5.305006742477417,-1267865065,1,0.9461711049079895,-0.3830779492855072,1.0562763214111328,113.4033203125,183.41064453125,248.10791015625
5.338684797286987,-1267865044,0,1.4302855730056763,-1.2725253105163574,0.3121931254863739,254.5166015625,119.873046875,69.51904296875
5.341359853744507,-1267865046,1,1.1153604984283447,-0.4116424024105072,1.2159442901611328,148.3154296875,223.6328125,279.4189453125
5.3575968742370605,-1267865025,0,1.6458617448806763,-1.1421542167663574,0.5106794834136963,279.84619140625,138.00048828125,43.02978515625
5.357652902603149,-1267865006,0,1.9254027605056763,-1.4321932792663574,0.5189802646636963,312.07275390625,145.56884765625,2.3193359375
5.3649139404296875,-1267865027,1,1.5189249515533447,-0.5979216694831848,1.3035907745361328,143.49365234375,197.509765625,261.41357421875
5.365031957626343,-1267865008,1,1.4659464359283447,-0.3352263867855072,1.3306903839111328,143.5546875,187.3779296875,247.9248046875
5.395787954330444,-1267864987,0,2.1832151412963867,-1.7774081230163574,0.6432478427886963,338.5009765625,171.630859375,-22.4609375
5.396307945251465,-1267864989,1,1.3521769046783447,-0.2087615430355072,1.5345478057861328,164.97802734375,235.83984375,244.81201171875
5.396314859390259,-1267864970,1,1.2616007328033447,-0.2302459180355072,1.6688251495361328,194.7021484375,335.205078125,207.94677734375
5.417403697967529,-1267864968,0,2.4947385787963867,-1.5435214042663574,0.5084822177886963,335.44921875,205.2001953125,-50.59814453125
5.417491912841797,-1267864949,0,2.7046995162963867,-1.3850741386413574,0.3764021098613739,330.62744140625,222.71728515625,-113.28125
5.4267168045043945,-1267864951,1,1.4156534671783447,-0.2434295117855072,1.9395771026611328,194.9462890625,363.58642578125,185.05859375
5.44806981086731,-1267864930,0,2.9044065475463867,-1.4910311698913574,0.4262067973613739,317.44384765625,245.42236328125,-189.51416015625
5.454844951629639,-1267864932,1,1.2281534671783447,-0.3972381055355072,2.190309524536133,220.03173828125,351.01318359375,174.13330078125
5.48990797996521,-1267864894,0,2.1014280319213867,-1.6502108573913574,0.5931990146636963,221.8017578125,333.80126953125,-318.2373046875
5.492555856704712,-1267864896,1,0.8939250111579895,-0.7488005757331848,1.9989032745361328,300.10986328125,316.89453125,102.72216796875
5.507489919662476,-1267864875,0,1.2808715105056763,-1.9319491386413574,0.9147322177886963,241.455078125,357.177734375,-290.0390625
5.507562875747681,-1267864856,0,0.8609495759010315,-1.8010897636413574,1.1552107334136963,320.25146484375,333.06884765625,-201.2939453125
5.515012741088867,-1267864877,1,0.9039347767829895,-0.8623259663581848,1.7015399932861328,327.94189453125,296.44775390625,62.56103515625
5.515134811401367,-1267864858,1,0.9110148549079895,-0.4909881055355072,1.6431903839111328,349.4873046875,273.62060546875,28.01513671875
5.5442588329315186,-1267864837,0,0.7171507477760315,-1.5447421073913574,1.1869490146636963,377.86865234375,260.986328125,-147.8271484375
5.544853925704956,-1267864839,1,0.4298136830329895,-0.4775603711605072,1.5184345245361328,355.89599609375,166.259765625,17.822265625
5.54495096206665,-1267864820,1,0.1055949330329895,-0.4944060742855072,1.4180927276611328,372.74169921875,123.22998046875,13.36669921875
5.567439794540405,-1267864818,0,0.6065550446510315,-1.3208651542663574,1.2264997959136963,405.3955078125,201.96533203125,-148.681640625
5.56754469871521,-1267864799,0,0.4417601525783539,-1.1506991386413574,1.2938826084136963,416.68701171875,188.65966796875,-171.81396484375
5.57467794418335,-1267864801,1,0.009159382432699203,-0.3669646680355072,1.3099384307861328,396.1181640625,141.17431640625,-7.62939453125
5.604464769363403,-1267864782,1,0.2669718861579895,-0.4702361524105072,1.5604267120361328,429.99267578125,143.49365234375,-33.8134765625
5.60524582862854,-1267864763,1,-0.1094929575920105,-0.3991912305355072,1.3775653839111328,363.8916015625,154.72412109375,21.54541015625
5.6373066902160645,-1267864780,0,0.3448363244533539,-1.1111483573913574,1.2645857334136963,417.6025390625,179.74853515625,-185.4248046875
5.637316703796387,-1267864761,0,0.4827757775783539,-0.9185214638710022,1.0338728427886963,415.0390625,147.0947265625,-178.52783203125
5.637325048446655,-1267864742,0,0.6317015290260315,-0.6426425576210022,0.9198591709136963,422.36328125,132.38525390625,-236.4501953125
5.640827894210815,-1267864744,1,-0.033565226942300797,-0.027609195560216904,1.1182880401611328,475.64697265625,212.7685546875,-85.38818359375
5.657465696334839,-1267864723,0,0.4048949182033539,-0.7761874794960022,0.8014509677886963,378.662109375,73.2421875,-276.4892578125
5.657581806182861,-1267864704,0,0.1873656064271927,-0.6270175576210022,1.1884138584136963,329.1015625,83.0078125,-337.46337890625
5.6649158000946045,-1267864725,1,-0.1829792857170105,-0.1421111524105072,1.1917743682861328,472.412109375,189.39208984375,-84.228515625
5.665029764175415,-1267864706,1,-0.5252644419670105,-0.017843570560216904,0.7266864776611328,384.27734375,104.18701171875,-16.17431640625
5.695984840393066,-1267864685,0,-0.1527222841978073,-0.5891757607460022,0.9738142490386963,347.96142578125,123.84033203125,-355.52978515625
5.6976587772369385,-1267864687,1,-0.5550495982170105,0.3639923632144928,0.5582294464111328,445.12939453125,58.10546875,-29.23583984375
5.717421770095825,-1267864666,0,-0.3673218786716461,-0.5147128701210022,0.6681501865386963,362.60986328125,38.75732421875,-349.7314453125
5.724647760391235,-1267864668,1,-0.7178913950920105,0.6261994242668152,0.5811786651611328,540.34423828125,53.955078125,-123.84033203125
5.747996807098389,-1267864630,0,-0.5909547209739685,-0.169742152094841,0.6400740146636963,324.52392578125,-70.49560546875,-347.59521484375
5.754850625991821,-1267864632,1,-0.3199421763420105,0.3923126757144928,0.7066669464111328,510.43701171875,7.9345703125,-31.43310546875
5.7549498081207275,-1267864613,1,-0.5435749888420105,0.4015900194644928,0.5665302276611328,466.796875,-94.05517578125,47.119140625
5.789467811584473,-1267864611,0,-0.8365601897239685,-0.3220858871936798,0.5741560459136963,284.97314453125,-73.18115234375,-355.16357421875
5.789475679397583,-1267864592,0,-1.0367554426193237,-0.3985019028186798,0.3942243754863739,251.5869140625,-102.05078125,-327.0263671875
5.7920897006988525,-1267864594,1,-0.4725300669670105,0.2446075975894928,0.6304950714111328,468.68896484375,-239.501953125,16.17431640625
5.80747389793396,-1267864573,0,-1.1700562238693237,-0.238833948969841,0.2572614848613739,250.48828125,-176.20849609375,-296.875
5.807548761367798,-1267864554,0,-1.1305054426193237,-0.238589808344841,0.3407575786113739,266.66259765625,-290.0390625,-298.88916015625
5.816472768783569,-1267864575,1,-0.6304890513420105,0.2258087694644928,0.4437274932861328,432.80029296875,-289.48974609375,12.939453125
5.816480875015259,-1267864556,1,-0.7564656138420105,0.2958771288394928,0.2987079620361328,349.853515625,-302.18505859375,43.701171875
5.8442816734313965,-1267864535,0,-0.9139527678489685,-0.3257479965686798,0.5848982334136963,249.81689453125,-321.71630859375,-312.8662109375
5.844803810119629,-1267864537,1,-0.9227253794670105,0.060769710689783096,0.3841571807861328,310.4248046875,-283.14208984375,88.5009765625
5.867370843887329,-1267864516,0,-0.8365601897239685,-0.3064608871936798,0.4496442973613739,205.26123046875,-276.3671875,-325.8056640625
5.8674938678741455,-1267864497,0,-0.9300660490989685,-0.4102206528186798,0.3256208598613739,161.19384765625,-279.60205078125,-372.314453125
5.874780893325806,-1267864518,1,-1.2730672359466553,-0.1425994336605072,0.5413837432861328,280.09033203125,-298.095703125,102.05078125
5.874847888946533,-1267864499,1,-1.2886922359466553,-0.1501677930355072,0.4603290557861328,225.9521484375,-359.0087890625,85.63232421875
5.8973307609558105,-1267864478,0,-0.9854859709739685,-0.8379550576210022,0.4750349223613739,121.826171875,-351.50146484375,-432.7392578125
5.905395984649658,-1267864480,1,-1.3035848140716553,-0.1118377149105072,0.2677021026611328,197.93701171875,-361.2060546875,48.40087890625
5.905505895614624,-1267864461,1,-1.5355184078216553,-0.1250213086605072,0.2318134307861328,197.81494140625,-323.91357421875,43.701171875
5.939218759536743,-1267864459,0,-1.0435913801193237,-1.1697421073913574,0.9052107334136963,119.140625,-373.046875,-464.2333984375
5.939226865768433,-1267864440,0,-1.2762573957443237,-1.3880038261413574,1.0436384677886963,156.494140625,-358.33740234375,-476.01318359375
5.941845893859863,-1267864442,1,-1.6287801265716553,-0.1526091992855072,0.4163837432861328,213.07373046875,-325.3173828125,88.7451171875
5.957345962524414,-1267864421,0,-1.5807007551193237,-1.7097811698913574,0.7228376865386963,184.5703125,-329.52880859375,-460.14404296875
5.96481466293335,-1267864423,1,-1.6224324703216553,-0.2912810742855072,0.4705829620361328,144.6533203125,-409.24072265625,180.7861328125
5.964900732040405,-1267864404,1,-1.6832234859466553,-0.4651091992855072,0.3338642120361328,60.36376953125,-497.25341796875,230.95703125
5.993647813796997,-1267864402,0,-1.8241089582443237,-1.8406405448913574,0.3373396098613739,240.29541015625,-403.13720703125,-424.25537109375
6.016669750213623,-1267864366,0,-1.3934448957443237,-1.7720370292663574,0.8026716709136963,360.9619140625,-581.6650390625,-381.40869140625
6.017469882965088,-1267864347,0,-1.5360230207443237,-1.9553866386413574,1.2238142490386963,292.1142578125,-368.1640625,-393.98193359375
6.046349048614502,-1267864328,0,-2.1204957962036133,-2.5403475761413574,0.8353865146636963,236.6943359375,-166.015625,-324.40185546875
6.054956674575806,-1267864368,1,-2.6434285640716553,-0.2329314649105072,0.3770771026611328,7.8125,-627.01416015625,294.49462890625
6.055064678192139,-1267864349,1,-2.6990926265716553,-0.0876677930355072,0.5345478057861328,-37.7197265625,-643.6767578125,326.5380859375
6.055860996246338,-1267864330,1,-2.1778523921966553,-0.2170623242855072,0.4063739776611328,-43.9453125,-624.267578125,308.65478515625
6.091948747634888,-1267864309,0,-2.2567262649536133,-2.4614901542663574,0.2709333598613739,289.1845703125,-213.80615234375,-79.4677734375
6.091955900192261,-1267864290,0,-1.8241089582443237,-2.1846346855163574,0.1386091411113739,345.52001953125,-264.70947265625,19.22607421875
6.093824863433838,-1267864311,1,-1.6688191890716553,0.021707210689783096,0.5103778839111328,14.7705078125,-578.2470703125,248.59619140625
6.093831777572632,-1267864292,1,-1.6273152828216553,0.3166290819644928,0.6871356964111328,-33.14208984375,-516.357421875,209.41162109375
6.107359886169434,-1267864271,0,-0.8573121428489685,-1.4819979667663574,0.5975935459136963,389.95361328125,-325.13427734375,24.7802734375
6.114753007888794,-1267864273,1,-2.2217977046966553,0.7597443461418152,0.8109149932861328,-85.63232421875,-509.765625,279.84619140625
6.114832878112793,-1267864254,1,-1.6881062984466553,0.6149689555168152,0.8873310089111328,-103.6376953125,-497.6806640625,337.21923828125
6.14448094367981,-1267864252,0,-0.6978883147239685,-1.2293124198913574,0.8295271396636963,489.07470703125,-351.50146484375,10.55908203125
6.14448881149292,-1267864233,0,-0.5567750334739685,-1.0349764823913574,0.5023787021636963,627.62451171875,-404.78515625,12.63427734375
6.145050764083862,-1267864235,1,-0.8487507700920105,0.2580353319644928,1.1480731964111328,-88.80615234375,-434.814453125,380.67626953125
6.167428731918335,-1267864214,0,-0.3758668005466461,-0.9841952919960022,0.5719587802886963,680.908203125,-433.53271484375,50.6591796875
6.167529821395874,-1267864195,0,0.10899646580219269,-0.7544589638710022,0.7360212802886963,638.7939453125,-361.572265625,179.38232421875
6.174936771392822,-1267864216,1,-0.3536335825920105,-0.1850799024105072,1.4173603057861328,-28.6865234375,-371.09375,296.81396484375
6.1750078201293945,-1267864197,1,-0.2215535044670105,-0.0891326367855072,1.3546161651611328,60.72998046875,-331.787109375,162.4755859375
6.1973559856414795,-1267864176,0,0.5777464509010315,-0.6756015419960022,0.6764509677886963,596.8017578125,-279.6630859375,287.7197265625
6.205436944961548,-1267864178,1,-0.4232136607170105,0.3835236132144928,1.2677021026611328,138.61083984375,-231.75048828125,80.62744140625
6.239049911499023,-1267864157,0,1.0950804948806763,-0.5498691201210022,0.7435896396636963,571.71630859375,-238.34228515625,358.0322265625
6.239056825637817,-1267864138,0,1.2225219011306763,-0.2737460434436798,0.6019880771636963,579.2236328125,-269.47021484375,324.8291015625
6.241667747497559,-1267864159,1,0.9903605580329895,-0.3420623242855072,1.0631122589111328,236.328125,-136.90185546875,106.3232421875
6.241673946380615,-1267864140,1,0.6395304799079895,1.5895782709121704,1.2562274932861328,171.08154296875,-184.08203125,27.099609375
6.263829946517944,-1267864104,1,0.010868366807699203,0.6740509867668152,1.0291767120361328,186.8896484375,-208.43505859375,176.3916015625
6.294507026672363,-1267864102,0,1.2581664323806763,-0.198306605219841,0.4555036723613739,547.36328125,-240.72265625,207.33642578125
6.294514894485474,-1267864083,0,1.2261840105056763,-0.200259730219841,0.5101912021636963,516.78466796875,-163.87939453125,197.93701171875
6.295069932937622,-1267864085,1,0.1012004017829895,0.5529572367668152,0.6578388214111328,219.23828125,-108.7646484375,189.27001953125
6.3175859451293945,-1267864064,0,1.0858031511306763,-0.4629550278186798,0.3534528911113739,513.671875,-84.716796875,184.38720703125
6.317655801773071,-1267864045,0,1.0201293230056763,-0.7046542763710022,0.1798689067363739,521.91162109375,-60.11962890625,188.8427734375
6.324822902679443,-1267864066,1,-0.0767781138420105,0.3906036913394928,0.9246845245361328,240.53955078125,-7.8125,225.03662109375
6.324882745742798,-1267864047,1,0.0745890736579895,0.3793732225894928,1.2843036651611328,255.126953125,15.7470703125,279.84619140625
6.3472959995269775,-1267864026,0,0.9835081696510315,-1.0193514823913574,0.0936872735619545,506.89697265625,-65.3076171875,210.87646484375
6.354641914367676,-1267864028,1,0.1558879017829895,0.2953888475894928,1.2635517120361328,269.83642578125,21.3623046875,330.87158203125
6.378557920455933,-1267864007,0,1.1036254167556763,-1.2324862480163574,0.1412946879863739,508.544921875,-77.1484375,239.74609375
6.378565788269043,-1267863988,0,1.3892699480056763,-1.5820956230163574,0.2059919536113739,532.1044921875,-71.8994140625,268.37158203125
6.394932985305786,-1267864009,1,0.1431925892829895,0.1869904100894928,1.1903095245361328,295.41015625,75.0732421875,372.37548828125
6.39493989944458,-1267863990,1,0.1065714955329895,-0.0024627111852169037,1.2235126495361328,311.6455078125,129.39453125,409.3017578125
6.407408714294434,-1267863969,0,1.5672484636306763,-1.5012850761413574,0.1752302348613739,508.056640625,-21.240234375,260.8642578125
6.415156841278076,-1267863971,1,0.2406046986579895,-0.7182829976081848,1.5213642120361328,306.70166015625,169.0673828125,411.43798828125
6.4152398109436035,-1267863952,1,0.6268351674079895,-0.7602751851081848,1.4119892120361328,325.8056640625,202.20947265625,360.9619140625
6.444077730178833,-1267863950,0,1.4954711198806763,-0.7988925576210022,-0.0764787420630455,439.27001953125,-18.6767578125,171.875
6.4440858364105225,-1267863931,0,1.8795043230056763,-1.4900546073913574,0.1393415629863739,396.05712890625,-37.17041015625,38.39111328125
6.4447596073150635,-1267863933,1,0.5367472767829895,-0.9118865132331848,1.3341083526611328,404.052734375,265.13671875,348.57177734375
6.467777967453003,-1267863912,0,1.8926879167556763,-1.9527010917663574,0.3632185161113739,381.40869140625,16.17431640625,-93.32275390625
6.467875719070435,-1267863893,0,1.7227660417556763,-2.3753085136413574,0.1840192973613739,398.0712890625,165.4052734375,-229.30908203125
6.473972797393799,-1267863914,1,0.5533488392829895,-1.0366424322128296,1.2005634307861328,389.09912109375,321.044921875,330.2001953125
6.475448846817017,-1267863895,1,0.4483683705329895,-1.4194549322128296,1.2933368682861328,353.515625,414.36767578125,303.77197265625
6.497594833374023,-1267863874,0,1.6536742448806763,-2.9570956230163574,-0.0881974920630455,435.72998046875,298.095703125,-306.94580078125
6.508232831954956,-1267863876,1,0.5628703236579895,-1.8247283697128296,1.5277118682861328,451.59912109375,507.32421875,282.3486328125
6.54001259803772,-1267863838,0,1.1456176042556763,-3.1892733573913574,-0.3731096088886261,453.125,329.77294921875,-326.47705078125
6.5426857471466064,-1267863840,1,1.0987589359283447,-1.5488494634628296,2.409059524536133,547.54638671875,474.4873046875,184.326171875
6.557336807250977,-1267863819,0,0.9944944977760315,-2.9714999198913574,-0.2219865620136261,460.8154296875,314.14794921875,-302.18505859375
6.5648698806762695,-1267863821,1,1.1927530765533447,-1.6267303228378296,2.357301712036133,442.93212890625,314.8193359375,185.9130859375
6.5649638175964355,-1267863802,1,1.1446573734283447,-1.7844451665878296,1.9354267120361328,408.5693359375,255.126953125,159.48486328125
6.593365907669067,-1267863800,0,1.0880004167556763,-2.9068026542663574,0.1574079692363739,449.5849609375,314.697265625,-292.17529296875
6.593373775482178,-1267863781,0,0.8721800446510315,-2.5413241386413574,0.6925642490386963,432.55615234375,379.2724609375,-306.09130859375
6.59819483757019,-1267863783,1,1.1776163578033447,-1.6789764165878296,1.6876239776611328,378.47900390625,196.2890625,117.7978515625
6.61760687828064,-1267863762,0,0.7159300446510315,-2.5012850761413574,0.8746931552886963,435.546875,390.0146484375,-313.720703125
6.617748975753784,-1267863743,0,0.2462034970521927,-2.1267733573913574,0.9374372959136963,444.3359375,318.05419921875,-268.24951171875
6.624870777130127,-1267863764,1,0.9803507924079895,-1.2741912603378296,1.3341083526611328,394.287109375,153.076171875,26.30615234375
6.625008821487427,-1267863745,1,0.6793254017829895,-0.7053435444831848,1.3682880401611328,468.994140625,145.69091796875,-51.69677734375
6.6473228931427,-1267863724,0,0.5311155915260315,-1.4234042167663574,1.0575544834136963,454.345703125,230.52978515625,-276.123046875
6.654735803604126,-1267863726,1,0.3338664174079895,-0.2954314649105072,1.4354267120361328,501.5869140625,146.728515625,-81.48193359375
6.691173791885376,-1267863705,0,1.1231566667556763,-1.4402499198913574,1.1847517490386963,464.2333984375,149.0478515625,-345.3369140625
6.69118070602417,-1267863686,0,1.0997191667556763,-1.2981600761413574,1.2838728427886963,465.6982421875,104.1259765625,-424.86572265625
6.695330619812012,-1267863707,1,0.1666300892829895,-0.2348845899105072,1.3814716339111328,508.11767578125,111.9384765625,-132.87353515625
6.695339918136597,-1267863688,1,0.5306437611579895,-1.1338104009628296,2.209352493286133,556.15234375,38.57421875,-260.8642578125
6.707504749298096,-1267863667,0,0.1998167783021927,-1.5989413261413574,1.4801619052886963,450.74462890625,82.09228515625,-493.65234375
6.7149388790130615,-1267863669,1,-1.0262410640716553,0.0722443163394928,1.2012958526611328,372.74169921875,74.64599609375,-90.02685546875
6.715054750442505,-1267863650,1,-0.4976765513420105,1.2980743646621704,1.5623798370361328,738.46435546875,36.31591796875,-311.6455078125
6.744336843490601,-1267863648,0,0.1526976376771927,-1.5881991386413574,1.7579939365386963,494.81201171875,80.6884765625,-543.0908203125
6.744344711303711,-1267863629,0,-0.2000855654478073,-1.0982089042663574,1.0629255771636963,482.666015625,53.1005859375,-523.62060546875
6.746603012084961,-1267863631,1,-0.5772663950920105,0.7538849711418152,1.4989032745361328,603.69873046875,-65.36865234375,-244.2626953125
6.767905950546265,-1267863610,0,-0.6422242522239685,-0.7068515419960022,0.6693708896636963,450.1953125,-18.1884765625,-537.65869140625
6.774646997451782,-1267863612,1,-0.4639851450920105,0.6769806742668152,1.0316181182861328,582.6416015625,-155.8837890625,-270.3857421875
6.797639846801758,-1267863574,0,-1.9154175519943237,-1.0606112480163574,1.1073591709136963,342.041015625,-125.3662109375,-512.63427734375
6.805116891860962,-1267863576,1,-0.7454792857170105,0.4865509569644928,0.7308368682861328,537.841796875,-193.603515625,-103.82080078125
6.839561939239502,-1267863555,0,-2.3629274368286133,-0.5835605263710022,0.5700056552886963,311.82861328125,-71.10595703125,-389.0380859375
6.839569807052612,-1267863536,0,-2.0948610305786133,-0.001285117119550705,-0.3735978901386261,333.55712890625,-171.2646484375,-375.30517578125
6.842156648635864,-1267863557,1,-1.0916707515716553,0.5644318461418152,0.6749286651611328,543.212890625,-260.8642578125,3.11279296875
6.842164993286133,-1267863538,1,-1.4556844234466553,0.1725861132144928,0.3087177276611328,407.958984375,-370.91064453125,124.3896484375
6.857346773147583,-1267863517,0,-1.5467652082443237,-0.185611292719841,-0.7317521572113037,276.4892578125,-339.78271484375,-435.05859375
6.864938974380493,-1267863519,1,-1.5574910640716553,0.044168148189783096,0.00988961011171341,299.98779296875,-406.494140625,160.64453125
6.865015029907227,-1267863500,1,-1.6487996578216553,-0.3003142774105072,-0.1793193817138672,231.75048828125,-402.40478515625,170.83740234375
6.893917798995972,-1267863498,0,-1.5145386457443237,-0.7153964638710022,-0.5010392665863037,210.9375,-395.99609375,-508.1787109375
6.893924713134766,-1267863479,0,-1.9732788801193237,-1.0393710136413574,-0.2456682026386261,174.9267578125,-373.59619140625,-488.46435546875
6.894707918167114,-1267863481,1,-1.7630574703216553,-0.3025115430355072,-0.2806377410888672,160.64453125,-430.84716796875,145.69091796875
6.917390823364258,-1267863460,0,-2.0506715774536133,-1.4629549980163574,-0.4785783588886261,270.3857421875,-486.14501953125,-490.72265625
6.924701929092407,-1267863462,1,-1.9366414546966553,-0.2846892774105072,-0.2247295379638672,89.05029296875,-524.169921875,205.6884765625
6.924755811691284,-1267863443,1,-2.0819051265716553,-0.5715544819831848,-0.1278057098388672,35.09521484375,-607.97119140625,240.234375
6.948493719100952,-1267863441,0,-1.9215210676193237,-1.8980135917663574,-0.5291154384613037,369.93408203125,-654.11376953125,-494.9951171875
6.948501825332642,-1267863422,0,-2.1619997024536133,-1.8674960136413574,-0.2468889057636261,429.19921875,-771.6064453125,-451.47705078125
6.955036878585815,-1267863424,1,-2.0628621578216553,-0.4863494336605072,0.02527046948671341,-15.0146484375,-676.08642578125,215.51513671875
6.990422964096069,-1267863403,0,-2.0623903274536133,-1.5952792167663574,0.2267439067363739,417.66357421875,-718.8720703125,-374.20654296875
6.99043083190918,-1267863384,0,-2.2743043899536133,-1.6873202323913574,0.5319197177886963,372.6806640625,-604.1259765625,-300.10986328125
6.994449853897095,-1267863405,1,-2.1873738765716553,0.1039825975894928,0.12072945386171341,-12.20703125,-667.236328125,231.14013671875
6.9944586753845215,-1267863386,1,-2.4500691890716553,-0.3142302930355072,-0.3267803192138672,-38.14697265625,-686.6455078125,330.99365234375
7.0075719356536865,-1267863365,0,-1.8143433332443237,-1.9873690605163574,0.6596052646636963,227.294921875,-443.42041015625,-180.23681640625
7.014798641204834,-1267863367,1,-2.8585164546966553,0.4081818163394928,-0.2401103973388672,-35.64453125,-779.11376953125,302.490234375
7.045238018035889,-1267863346,0,-1.0457886457443237,-2.2058749198913574,0.0319196954369545,189.208984375,-220.947265625,-172.607421875
7.048450708389282,-1267863348,1,-2.0919148921966553,0.5949494242668152,0.2064228057861328,-244.93408203125,-831.48193359375,410.5224609375
7.067495822906494,-1267863310,0,-0.8529176115989685,-1.5952792167663574,0.4752790629863739,645.6298828125,-472.35107421875,-210.63232421875
7.096958875656128,-1267863291,0,-0.4713257849216461,-1.5425448417663574,0.6410505771636963,661.9873046875,-412.109375,-154.96826171875
7.09770393371582,-1267863272,0,0.058459360152482986,-1.1419100761413574,0.8861677646636963,628.5400390625,-276.67236328125,8.056640625
7.105104923248291,-1267863312,1,-1.2938191890716553,0.3678986132144928,0.9176044464111328,-202.94189453125,-587.2802734375,420.34912109375
7.105201721191406,-1267863293,1,-0.056758586317300797,-0.3662322461605072,1.0257587432861328,-190.4296875,-417.96875,375.79345703125
7.106511831283569,-1267863274,1,-0.4610554575920105,-0.9721892476081848,1.5946063995361328,-12.02392578125,-285.58349609375,96.98486328125
7.139433860778809,-1267863253,0,0.7737913727760315,-0.6174960732460022,0.7921736240386963,432.861328125,-143.1884765625,81.0546875
7.139441728591919,-1267863234,0,0.8008909821510315,-0.185855433344841,1.2865583896636963,615.966796875,-178.28369140625,94.1162109375
7.165099859237671,-1267863255,1,-0.7147175669670105,-0.1970427930355072,1.6817646026611328,88.623046875,-261.8408203125,-30.82275390625
7.165230751037598,-1267863236,1,-0.7645222544670105,0.5363556742668152,1.4288349151611328,95.703125,-290.4052734375,12.0849609375
7.1662938594818115,-1267863217,1,-1.0242879390716553,5.328103542327881,0.5084247589111328,222.71728515625,-222.59521484375,203.0029296875
7.16641092300415,-1267863198,1,1.2139933109283447,1.0812774896621704,0.5665302276611328,35.09521484375,-181.70166015625,32.16552734375
7.193827867507935,-1267863215,0,0.6751585602760315,-0.5618320107460022,1.2333357334136963,758.1787109375,-216.00341796875,52.30712890625
7.193835973739624,-1267863196,0,0.6827269196510315,-0.7188144326210022,1.5070173740386963,749.8779296875,-149.23095703125,87.646484375
7.193840742111206,-1267863177,0,1.2969847917556763,-0.4746737778186798,0.9547712802886963,653.74755859375,6.34765625,76.11083984375
7.194629907608032,-1267863179,1,0.6744425892829895,-0.1909392774105072,1.8638935089111328,302.24609375,-94.66552734375,-24.0478515625
7.217334032058716,-1267863158,0,0.6956663727760315,-1.0686678886413574,0.8688337802886963,666.07666015625,104.1259765625,227.4169921875
7.224743843078613,-1267863160,1,0.046757038682699203,1.2795196771621704,1.6268329620361328,266.845703125,-146.78955078125,76.904296875
7.224820852279663,-1267863141,1,-0.1739460825920105,0.9316193461418152,1.4285907745361328,247.74169921875,-159.72900390625,218.1396484375
7.24812388420105,-1267863139,0,0.5504027009010315,-1.0147128105163574,0.2018415629863739,615.234375,122.61962890625,323.8525390625
7.24813175201416,-1267863120,0,0.8599730134010315,-1.1528964042663574,-0.1033342108130455,580.13916015625,68.4814453125,397.03369140625
7.254901885986328,-1267863122,1,-0.5765339732170105,0.4142853319644928,1.3245868682861328,242.73681640625,-110.107421875,326.72119140625
7.29112982749939,-1267863101,0,1.2681761980056763,-1.2464022636413574,-0.1848771870136261,613.09814453125,31.43310546875,484.55810546875
7.295458078384399,-1267863103,1,-0.1827351450920105,-0.0036834143102169037,0.9403095245361328,241.3330078125,-53.466796875,347.10693359375
7.29546594619751,-1267863084,1,0.0931437611579895,0.034158382564783096,0.7552509307861328,287.78076171875,43.88427734375,320.9228515625
7.3074259757995605,-1267863082,0,1.5526000261306763,-1.4180331230163574,0.0477888360619545,638.7939453125,35.64453125,494.2626953125
7.344866037368774,-1267863046,0,1.9781371355056763,-2.1765780448913574,-0.0198381170630455,613.46435546875,91.796875,485.90087890625
7.346621751785278,-1267863027,0,1.8494750261306763,-1.3833651542663574,-0.2178361713886261,534.0576171875,57.43408203125,385.07080078125
7.3471949100494385,-1267863048,1,0.1336711049079895,-0.7141326069831848,1.7987079620361328,378.90625,250.3662109375,415.34423828125
7.3472020626068115,-1267863029,1,0.9022257924079895,-0.5503142476081848,1.8487567901611328,377.8076171875,216.9189453125,328.43017578125
7.36734676361084,-1267863008,0,2.3919553756713867,-1.6294589042663574,-0.3850724995136261,486.87744140625,-14.2822265625,204.9560546875
7.374889850616455,-1267863010,1,0.7679484486579895,-0.5613005757331848,1.4244403839111328,362.1826171875,185.1806640625,329.9560546875
7.375020742416382,-1267862991,1,0.4559367299079895,-0.6245329976081848,0.9093036651611328,356.38427734375,280.029296875,386.1083984375
7.397756814956665,-1267862989,0,2.6392698287963867,-1.8225741386413574,-0.1350724995136261,407.04345703125,-69.4580078125,-24.71923828125
7.4050726890563965,-1267862972,1,0.1656535267829895,-1.5893768072128296,1.0719013214111328,377.685546875,423.9501953125,444.580078125
7.439506769180298,-1267862970,0,2.0955686569213867,-2.7234530448913574,-0.6797502040863037,311.34033203125,-26.79443359375,-260.19287109375
7.439514875411987,-1267862951,0,1.0616332292556763,-3.4221835136413574,-0.1755998432636261,330.2001953125,184.326171875,-354.30908203125
7.44058084487915,-1267862932,0,0.9586058259010315,-3.2153964042663574,-0.1592424213886261,408.69140625,285.2783203125,-343.3837890625
7.44232177734375,-1267862953,1,0.7594035267829895,-2.24147629737854,1.6163349151611328,428.77197265625,514.0380859375,365.1123046875
7.44310188293457,-1267862934,1,1.1400187015533447,-1.7368377447128296,2.032594680786133,500.30517578125,559.02099609375,276.3671875
7.463796854019165,-1267862915,1,1.0574991703033447,-1.9636443853378296,2.138551712036133,458.3740234375,512.3291015625,307.18994140625
7.494285821914673,-1267862913,0,0.9681273102760315,-2.8010897636413574,-0.3005998432636261,450.1953125,301.513671875,-361.26708984375
7.494293928146362,-1267862894,0,1.1260863542556763,-2.7390780448913574,-0.2295549213886261,447.20458984375,278.38134765625,-405.3955078125
7.494298696517944,-1267862875,0,0.8279905915260315,-3.1882967948913574,0.1615583598613739,431.7626953125,361.38916015625,-419.73876953125
7.4949047565460205,-1267862896,1,1.0626261234283447,-2.12282395362854,2.375123977661133,412.9638671875,417.3583984375,311.03515625
7.494946002960205,-1267862877,1,1.4552042484283447,-2.05055832862854,1.9852313995361328,380.2490234375,231.87255859375,247.13134765625
7.517382860183716,-1267862856,0,1.2620726823806763,-2.8333163261413574,0.5756208896636963,447.69287109375,385.55908203125,-421.7529296875
7.524784803390503,-1267862858,1,1.3228800296783447,-2.19460129737854,1.2327899932861328,439.8193359375,143.06640625,91.49169921875
7.54880690574646,-1267862837,0,0.7642698884010315,-2.4397616386413574,0.5775740146636963,458.8623046875,399.96337890625,-432.373046875
7.548815727233887,-1267862818,0,0.1578245908021927,-1.9426913261413574,1.2482283115386963,463.43994140625,346.00830078125,-457.45849609375
7.554961919784546,-1267862839,1,0.4032023549079895,-1.1147674322128296,1.2962665557861328,427.978515625,146.1181640625,16.4794921875
7.555117845535278,-1267862820,1,0.3717082142829895,-0.8510954976081848,1.6532001495361328,532.3486328125,170.166015625,-26.9775390625
7.592139959335327,-1267862784,1,0.1173136830329895,-0.4214080274105072,1.6019306182861328,702.2705078125,96.98486328125,-242.49267578125
7.60760760307312,-1267862782,0,1.2056761980056763,-1.9834628105163574,1.0206892490386963,512.939453125,179.50439453125,-437.1337890625
7.607770681381226,-1267862763,0,1.9156371355056763,-1.3113436698913574,0.9403669834136963,500.91552734375,51.513671875,-479.79736328125
7.614861726760864,-1267862765,1,-0.1766316294670105,0.7824494242668152,1.2410907745361328,726.1962890625,3.96728515625,-380.7373046875
7.645724773406982,-1267862744,0,0.7796507477760315,-0.9912753701210022,1.8849470615386963,478.45458984375,32.1044921875,-667.66357421875
7.645735740661621,-1267862725,0,-0.2667359411716461,-1.7302889823913574,2.3019392490386963,463.56201171875,68.54248046875,-694.82421875
7.647521018981934,-1267862746,1,0.1087687611579895,-0.2641814649105072,1.7782001495361328,729.67529296875,77.5146484375,-406.79931640625
7.64802360534668,-1267862727,1,-0.8502156138420105,1.5485626459121704,1.8634052276611328,733.2763671875,6.40869140625,-366.3330078125
7.66741681098938,-1267862706,0,-0.7445191740989685,-1.2041659355163574,1.4650251865386963,461.24267578125,143.98193359375,-595.21484375
7.676178932189941,-1267862708,1,-0.5374714732170105,0.7782990336418152,1.6334247589111328,685.36376953125,-81.4208984375,-284.24072265625
7.69755482673645,-1267862687,0,-1.3761109113693237,-0.9197421669960022,0.4952985942363739,423.40087890625,118.0419921875,-548.828125
7.6976659297943115,-1267862668,0,-1.6744507551193237,-0.4214511215686798,0.3668806254863739,386.90185546875,-145.32470703125,-540.71044921875
7.704913854598999,-1267862689,1,-0.3546101450920105,0.9430939555168152,1.1170673370361328,730.52978515625,-100.76904296875,-189.75830078125
7.704975843429565,-1267862670,1,-0.5765339732170105,0.6989533305168152,1.2113056182861328,663.39111328125,-103.271484375,-59.99755859375
7.7385687828063965,-1267862649,0,-2.4857301712036133,-1.1814608573913574,1.2623884677886963,344.7265625,-212.34130859375,-429.931640625
7.7419960498809814,-1267862651,1,-0.8424031138420105,0.3923126757144928,1.2440204620361328,530.70068359375,-219.66552734375,38.57421875
7.74200177192688,-1267862632,1,-1.4669148921966553,-0.046408023685216904,0.4932880401611328,442.56591796875,-349.79248046875,96.8017578125
7.757483959197998,-1267862630,0,-1.5882691144943237,-0.2778964340686798,0.5097029209136963,343.26171875,-178.40576171875,-240.90576171875
7.757608890533447,-1267862611,0,-1.3795288801193237,0.207699254155159,-0.4334123432636261,289.12353515625,-151.9775390625,-311.1572265625
7.764734983444214,-1267862613,1,-1.7298543453216553,-0.2727263867855072,-0.04675101488828659,365.29541015625,-355.8349609375,132.4462890625
7.794049978256226,-1267862592,0,-1.7786988019943237,0.171322301030159,-1.1558244228363037,239.3798828125,-383.9111328125,-509.6435546875
7.794814825057983,-1267862594,1,-1.5084187984466553,-0.3252166211605072,-0.2574443817138672,266.357421875,-333.80126953125,102.84423828125
7.794925689697266,-1267862575,1,-1.1812703609466553,-0.3767302930355072,-0.1832256317138672,246.337890625,-332.94677734375,143.85986328125
7.817529678344727,-1267862573,0,-1.4491089582443237,-1.3286776542663574,-0.0293596014380455,162.9638671875,-700.68359375,-590.6982421875
7.8176398277282715,-1267862554,0,-1.9808472394943237,-1.9104647636413574,1.3241560459136963,263.7939453125,-696.1669921875,-470.5810546875
7.824635744094849,-1267862556,1,-2.0860555171966553,-0.2021697461605072,0.2520771026611328,186.03515625,-404.60205078125,182.373046875
7.850468873977661,-1267862518,0,-0.8746461272239685,-1.8530917167663574,0.6774275302886963,338.9892578125,-898.49853515625,-439.94140625
7.854761838912964,-1267862520,1,-2.4683797359466553,-1.1067107915878296,0.5096454620361328,85.02197265625,-513.36669921875,337.7685546875
7.889122009277344,-1267862499,0,-0.8897828459739685,-2.2832674980163574,1.7682478427886963,208.55712890625,-683.59375,-547.30224609375
7.892673015594482,-1267862501,1,-2.3065145015716553,-0.2314666211605072,-0.05676078051328659,38.39111328125,-688.04931640625,485.29052734375
7.892679929733276,-1267862482,1,-2.2882039546966553,-1.1469939947128296,-0.2479228973388672,-47.79052734375,-770.69091796875,535.33935546875
7.907514810562134,-1267862480,0,-2.7086305618286133,-2.6521639823913574,1.7116072177886963,391.2353515625,-344.1162109375,-472.0458984375
7.907658815383911,-1267862461,0,-2.7747926712036133,-3.0181307792663574,-0.2202775776386261,437.5,-198.8525390625,-223.7548828125
7.914836883544922,-1267862463,1,-2.5169637203216553,-0.4350799024105072,-0.2493877410888672,73.66943359375,-635.7421875,346.13037109375
7.946746826171875,-1267862442,0,-2.0948610305786133,-2.5637850761413574,-0.1958635151386261,429.0771484375,-375.06103515625,-115.05126953125
7.946759939193726,-1267862444,1,-3.0567586421966553,0.6157013773918152,-0.03771781176328659,-75.74462890625,-512.63427734375,422.36328125
7.947175741195679,-1267862425,1,-2.2147176265716553,-0.042501773685216904,0.4002704620361328,-115.966796875,-505.0048828125,551.025390625
7.967453956604004,-1267862423,0,-0.7279176115989685,-1.7200350761413574,1.1285994052886963,431.70166015625,-368.0419921875,-81.4208984375
7.967576742172241,-1267862404,0,-0.5431031584739685,-1.8701815605163574,1.2286970615386963,581.298828125,-306.21337890625,-53.5888671875
7.974680662155151,-1267862406,1,-1.1148641109466553,-0.2141326367855072,0.7081317901611328,-144.71435546875,-529.84619140625,573.1201171875
7.9975197315216064,-1267862385,0,-0.8121461272239685,-1.7520174980163574,1.4323103427886963,726.6845703125,-410.33935546875,-38.818359375
7.997619867324829,-1267862366,0,-0.1937379091978073,-1.7930331230163574,1.3036482334136963,805.908203125,-408.63037109375,17.88330078125
8.0050208568573,-1267862387,1,-0.2708699107170105,-0.2280486524105072,0.8504657745361328,-200.86669921875,-520.69091796875,476.25732421875
8.005121946334839,-1267862368,1,0.056766804307699203,0.1916290819644928,1.3155536651611328,-83.06884765625,-391.2353515625,319.76318359375
8.040082931518555,-1267862347,0,0.2234984189271927,-1.5694003105163574,1.5048201084136963,788.818359375,-299.072265625,104.91943359375
8.042728900909424,-1267862349,1,-0.3614460825920105,1.3051544427871704,1.9837665557861328,15.93017578125,-305.17578125,300.537109375
8.042735815048218,-1267862330,1,0.5011027455329895,0.8388459086418152,2.182497024536133,100.341796875,-346.435546875,168.51806640625
8.057501792907715,-1267862328,0,0.3101683557033539,-1.7056307792663574,1.5648787021636963,839.90478515625,-138.3056640625,256.591796875
8.057622909545898,-1267862309,0,0.4024535119533539,-1.1624178886413574,1.1056501865386963,682.861328125,-79.345703125,267.333984375
8.065374851226807,-1267862311,1,-0.3272663950920105,0.9711701273918152,2.427858352661133,193.2373046875,-375.42724609375,179.931640625
8.094795942306519,-1267862290,0,0.6671019196510315,-0.8945956826210022,0.4103376567363739,718.1396484375,-37.109375,332.275390625
8.095285892486572,-1267862292,1,-1.0772664546966553,0.9064728617668152,2.000368118286133,270.8740234375,-399.23095703125,195.1904296875
8.14665699005127,-1267862254,0,1.2396117448806763,-1.1560702323913574,-0.3115861713886261,649.35302734375,28.80859375,406.06689453125
8.1476149559021,-1267862235,0,1.6280394792556763,-1.0896639823913574,-0.1716935932636261,666.015625,68.603515625,451.7822265625
8.147703647613525,-1267862216,0,1.5772582292556763,-0.9873691201210022,-0.2136857807636261,557.7392578125,114.3798828125,400.390625
8.155299663543701,-1267862256,1,-1.2032430171966553,0.9824005961418152,0.1395282745361328,237.9150390625,-166.9921875,263.5498046875
8.155427694320679,-1267862237,1,-0.5404011607170105,0.4626251757144928,0.4056415557861328,187.6220703125,6.28662109375,325.13427734375
8.15551471710205,-1267862218,1,0.037479694932699203,0.1511017382144928,1.0814228057861328,247.0703125,132.50732421875,254.08935546875
8.190898895263672,-1267862197,0,1.6295043230056763,-1.3401522636413574,-0.007631085813045502,549.072265625,50.048828125,307.06787109375
8.19362998008728,-1267862199,1,0.0679972767829895,0.4584747850894928,1.0899677276611328,240.72265625,158.0810546875,318.4814453125
8.193636894226074,-1267862180,1,-0.3475300669670105,0.037088070064783096,1.3814716339111328,196.6552734375,228.21044921875,489.19677734375
8.207520008087158,-1267862178,0,1.9022094011306763,-1.8018221855163574,-0.0283830389380455,553.3447265625,-29.72412109375,284.48486328125
8.20763087272644,-1267862159,0,2.2862424850463867,-1.5156893730163574,-0.0296037420630455,512.6953125,-81.787109375,243.83544921875
8.214690685272217,-1267862161,1,0.058475788682699203,-1.2270721197128296,1.9622821807861328,203.18603515625,227.294921875,523.3154296875
8.246514797210693,-1267862140,0,2.0211057662963867,-1.0293612480163574,0.0497419610619545,462.70751953125,-97.5341796875,49.98779296875
8.248151779174805,-1267862142,1,0.5877726674079895,-1.3217986822128296,1.8621845245361328,348.81591796875,242.98095703125,398.62060546875
8.248157978057861,-1267862123,1,0.2618449330329895,-1.4297088384628296,1.5496845245361328,460.38818359375,341.4306640625,369.140625
8.267570972442627,-1267862121,0,1.7139769792556763,-1.7927889823913574,-0.0752580389380455,392.39501953125,-84.716796875,-99.67041015625
8.26763391494751,-1267862102,0,0.9954710602760315,-2.5447421073913574,0.3058454692363739,344.3603515625,35.15625,-126.15966796875
8.274918794631958,-1267862104,1,0.2303507924079895,-1.8750213384628296,1.6439228057861328,461.9140625,427.67333984375,394.1650390625
8.298157691955566,-1267862083,0,1.4481078386306763,-1.9373202323913574,0.4115583598613739,461.85302734375,186.21826171875,-170.0439453125
8.298166990280151,-1267862064,0,2.2217893600463867,-1.8347811698913574,0.2916853129863739,472.900390625,313.8427734375,-388.36669921875
8.304900884628296,-1267862085,1,0.8477824330329895,-2.56252121925354,1.7430438995361328,501.03759765625,496.27685546875,317.68798828125
8.304967880249023,-1267862066,1,1.6685831546783447,-3.51149582862854,1.9278583526611328,531.55517578125,472.7783203125,221.0693359375
8.342614889144897,-1267862045,0,0.6902952790260315,-4.218326091766357,0.2523786723613739,474.853515625,382.2021484375,-375.0
8.344405889511108,-1267862047,1,1.7271769046783447,-2.03639817237854,2.421022415161133,452.7587890625,268.37158203125,155.82275390625
8.357346057891846,-1267862026,0,1.3045531511306763,-2.8196444511413574,-0.0161760076880455,500.67138671875,344.05517578125,-276.30615234375
8.36482572555542,-1267862028,1,1.4075968265533447,-1.6850799322128296,1.4154071807861328,463.623046875,171.5087890625,111.75537109375
8.394567728042603,-1267861990,0,1.2527953386306763,-3.1087069511413574,0.6552107334136963,443.05419921875,244.0185546875,-371.52099609375
8.395116806030273,-1267861992,1,1.6036417484283447,-1.4314178228378296,0.8450946807861328,441.46728515625,269.34814453125,-16.90673828125
8.395124912261963,-1267861973,1,1.6595499515533447,-1.4699920415878296,1.1448993682861328,549.6826171875,236.63330078125,-18.73779296875
8.417489767074585,-1267861971,0,1.1485472917556763,-2.5928378105163574,1.1405622959136963,486.6943359375,239.07470703125,-421.69189453125
8.417608976364136,-1267861952,0,1.2567015886306763,-2.8762850761413574,1.2401716709136963,475.09765625,217.71240234375,-501.40380859375
8.42470669746399,-1267861954,1,0.8883097767829895,-1.2895721197128296,1.7747821807861328,659.60693359375,208.740234375,-116.8212890625
8.447475910186768,-1267861933,0,1.7650023698806763,-2.8438143730163574,1.7994978427886963,465.02685546875,77.5146484375,-541.3818359375
8.447610855102539,-1267861914,0,1.6644164323806763,-2.6416659355163574,1.9518415927886963,507.62939453125,51.81884765625,-723.2666015625
8.455130815505981,-1267861935,1,-2.4053914546966553,0.1708771288394928,0.5225849151611328,605.3466796875,134.82666015625,-188.41552734375
8.455261945724487,-1267861916,1,-0.043819133192300797,0.4799591600894928,1.8782978057861328,781.18896484375,148.681640625,-447.8759765625
8.490474939346313,-1267861895,0,0.9398069977760315,-2.4190096855163574,1.6285994052886963,485.2294921875,77.2705078125,-757.9345703125
8.493207693099976,-1267861897,1,0.030155476182699203,0.3085724413394928,1.9835224151611328,718.07861328125,123.59619140625,-431.884765625
8.507606029510498,-1267861876,0,0.1778441220521927,-1.8025546073913574,1.3654158115386963,458.19091796875,44.189453125,-748.71826171875
8.507727861404419,-1267861857,0,-0.08411876857280731,-1.4404940605163574,1.0431501865386963,438.41552734375,-36.07177734375,-759.6435546875
8.514896869659424,-1267861878,1,-0.1514851450920105,0.8486115336418152,1.9044208526611328,723.08349609375,114.2578125,-443.9697265625
8.514978647232056,-1267861859,1,-0.1832234263420105,0.9267365336418152,1.5672626495361328,656.005859375,33.447265625,-357.11669921875
8.543729782104492,-1267861838,0,-0.7313355803489685,-1.3557772636413574,1.0409529209136963,351.07421875,-117.0654296875,-708.31298828125
8.546032905578613,-1267861840,1,-0.2220417857170105,0.8305451273918152,1.0531024932861328,598.81591796875,-47.4853515625,-266.54052734375
8.546040773391724,-1267861821,1,-0.3944050669670105,0.5881134867668152,0.9388446807861328,630.4931640625,-60.546875,-118.59130859375
8.567565679550171,-1267861819,0,-1.6908081769943237,-1.0051913261413574,1.4198591709136963,298.583984375,-118.2861328125,-586.42578125
8.567706823348999,-1267861800,0,-1.9312866926193237,-0.107486292719841,0.8290388584136963,295.71533203125,-132.2021484375,-528.99169921875
8.574659824371338,-1267861802,1,-0.9119831919670105,0.7428986430168152,1.2210712432861328,600.9521484375,-109.86328125,-15.80810546875
8.597542762756348,-1267861781,0,-2.0648317337036133,0.048031289130449295,0.5675642490386963,255.4931640625,-205.26123046875,-504.45556640625
8.604912757873535,-1267861783,1,-1.3560750484466553,0.4670197069644928,0.7796649932861328,395.751953125,-272.3388671875,128.7841796875
8.605037689208984,-1267861764,1,-1.5963094234466553,0.013650570064783096,0.03723336011171341,262.20703125,-361.63330078125,188.04931640625
8.629085779190063,-1267861762,0,-1.7882202863693237,-0.188785120844841,0.0526716485619545,183.53271484375,-313.4765625,-504.08935546875
8.656684637069702,-1267861726,0,-2.0106325149536133,-1.4971346855163574,0.5243513584136963,166.9921875,-452.69775390625,-570.37353515625
8.657498836517334,-1267861707,0,-2.2025270462036133,-1.8076815605163574,0.2792341411113739,273.4375,-575.927734375,-549.49951171875
8.66500973701477,-1267861728,1,-1.8113973140716553,-0.0864470899105072,-0.1695537567138672,192.7490234375,-468.75,231.14013671875
8.66512680053711,-1267861709,1,-1.8196980953216553,-0.0981658399105072,0.2017841339111328,138.0615234375,-559.4482421875,279.052734375
8.69486689567566,-1267861688,0,-1.9898804426193237,-2.1233553886413574,0.3361189067363739,293.27392578125,-705.4443359375,-549.49951171875
8.695405721664429,-1267861690,1,-2.1824910640716553,-0.4724334180355072,0.3631610870361328,80.26123046875,-629.7607421875,331.6650390625
8.695413827896118,-1267861671,1,-2.1761434078216553,-0.2329314649105072,0.5865497589111328,-11.474609375,-796.0205078125,354.6142578125
8.717513799667358,-1267861669,0,-1.9444702863693237,-2.0896639823913574,0.7492048740386963,448.91357421875,-834.41162109375,-493.2861328125
8.717607736587524,-1267861650,0,-2.3150758743286133,-2.3550448417663574,0.5385115146636963,507.568359375,-773.4375,-389.404296875
8.724671840667725,-1267861652,1,-2.8719441890716553,-0.2404998242855072,0.5347919464111328,-39.61181640625,-869.873046875,406.18896484375
8.747424840927124,-1267861631,0,-2.3783082962036133,-3.0440096855163574,1.0482771396636963,253.90625,-361.4501953125,-209.9609375
8.757759809494019,-1267861633,1,-2.9578816890716553,0.1428009569644928,0.3265399932861328,-35.64453125,-826.47705078125,361.99951171875
8.75776982307434,-1267861614,1,-2.7689168453216553,0.3976837694644928,0.3309345245361328,-71.47216796875,-710.693359375,349.609375
8.790112018585205,-1267861612,0,-2.5848512649536133,-3.1404452323913574,-0.2715471088886261,-33.50830078125,-15.44189453125,-77.69775390625
8.790118932723999,-1267861593,0,-1.1485718488693237,-1.8240389823913574,0.1464216411113739,194.15283203125,-294.7998046875,-47.05810546875
8.792938947677612,-1267861595,1,-3.2325398921966553,-1.9421600103378296,-0.5386943817138672,-26.611328125,-524.84130859375,235.3515625
8.807531833648682,-1267861574,0,-0.7447633147239685,-1.5269198417663574,0.5673201084136963,479.3701171875,-361.87744140625,-220.458984375
8.80768084526062,-1267861555,0,-0.5614137053489685,-1.3194003105163574,0.6913435459136963,652.4658203125,-434.75341796875,-229.4921875
8.815120697021484,-1267861576,1,-1.4901082515716553,0.1755158007144928,0.9420185089111328,-30.57861328125,-363.525390625,158.935546875
8.815188884735107,-1267861557,1,-1.3712117671966553,0.4579865038394928,1.7369403839111328,-12.02392578125,-363.76953125,183.77685546875
8.845069646835327,-1267861536,0,-0.4881714880466461,-1.2424960136413574,1.1354353427886963,659.85107421875,-364.44091796875,-181.884765625
8.845581769943237,-1267861538,1,-1.0423543453216553,0.0929962694644928,1.6275653839111328,3.2958984375,-458.1298828125,195.37353515625
8.867624759674072,-1267861517,0,-0.6261109709739685,-1.8086581230163574,1.7680037021636963,709.04541015625,-262.0849609375,-25.81787109375
8.867704629898071,-1267861498,0,-0.2042359560728073,-1.3870272636413574,1.8693220615386963,760.498046875,-235.29052734375,106.8115234375
8.874788761138916,-1267861519,1,-1.2430379390716553,0.4831329882144928,1.0994892120361328,101.4404296875,-402.64892578125,160.46142578125
8.874926805496216,-1267861500,1,-1.1524617671966553,0.8786408305168152,0.6859149932861328,146.484375,-215.6982421875,235.41259765625
8.905190706253052,-1267861464,1,-0.3631550669670105,1.3793731927871704,1.8641376495361328,120.78857421875,-118.2861328125,285.82763671875
8.938384771347046,-1267861462,0,0.4254027307033539,-1.4375643730163574,0.7743513584136963,830.87158203125,-163.26904296875,303.1005859375
8.93839168548584,-1267861443,0,0.7259398102760315,-1.5061678886413574,0.3063337504863739,759.70458984375,-94.970703125,380.615234375
8.941541910171509,-1267861445,1,-0.6151081919670105,0.5766388773918152,1.6649188995361328,50.84228515625,-222.16796875,422.79052734375
8.9575936794281,-1267861424,0,1.1006957292556763,-1.3899569511413574,0.3046247661113739,706.0546875,-72.021484375,420.2880859375
8.957656860351562,-1267861405,0,1.6070433855056763,-1.2874178886413574,0.1952497661113739,756.04248046875,-65.91796875,414.61181640625
