sync_time,timestamp_ms,device_id,ax,ay,az,gx,gy,gz
0.009754180908203125,-1270139834,1,0.18812455236911774,0.9357813596725464,-0.14502261579036713,-27.52685546875,4.57763671875,-15.80810546875
0.024712085723876953,-1270139815,0,-0.0699084922671318,0.9796382188796997,-0.027049921452999115,24.90234375,11.65771484375,-13.916015625
0.04707813262939453,-1270139815,1,0.18104447424411774,0.9152735471725464,-0.14429019391536713,-24.2919921875,10.68115234375,-15.56396484375
0.04708600044250488,-1270139796,1,0.18519486486911774,0.9077051877975464,-0.14111636579036713,-25.32958984375,18.6767578125,-17.2119140625
0.05435585975646973,-1270139796,0,-0.0655139610171318,0.9620600938796997,-0.040721796452999115,27.34375,17.9443359375,-15.380859375
0.05443096160888672,-1270139777,0,-0.0735706016421318,0.9737788438796997,-0.024608515202999115,26.4892578125,26.7333984375,-13.73291015625
0.0692131519317627,-1270139777,1,0.18177689611911774,0.9013575315475464,-0.14258120954036713,-23.8037109375,29.4189453125,-20.6298828125
0.08520221710205078,-1270139758,0,-0.0794299766421318,0.9764643907546997,-0.054393671452999115,23.8037109375,22.76611328125,-12.3291015625
0.10024118423461914,-1270139758,1,0.17420853674411774,0.9106348752975464,-0.14648745954036713,-21.78955078125,25.81787109375,-15.2587890625
0.1002500057220459,-1270139739,1,0.17347611486911774,0.9042872190475464,-0.14575503766536713,-18.06640625,23.49853515625,-16.05224609375
0.11424827575683594,-1270139739,0,-0.0745471641421318,0.9779292345046997,-0.053905390202999115,22.03369140625,23.98681640625,-9.94873046875
0.12925100326538086,-1270139720,1,0.18080033361911774,0.8911036252975464,-0.14648745954036713,-18.310546875,27.16064453125,-12.5732421875
0.1585252285003662,-1270139701,1,0.18885697424411774,0.8828028440475464,-0.13501285016536713,-13.3056640625,36.1328125,-11.53564453125
0.1593630313873291,-1270139682,1,0.19813431799411774,0.8786524534225464,-0.13281558454036713,-4.94384765625,50.35400390625,-6.4697265625
0.17435598373413086,-1270139703,0,-0.0716174766421318,0.9562007188796997,-0.034618280827999115,13.97705078125,45.654296875,-11.5966796875
0.1744670867919922,-1270139684,0,-0.0647815391421318,0.9493647813796997,-0.034618280827999115,9.27734375,53.40576171875,-12.87841796875
0.1756291389465332,-1270139665,0,-0.0733264610171318,0.9530268907546997,-0.045360468327999115,1.40380859375,58.349609375,-13.00048828125
0.19478106498718262,-1270139663,1,0.20155228674411774,0.8815821409225464,-0.13745425641536713,-1.52587890625,60.36376953125,-6.7138671875
0.20438122749328613,-1270139646,0,-0.0633166953921318,0.9688960313796997,-0.054393671452999115,-1.46484375,64.51416015625,-12.939453125
0.204498291015625,-1270139627,0,-0.0628284141421318,0.9918452501296997,-0.045116327702999115,-0.30517578125,74.8291015625,-12.02392578125
0.21918892860412598,-1270139627,1,0.21595658361911774,0.9265040159225464,-0.15454410016536713,0.79345703125,77.94189453125,-12.20703125
0.24244308471679688,-1270139608,0,-0.060387007892131805,1.0045405626296997,-0.051952265202999115,-2.25830078125,103.94287109375,-16.17431640625
0.2495732307434082,-1270139608,1,0.22498978674411774,0.9504297971725464,-0.15356753766536713,2.86865234375,100.2197265625,-13.24462890625
0.24968600273132324,-1270139589,1,0.22279252111911774,0.9631251096725464,-0.15283511579036713,7.14111328125,120.2392578125,-10.80322265625
0.2645430564880371,-1270139589,0,-0.062095992267131805,1.0008784532546997,-0.06684484332799911,-4.45556640625,126.46484375,-16.78466796875
0.2647380828857422,-1270139570,0,-0.0711291953921318,1.0094233751296997,-0.060008905827999115,-6.89697265625,134.09423828125,-15.13671875
0.27932000160217285,-1270139570,1,0.19959916174411774,0.9189356565475464,-0.14819644391536713,13.671875,133.72802734375,-15.2587890625
0.2959721088409424,-1270139551,0,-0.0811389610171318,1.0082026720046997,-0.06855382770299911,-5.615234375,124.755859375,-10.7421875
0.29598212242126465,-1270139532,0,-0.0667346641421318,1.0064936876296997,-0.046337030827999115,-2.74658203125,128.84521484375,-11.5966796875
0.30941319465637207,-1270139551,1,0.19593705236911774,0.9274805784225464,-0.14282535016536713,17.63916015625,131.591796875,-22.76611328125
0.30950021743774414,-1270139532,1,0.20008744299411774,0.9067286252975464,-0.15845035016536713,13.18359375,136.29150390625,-28.80859375
0.32460618019104004,-1270139513,0,-0.062095992267131805,0.9488765001296997,-0.07172765582799911,0.1220703125,147.15576171875,-15.44189453125
0.34642910957336426,-1270139513,1,0.19642533361911774,0.9196680784225464,-0.16479800641536713,11.90185546875,145.08056640625,-28.01513671875
0.3464372158050537,-1270139494,1,0.18519486486911774,0.8879297971725464,-0.15600894391536713,13.61083984375,159.24072265625,-21.42333984375
0.3543851375579834,-1270139494,0,-0.0840686485171318,0.9281245470046997,-0.045116327702999115,0.18310546875,157.89794921875,-19.4091796875
0.35451412200927734,-1270139475,0,-0.1111682578921318,0.9041987657546997,-0.022655390202999115,-3.90625,147.52197265625,-18.49365234375
0.36920714378356934,-1270139475,1,0.15565384924411774,0.8561915159225464,-0.16406558454036713,20.32470703125,165.34423828125,-16.90673828125
0.3987700939178467,-1270139456,1,0.12831009924411774,0.8669337034225464,-0.16650699079036713,18.61572265625,161.865234375,-21.240234375
0.3993661403656006,-1270139437,1,0.10658158361911774,0.8683985471725464,-0.17480777204036713,12.26806640625,142.02880859375,-22.3388671875
0.41443300247192383,-1270139439,0,-0.1167834922671318,0.9339839220046997,-0.014598749577999115,-0.6103515625,96.37451171875,-17.27294921875
0.4145379066467285,-1270139420,0,-0.054283492267131805,0.9532710313796997,-0.022411249577999115,1.52587890625,105.95703125,-29.541015625
0.4292480945587158,-1270139418,1,0.12928666174411774,0.8808497190475464,-0.14575503766536713,0.54931640625,127.5634765625,-13.24462890625
0.4483530521392822,-1270139401,0,-0.0635608360171318,0.9356929063796997,-0.061717890202999115,-3.84521484375,131.28662109375,-34.5458984375
0.448361873626709,-1270139382,0,-0.0830920860171318,0.9034663438796997,-0.026805780827999115,-10.80322265625,155.76171875,-36.9873046875
0.45931005477905273,-1270139399,1,0.15052689611911774,0.9167383909225464,-0.14477847516536713,-0.48828125,125.732421875,-2.3193359375
0.475675106048584,-1270139363,0,-0.0979846641421318,0.8973628282546997,-0.023876093327999115,-11.3525390625,164.12353515625,-42.48046875
0.49480700492858887,-1270139363,1,0.18373002111911774,0.8935450315475464,-0.12817691266536713,-1.77001953125,138.7939453125,2.44140625
0.4948160648345947,-1270139344,1,0.16078080236911774,0.8703516721725464,-0.15088199079036713,-5.43212890625,146.54541015625,-9.765625
0.5044369697570801,-1270139344,0,-0.0891956016421318,0.9432612657546997,-0.036083124577999115,-5.615234375,145.08056640625,-41.6259765625
0.5073981285095215,-1270139325,0,-0.1048206016421318,0.9896479845046997,-0.022655390202999115,0.30517578125,131.16455078125,-43.45703125
0.5195751190185547,-1270139325,1,0.14076127111911774,0.9265040159225464,-0.17871402204036713,-14.6484375,144.10400390625,-17.578125
0.5423130989074707,-1270139306,0,-0.1084827110171318,1.0555659532546997,-0.039012812077999115,10.31494140625,128.0517578125,-53.64990234375
0.5496370792388916,-1270139306,1,0.15956009924411774,1.0307520627975464,-0.20410464704036713,-23.92578125,135.7421875,-11.04736328125
0.5497090816497803,-1270139287,1,0.19496048986911774,1.1010645627975464,-0.15625308454036713,-22.705078125,121.2158203125,5.4931640625
0.5646121501922607,-1270139287,0,-0.1282581090927124,1.0802241563796997,-0.045360468327999115,13.24462890625,123.779296875,-56.0302734375
0.56473708152771,-1270139268,0,-0.0840686485171318,1.1119624376296997,-0.034374140202999115,7.080078125,136.71875,-65.12451171875
0.5791771411895752,-1270139268,1,0.19056595861911774,1.0612696409225464,-0.15722964704036713,-14.892578125,131.04248046875,16.41845703125
0.5966331958770752,-1270139249,0,-0.1180041953921318,1.1200190782546997,-0.053417108952999115,-9.21630859375,149.2919921875,-64.697265625
0.6096351146697998,-1270139249,1,0.19056595861911774,0.9885157346725464,-0.16089175641536713,-11.3525390625,148.01025390625,11.04736328125
0.6097011566162109,-1270139230,1,0.19569291174411774,0.9914454221725464,-0.18139956891536713,-15.0146484375,155.8837890625,-5.2490234375
0.625042200088501,-1270139230,0,-0.0904163047671318,1.0672847032546997,-0.040965937077999115,-18.6767578125,151.30615234375,-67.87109375
0.6251308917999268,-1270139211,0,-0.046715132892131805,1.1065913438796997,-0.028026483952999115,-10.009765625,132.4462890625,-58.837890625
0.6453180313110352,-1270139211,1,0.17616166174411774,1.0527247190475464,-0.20654605329036713,-24.10888671875,170.95947265625,-3.41796875
0.645327091217041,-1270139192,1,0.14002884924411774,1.1110743284225464,-0.24243472516536713,-11.53564453125,151.06201171875,-6.34765625
0.65419602394104,-1270139175,0,-0.0923694297671318,1.1190425157546997,0.007618047297000885,2.0751953125,85.14404296875,-52.91748046875
0.6920502185821533,-1270139156,0,-0.1128772422671318,1.1935054063796997,-0.020946405827999115,4.0283203125,53.955078125,-43.45703125
0.6995692253112793,-1270139173,1,0.12293900549411774,1.1252344846725464,-0.18628238141536713,-13.671875,136.1083984375,11.5966796875
0.6997842788696289,-1270139154,1,0.08753861486911774,1.0610255002975464,-0.16723941266536713,-1.89208984375,96.5576171875,31.1279296875
0.699800968170166,-1270139135,1,0.07191361486911774,1.0117090940475464,-0.18677066266536713,-7.14111328125,62.6220703125,33.203125
0.7143731117248535,-1270139137,0,0.040198929607868195,1.1744624376296997,-0.021434687077999115,-9.765625,42.1142578125,-41.8701171875
0.7144870758056641,-1270139118,0,-0.023521773517131805,1.2799311876296997,-0.030956171452999115,-22.64404296875,47.2412109375,-38.0859375
0.7480959892272949,-1270139099,0,-0.2198108434677124,1.3070307970046997,-0.06977453082799911,-11.23046875,31.79931640625,-23.49853515625
0.7602229118347168,-1270139099,1,0.19471634924411774,1.1501368284225464,-0.16260074079036713,-29.72412109375,-3.90625,-2.197265625
0.7603282928466797,-1270139080,1,0.21668900549411774,1.1401270627975464,-0.25390931963920593,-48.33984375,26.85546875,14.7705078125
0.7746150493621826,-1270139080,0,0.1451793909072876,1.0697261095046997,-0.014354608952999115,5.37109375,23.5595703125,-27.77099609375
0.7746422290802002,-1270139061,0,-0.0638049766421318,0.8041011095046997,0.003711797297000885,11.71875,11.71875,-50.9033203125
0.7971360683441162,-1270139061,1,0.20936478674411774,1.0007227659225464,-0.17261050641536713,-28.13720703125,81.787109375,29.9072265625
0.7971470355987549,-1270139042,1,0.21449173986911774,0.8525294065475464,-0.14087222516536713,24.84130859375,144.775390625,31.6162109375
0.8043739795684814,-1270139042,0,-0.1094592735171318,1.0035640001296997,-0.06415929645299911,-4.0283203125,-18.12744140625,-55.48095703125
0.8044910430908203,-1270139023,0,-0.1724475622177124,1.1507807970046997,-0.035106562077999115,-8.544921875,-9.46044921875,-40.10009765625
0.8192009925842285,-1270139023,1,0.13831986486911774,0.8996485471725464,-0.24243472516536713,17.76123046875,158.50830078125,-8.544921875
0.8428771495819092,-1270139004,0,-0.024010054767131805,1.1378413438796997,-0.034618280827999115,-9.27734375,16.78466796875,-19.47021484375
0.8493690490722656,-1270139004,1,0.07948197424411774,0.8456934690475464,-0.16992495954036713,-18.310546875,135.55908203125,-7.9345703125
0.849492073059082,-1270138985,1,0.058241743594408035,0.7748926877975464,-0.18017886579036713,1.46484375,102.9052734375,0.732421875
0.8643310070037842,-1270138985,0,-0.062340132892131805,1.0755854845046997,-0.10566320270299911,-28.38134765625,136.29150390625,-32.3486328125
0.8644371032714844,-1270138966,0,-0.1617053747177124,0.8321772813796997,-0.001659296452999115,-73.2421875,240.90576171875,-62.6220703125
0.8808739185333252,-1270138966,1,0.07264603674411774,0.7575587034225464,-0.17431949079036713,-7.8125,95.39794921875,60.302734375
0.89776611328125,-1270138947,0,-0.1722034215927124,0.9334956407546997,-0.023387812077999115,-78.61328125,219.23828125,-49.62158203125
0.9111349582672119,-1270138947,1,-0.032578568905591965,0.3972071409225464,-0.10693667829036713,18.12744140625,27.4658203125,53.7109375
0.9112732410430908,-1270138928,1,0.06458939611911774,0.4902247190475464,-0.15137027204036713,12.20703125,-8.6669921875,51.025390625
0.9262211322784424,-1270138911,0,-0.2605823278427124,0.8363276720046997,0.008350469172000885,-39.0625,19.6533203125,28.38134765625
0.9454410076141357,-1270138909,1,-0.015977006405591965,0.3933008909225464,-0.06494449079036713,-48.828125,4.94384765625,91.4306640625
0.955247163772583,-1270138892,0,0.023353226482868195,0.8641597032546997,-0.022411249577999115,-37.9638671875,122.25341796875,-49.37744140625
0.9553370475769043,-1270138873,0,-0.0960315391421318,0.8250972032546997,-0.060741327702999115,-33.87451171875,260.498046875,-82.45849609375
0.9709320068359375,-1270138890,1,-0.029893022030591965,0.6928614377975464,-0.15674136579036713,-46.5087890625,-68.7255859375,70.12939453125
0.9710562229156494,-1270138871,1,0.044325727969408035,1.0156153440475464,-0.23462222516536713,-48.52294921875,-132.62939453125,59.38720703125
0.9932479858398438,-1270138854,0,-0.1079944297671318,0.8333979845046997,-0.06342687457799911,-41.259765625,315.91796875,-62.1337890625
1.000920057296753,-1270138835,1,0.20179642736911774,1.2299708127975464,-0.28467103838920593,-21.05712890625,-207.33642578125,5.92041015625
1.0132322311401367,-1270138835,0,-0.1758655309677124,1.0028315782546997,-0.031932733952999115,-29.60205078125,294.25048828125,-37.841796875
1.014538049697876,-1270138816,0,-0.1651233434677124,1.0409175157546997,-0.005565546452999115,-5.06591796875,191.650390625,-19.8974609375
1.0426390171051025,-1270138816,1,0.34754839539527893,1.9262598752975464,-0.34717103838920593,-8.6669921875,-132.14111328125,47.9736328125
1.0483062267303467,-1270138797,0,-0.2288440465927124,0.8890620470046997,0.032764531672000885,14.46533203125,7.87353515625,9.1552734375
1.0610392093658447,-1270138797,1,0.38270464539527893,1.5019434690475464,-0.14575503766536713,24.7802734375,-25.20751953125,50.29296875
1.0611491203308105,-1270138778,1,0.36659136414527893,1.1616114377975464,-0.17676089704036713,46.08154296875,131.89697265625,-30.57861328125
1.077726125717163,-1270138778,0,-0.1245959922671318,0.8988276720046997,-0.09614171832799911,6.77490234375,-107.36083984375,10.498046875
1.077733039855957,-1270138759,0,-0.056969039142131805,0.8949214220046997,-0.002147577702999115,-1.953125,-113.95263671875,20.81298828125
1.0951652526855469,-1270138759,1,1.0953510999679565,0.5712794065475464,0.6164519786834717,24.169921875,320.37353515625,-27.587890625
1.1062841415405273,-1270138740,0,-0.1465686559677124,0.8272944688796997,-0.037792108952999115,3.5400390625,-130.06591796875,69.2138671875
1.1208879947662354,-1270138740,1,0.10438431799411774,0.6166895627975464,-0.08642886579036713,30.70068359375,346.74072265625,-45.41015625
1.120988130569458,-1270138721,1,0.10462845861911774,0.6774805784225464,-0.13183902204036713,88.92822265625,310.11962890625,-81.60400390625
1.1437349319458008,-1270138721,0,0.2308727502822876,0.8509761095046997,0.028370000422000885,-11.53564453125,-12.87841796875,98.93798828125
1.143744945526123,-1270138702,0,-0.050133101642131805,0.6332026720046997,-0.006297968327999115,-45.95947265625,68.9697265625,98.876953125
1.1510190963745117,-1270138702,1,-0.042832475155591965,0.6882227659225464,-0.16504214704036713,138.97705078125,220.703125,-111.26708984375
1.151123285293579,-1270138683,1,0.6370991468429565,0.9287012815475464,0.24169613420963287,62.8662109375,123.22998046875,-20.5078125
1.1647441387176514,-1270138683,0,-0.1192248985171318,0.9352046251296997,-0.011180780827999115,-56.09130859375,91.00341796875,90.02685546875
1.1809022426605225,-1270138664,1,0.08338822424411774,0.7731837034225464,-0.07983706891536713,96.923828125,8.056640625,-15.380859375
1.2088570594787598,-1270138645,1,0.17396439611911774,0.9811915159225464,-0.19800113141536713,96.19140625,8.4228515625,6.4697265625
1.2096219062805176,-1270138626,1,0.15516556799411774,0.8163965940475464,-0.12939761579036713,72.93701171875,31.6162109375,-7.080078125
1.2249689102172852,-1270138647,0,-0.1233752891421318,1.0409175157546997,0.028125859797000885,-24.84130859375,-29.60205078125,108.82568359375
1.2251441478729248,-1270138628,0,-0.0796741172671318,0.9330073595046997,-0.07246007770299911,-27.77099609375,-13.24462890625,85.75439453125
1.2251570224761963,-1270138609,0,-0.1014026328921318,0.8175288438796997,0.003223516047000885,-37.90283203125,-33.50830078125,70.12939453125
1.245246171951294,-1270138607,1,0.16664017736911774,0.7548731565475464,-0.07129214704036713,43.5791015625,64.697265625,4.5166015625
1.2559289932250977,-1270138590,0,-0.0996936485171318,0.7501460313796997,-0.013866327702999115,-43.45703125,-28.38134765625,78.2470703125
1.2707350254058838,-1270138571,1,0.16932572424411774,0.7016505002975464,-0.11792300641536713,20.3857421875,115.234375,-20.69091796875
1.2943470478057861,-1270138571,0,0.1285778284072876,0.8426753282546997,0.054981328547000885,-45.71533203125,3.41796875,80.6884765625
1.294355869293213,-1270138552,0,0.2911754846572876,0.8983393907546997,0.057178594172000885,-31.92138671875,-12.87841796875,84.8388671875
1.3009650707244873,-1270138552,1,0.09315384924411774,0.7253321409225464,-0.16699527204036713,27.64892578125,101.37939453125,-6.591796875
1.3010458946228027,-1270138533,1,0.22767533361911774,0.8886622190475464,-0.16430972516536713,46.69189453125,-69.580078125,36.865234375
1.314305067062378,-1270138533,0,-0.0874866172671318,0.7850581407546997,0.013477422297000885,-5.37109375,-99.9755859375,109.19189453125
1.3144402503967285,-1270138514,0,-0.012291304767131805,0.8155757188796997,0.015674687922000885,-13.73291015625,-49.31640625,80.38330078125
1.329237937927246,-1270138514,1,0.08460892736911774,0.9001368284225464,-0.09546206891536713,5.7373046875,-41.19873046875,20.93505859375
1.3491320610046387,-1270138495,0,0.006995804607868195,0.7032710313796997,-0.07587804645299911,-33.63037109375,15.13671875,59.5703125
1.35955810546875,-1270138495,1,0.09754838049411774,1.0085352659225464,-0.21948550641536713,-34.48486328125,-63.96484375,7.50732421875
1.359640121459961,-1270138476,1,0.13099564611911774,1.0107325315475464,-0.20849917829036713,-79.58984375,-65.36865234375,-0.18310546875
1.3748579025268555,-1270138476,0,-0.050865523517131805,0.3175288736820221,0.06425867229700089,-66.10107421875,91.9189453125,50.1708984375
1.3749160766601562,-1270138457,0,0.032630570232868195,0.5211421251296997,0.036670781672000885,-60.546875,138.73291015625,16.7236328125
1.3963940143585205,-1270138457,1,0.10609330236911774,0.7692774534225464,-0.44433900713920593,-209.77783203125,-127.86865234375,-2.44140625
1.4059712886810303,-1270138438,0,1.3597790002822876,0.1729976236820221,0.5708504915237427,-8.60595703125,93.81103515625,-43.51806640625
1.4210212230682373,-1270138438,1,0.13661088049411774,0.8290919065475464,-0.020266752690076828,-213.9892578125,-185.11962890625,18.9208984375
1.4211270809173584,-1270138419,1,0.15492142736911774,0.8273829221725464,-0.07153628766536713,-179.0771484375,-175.048828125,74.76806640625
1.4440200328826904,-1270138419,0,0.1515270471572876,0.2821284830570221,-0.08369054645299911,-12.3291015625,99.06005859375,-25.08544921875
1.4510090351104736,-1270138400,1,0.42982378602027893,0.5844630002975464,0.27587583661079407,-116.88232421875,-199.0966796875,98.08349609375
1.4663751125335693,-1270138383,0,0.031409867107868195,0.3600093424320221,-0.059520624577999115,-98.2666015625,113.76953125,42.41943359375
1.4663841724395752,-1270138364,0,-0.026939742267131805,1.3014155626296997,-0.1410636007785797,-34.5458984375,266.17431640625,-124.6337890625
1.4793870449066162,-1270138381,1,0.31703081727027893,0.6769922971725464,0.023922700434923172,26.42822265625,-52.18505859375,65.91796875
1.4794840812683105,-1270138362,1,-0.47740277647972107,0.3620508909225464,0.6257293224334717,59.38720703125,150.634765625,57.43408203125
1.4958109855651855,-1270138345,0,-0.017174117267131805,1.6148921251296997,0.040821172297000885,-3.84521484375,366.88232421875,-174.01123046875
1.5112502574920654,-1270138343,1,0.45033159852027893,0.9797266721725464,0.6130340099334717,65.49072265625,8.85009765625,104.1259765625
1.5265100002288818,-1270138326,0,-0.4583362340927124,1.8937007188796997,-0.1940421164035797,1.5869140625,366.0888671875,-150.2685546875
1.526576042175293,-1270138307,0,-0.0928577110171318,2.8810055255889893,-0.3673819601535797,-31.06689453125,306.884765625,-202.63671875
1.546363115310669,-1270138307,1,0.7054585218429565,1.9003809690475464,0.025387544184923172,105.5908203125,-51.33056640625,94.8486328125
1.5558719635009766,-1270138288,0,-0.9256213903427124,3.5645992755889893,-0.1688956320285797,19.34814453125,-22.5830078125,-98.388671875
1.5709528923034668,-1270138288,1,0.49452105164527893,1.9079493284225464,-0.08862613141536713,169.12841796875,24.59716796875,27.2216796875
1.5710608959197998,-1270138269,1,0.6944721937179565,1.8605860471725464,-0.8459503650665283,106.62841796875,88.80615234375,80.74951171875
1.5933890342712402,-1270138269,0,0.1774059534072876,2.0284664630889893,0.3381844460964203,188.4765625,-109.2529296875,-177.3681640625
1.5933969020843506,-1270138250,0,-0.1370471715927124,0.7789546251296997,-0.08051671832799911,282.5927734375,-155.76171875,-304.74853515625
1.6103150844573975,-1270138250,1,0.45423784852027893,1.0988672971725464,-0.28003236651420593,-62.255859375,128.84521484375,53.89404296875
1.6140410900115967,-1270138231,0,-0.1370471715927124,0.3150874674320221,-0.2201651632785797,236.6943359375,-289.24560546875,-228.69873046875
1.6157512664794922,-1270138212,0,0.009925492107868195,0.007226139307022095,-0.06733312457799911,140.9912109375,-255.7373046875,-132.6904296875
1.630256175994873,-1270138231,1,0.20008744299411774,0.1347559541463852,0.11840511858463287,-26.18408203125,172.4853515625,-8.36181640625
1.6303880214691162,-1270138212,1,0.041884321719408035,-0.03614247962832451,0.06567074358463287,106.93359375,220.5810546875,-31.06689453125
1.6480751037597656,-1270138193,0,0.1193004921078682,0.047509342432022095,-0.056102655827999115,78.43017578125,-104.79736328125,-99.9755859375
1.6593263149261475,-1270138193,1,-0.034043412655591965,0.2065332978963852,-0.11059878766536713,141.7236328125,199.21875,-35.94970703125
1.6594102382659912,-1270138174,1,-0.015244584530591965,0.4504297971725464,0.18285824358463287,32.470703125,168.8232421875,-14.22119140625
1.6752512454986572,-1270138174,0,0.7775036096572876,0.3690425455570221,0.049121953547000885,55.60302734375,161.2548828125,-222.7783203125
1.6753499507904053,-1270138155,0,-0.3308948278427124,0.6187983751296997,-0.09101476520299911,21.91162109375,381.04248046875,-216.796875
1.6975982189178467,-1270138155,1,0.036757368594408035,0.6713770627975464,0.5771453380584717,78.79638671875,-0.1220703125,-30.82275390625
1.7410972118377686,-1270138119,0,-1.2264026403427124,2.4427731037139893,-0.6920889616012573,-118.95751953125,221.19140625,43.8232421875
1.7411062717437744,-1270138100,0,-0.5672229528427124,1.0680171251296997,-0.2750968039035797,-190.24658203125,-33.8134765625,271.484375
1.7497079372406006,-1270138136,1,0.13246048986911774,1.1118067502975464,0.9113738536834717,85.5712890625,-23.86474609375,73.79150390625
1.7498371601104736,-1270138117,1,0.47816362977027893,1.2758692502975464,0.7802703380584717,237.4267578125,-85.38818359375,49.1943359375
1.7499520778656006,-1270138098,1,0.5819233655929565,1.5715235471725464,0.04638363793492317,187.01171875,11.04736328125,12.939453125
1.7644731998443604,-1270138081,0,-0.5437854528427124,1.2652827501296997,-0.4435538351535797,-250.30517578125,-158.935546875,386.77978515625
1.7646520137786865,-1270138062,0,-0.4085315465927124,1.3629390001296997,-0.3734854757785797,-299.072265625,-215.14892578125,494.62890625
1.7927279472351074,-1270138079,1,0.21888627111911774,1.3688868284225464,-0.17871402204036713,12.6953125,156.494140625,51.7578125
1.7971949577331543,-1270138043,0,0.2750622034072876,0.8043452501296997,-0.06367101520299911,-279.052734375,-93.994140625,423.7060546875
1.813723087310791,-1270138043,1,0.006483931094408035,0.7543848752975464,-0.07129214704036713,-64.51416015625,144.53125,16.2353515625
1.8137331008911133,-1270138024,1,-0.012803178280591965,0.5537012815475464,-0.007327299565076828,19.34814453125,34.48486328125,-35.400390625
1.82607102394104,-1270138024,0,0.3177868127822876,0.6253901720046997,0.1543465554714203,-211.97509765625,130.2490234375,191.10107421875
1.8261423110961914,-1270138005,0,-0.045494429767131805,0.7218257188796997,0.11748132854700089,-139.7705078125,214.29443359375,72.021484375
1.8445920944213867,-1270138005,1,-0.010605912655591965,0.5864161252975464,-0.04126284644007683,73.8525390625,1.89208984375,-12.451171875
1.8578360080718994,-1270137986,0,-0.1057971641421318,1.0689936876296997,-0.031688593327999115,-67.9931640625,185.24169921875,35.888671875
1.8694870471954346,-1270137986,1,0.08412064611911774,0.5273340940475464,-0.10180972516536713,67.87109375,-27.099609375,-33.69140625
1.8696470260620117,-1270137967,1,0.049208540469408035,0.4641016721725464,-0.07739566266536713,10.498046875,-53.64990234375,-57.92236328125
1.8925821781158447,-1270137967,0,-0.2085803747177124,1.0995112657546997,-0.1442374289035797,-69.51904296875,127.44140625,38.818359375
1.892590045928955,-1270137948,0,0.0961071327328682,0.9554682970046997,-0.1781729757785797,-122.13134765625,7.32421875,79.833984375
1.9002480506896973,-1270137948,1,0.32362261414527893,0.6960352659225464,-0.31665346026420593,12.75634765625,-258.97216796875,28.86962890625
1.9159889221191406,-1270137929,0,-0.010338179767131805,0.5838862657546997,-0.06269445270299911,-126.8310546875,26.2451171875,77.45361328125
1.9309632778167725,-1270137929,1,0.17347611486911774,0.4865626096725464,-0.03515933081507683,-55.60302734375,-199.89013671875,-14.2822265625
1.9422399997711182,-1270137910,1,0.25916948914527893,0.4877833127975464,-0.04809878394007683,-46.7529296875,-125.0,2.62451171875
1.9480490684509277,-1270137910,0,-0.005211226642131805,0.5555659532546997,-0.053661249577999115,-101.5625,131.53076171875,30.33447265625
1.9480559825897217,-1270137891,0,0.005530960857868195,0.5741206407546997,-0.049999140202999115,-71.35009765625,235.2294921875,-20.8740234375
1.9601478576660156,-1270137891,1,0.29676714539527893,0.6069239377975464,-0.06592105329036713,-21.97265625,-17.4560546875,4.0283203125
1.9754741191864014,-1270137855,0,-0.044029586017131805,0.8062983751296997,-0.008983515202999115,17.333984375,291.07666015625,-104.3701171875
1.9966840744018555,-1270137871,1,0.21107377111911774,0.7414454221725464,-0.11816714704036713,-22.52197265625,108.58154296875,32.28759765625
1.99727201461792,-1270137852,1,0.12049759924411774,0.8713282346725464,-0.15088199079036713,-10.8642578125,147.76611328125,66.7724609375
2.0053019523620605,-1270137836,0,-0.052574507892131805,0.9276362657546997,-0.006053827702999115,78.61328125,291.68701171875,-128.5400390625
2.020836114883423,-1270137833,1,0.09461869299411774,0.9433497190475464,-0.17285464704036713,5.43212890625,87.646484375,54.443359375
2.020947217941284,-1270137814,1,0.11854447424411774,1.0107325315475464,-0.18213199079036713,10.92529296875,45.2880859375,65.97900390625
2.045056104660034,-1270137817,0,-0.1270374059677124,1.1881343126296997,0.004200078547000885,169.0673828125,310.60791015625,-134.33837890625
2.045064926147461,-1270137798,0,-0.1805042028427124,1.5467768907546997,-0.027294062077999115,250.6103515625,309.2041015625,-113.46435546875
2.0638089179992676,-1270137779,0,-0.2625354528427124,1.9237300157546997,-0.042919062077999115,320.068359375,249.20654296875,-90.75927734375
2.0902068614959717,-1270137778,1,0.16102494299411774,1.1369532346725464,-0.18384097516536713,21.17919921875,25.2685546875,77.1484375
2.0902152061462402,-1270137759,1,-0.058457475155591965,0.9140528440475464,-0.45190736651420593,-148.74267578125,-129.638671875,31.18896484375
2.0955891609191895,-1270137760,0,-0.2390979528427124,1.9669429063796997,-0.11079015582799911,361.87744140625,180.17578125,-78.369140625
2.0957109928131104,-1270137741,0,-0.1497424840927124,0.8438960313796997,-0.08662023395299911,101.07421875,180.11474609375,-107.0556640625
2.110002279281616,-1270137740,1,0.7325581312179565,1.5014551877975464,-0.5935089588165283,-37.353515625,-347.7783203125,33.63037109375
2.126063108444214,-1270137722,0,-0.2141956090927124,1.0055171251296997,-0.022655390202999115,253.90625,139.46533203125,-55.48095703125
2.1261720657348633,-1270137703,0,-0.1192248985171318,0.6734858751296997,-0.08784093707799911,203.43017578125,90.63720703125,-28.86962890625
2.145815134048462,-1270137721,1,0.5667866468429565,1.2507227659225464,-0.15039370954036713,-13.5498046875,-181.70166015625,-77.20947265625
2.1458230018615723,-1270137702,1,0.46913042664527893,1.0947169065475464,-0.06225894019007683,27.587890625,45.34912109375,-95.64208984375
2.1559250354766846,-1270137684,0,-0.1038440391421318,0.5682612657546997,-0.10932531207799911,147.5830078125,64.27001953125,-14.22119140625
2.1694841384887695,-1270137683,1,0.32606402039527893,0.9875391721725464,-0.15063785016536713,57.373046875,178.3447265625,-93.75
2.1695852279663086,-1270137664,1,0.13148392736911774,0.9470118284225464,-0.17895816266536713,44.3115234375,227.35595703125,-81.60400390625
2.194282054901123,-1270137665,0,-0.1209338828921318,0.4947749674320221,-0.1259268820285797,64.94140625,24.2919921875,13.48876953125
2.194291114807129,-1270137646,0,-0.1311877965927124,0.4894038736820221,-0.06855382770299911,-6.16455078125,-4.94384765625,58.10546875
2.2027759552001953,-1270137645,1,0.037245649844408035,0.8830469846725464,-0.12939761579036713,38.330078125,156.005859375,-64.453125
2.2150580883026123,-1270137627,0,-0.1214221641421318,0.5714350938796997,-0.1469229757785797,-77.2705078125,-8.7890625,108.3984375
2.230203151702881,-1270137626,1,0.08241166174411774,0.9323633909225464,-0.13818667829036713,39.794921875,74.40185546875,-35.0341796875
2.230332136154175,-1270137607,1,0.16273392736911774,0.9562891721725464,-0.12866519391536713,24.4140625,59.50927734375,-13.97705078125
2.2582991123199463,-1270137588,1,0.22938431799411774,0.9706934690475464,-0.12158511579036713,8.48388671875,83.8623046875,-32.3486328125
2.274583101272583,-1270137591,0,-0.1526721715927124,0.7770015001296997,-0.1945303976535797,-179.443359375,13.48876953125,122.98583984375
2.274639129638672,-1270137572,0,-0.1895374059677124,0.9247065782546997,-0.2013663351535797,-221.25244140625,-0.9765625,125.9765625
2.275836229324341,-1270137553,0,-0.2015002965927124,1.0885249376296997,-0.2050284445285797,-243.2861328125,-26.55029296875,128.35693359375
2.2970480918884277,-1270137569,1,0.27186480164527893,0.9865626096725464,-0.12280581891536713,6.28662109375,128.96728515625,-84.9609375
2.2981131076812744,-1270137550,1,0.29627886414527893,1.0187891721725464,-0.16601870954036713,-6.16455078125,182.9833984375,-156.982421875
2.305331230163574,-1270137534,0,-0.1741565465927124,1.1554194688796997,-0.1806143820285797,-248.4130859375,-48.52294921875,117.49267578125
2.3207459449768066,-1270137514,1,0.21644486486911774,1.1039942502975464,-0.20093081891536713,4.69970703125,260.80322265625,-198.91357421875
2.346067190170288,-1270137515,0,-0.1541370153427124,1.1153804063796997,-0.1447257101535797,-239.80712890625,-64.208984375,98.44970703125
2.346076250076294,-1270137496,0,-0.0918811485171318,0.9918452501296997,-0.08930578082799911,-205.87158203125,-78.4912109375,63.90380859375
2.350811243057251,-1270137495,1,0.17982377111911774,1.1022852659225464,-0.21191714704036713,20.6298828125,238.037109375,-216.064453125
2.364223003387451,-1270137477,0,-0.058189742267131805,0.9222651720046997,-0.029735468327999115,-148.3154296875,-81.60400390625,17.333984375
2.3793461322784424,-1270137476,1,0.16053666174411774,1.0705469846725464,-0.19018863141536713,38.39111328125,186.6455078125,-224.2431640625
2.3794431686401367,-1270137457,1,0.19105423986911774,1.1164454221725464,-0.19165347516536713,50.59814453125,150.20751953125,-212.70751953125
2.3963260650634766,-1270137458,0,-0.0891956016421318,0.8326655626296997,-0.016063593327999115,-78.61328125,-81.84814453125,-20.1416015625
2.3963351249694824,-1270137439,0,-0.1111682578921318,0.8290034532546997,-0.021434687077999115,-25.93994140625,-87.158203125,-28.99169921875
2.4093050956726074,-1270137438,1,0.20374955236911774,1.1562403440475464,-0.17285464704036713,62.07275390625,130.43212890625,-188.17138671875
2.424361228942871,-1270137420,0,-0.0801623985171318,0.8270503282546997,-0.027538202702999115,25.45166015625,-86.0595703125,-30.6396484375
2.4464011192321777,-1270137419,1,0.17787064611911774,1.0986231565475464,-0.15552066266536713,78.06396484375,121.52099609375,-158.63037109375
2.4464099407196045,-1270137400,1,0.16102494299411774,1.0617579221725464,-0.17456363141536713,81.72607421875,109.2529296875,-114.19677734375
2.4559731483459473,-1270137401,0,-0.0777209922671318,0.8932124376296997,0.003955937922000885,75.0732421875,-64.27001953125,-41.56494140625
2.456087112426758,-1270137382,0,-0.0965198203921318,0.9569331407546997,-0.024120233952999115,112.97607421875,-31.982421875,-49.13330078125
2.4709670543670654,-1270137381,1,0.15858353674411774,0.9802149534225464,-0.16015933454036713,65.185546875,97.22900390625,-77.94189453125
2.471086025238037,-1270137362,1,0.11317338049411774,0.8581446409225464,-0.11206363141536713,63.41552734375,86.5478515625,-36.92626953125
2.4940621852874756,-1270137363,0,-0.1287463903427124,1.0191890001296997,-0.056346796452999115,128.41796875,-8.85009765625,-48.9501953125
2.500195026397705,-1270137343,1,0.09779252111911774,0.8530176877975464,-0.12597964704036713,64.8193359375,69.64111328125,-1.0986328125
2.514362096786499,-1270137327,0,-0.1399768590927124,1.1085444688796997,-0.08051671832799911,122.00927734375,2.99072265625,-35.64453125
2.5311872959136963,-1270137324,1,0.08998002111911774,0.8535059690475464,-0.14966128766536713,43.9453125,33.99658203125,14.95361328125
2.5312838554382324,-1270137305,1,0.08436478674411774,0.9352930784225464,-0.14013980329036713,25.08544921875,-6.65283203125,28.74755859375
2.546550989151001,-1270137308,0,-0.1509631872177124,1.0743647813796997,-0.08027257770299911,107.177734375,-8.4228515625,-30.94482421875
2.546560049057007,-1270137289,0,-0.1394885778427124,0.9967280626296997,-0.07856359332799911,86.669921875,-25.0244140625,-26.4892578125
2.5738401412963867,-1270137270,0,-0.1350940465927124,0.9342280626296997,-0.09223546832799911,56.33544921875,-37.65869140625,-23.01025390625
2.5955071449279785,-1270137286,1,0.11366166174411774,1.0446680784225464,-0.15063785016536713,26.3671875,-46.81396484375,44.5556640625
2.595515251159668,-1270137250,1,0.20374955236911774,1.0031641721725464,-0.15478824079036713,29.78515625,-57.6171875,46.2646484375
2.6046180725097656,-1270137251,0,-0.1368030309677124,0.9432612657546997,-0.10200109332799911,25.32958984375,-41.259765625,-14.404296875
2.6047232151031494,-1270137232,0,-0.1228870078921318,0.9691401720046997,-0.11664953082799911,-21.78955078125,-40.22216796875,-0.732421875
2.620223045349121,-1270137231,1,0.25160112977027893,1.0048731565475464,-0.14355777204036713,24.59716796875,-11.77978515625,32.3486328125
2.620332956314087,-1270137212,1,0.21620072424411774,0.9477442502975464,-0.12280581891536713,36.31591796875,37.65869140625,20.01953125
2.6456072330474854,-1270137213,0,-0.1429065465927124,1.0052729845046997,-0.08906164020299911,-41.19873046875,-33.8134765625,-1.03759765625
2.6456151008605957,-1270137194,0,-0.1546252965927124,1.0128413438796997,-0.09931554645299911,-37.2314453125,-40.83251953125,-5.126953125
2.65083909034729,-1270137193,1,0.10877884924411774,1.0090235471725464,-0.16650699079036713,59.326171875,51.08642578125,3.60107421875
2.6657960414886475,-1270137175,0,-0.1402209997177124,1.0675288438796997,-0.10566320270299911,-22.03369140625,-67.5048828125,-11.1083984375
2.6941912174224854,-1270137174,1,0.09901322424411774,1.0580958127975464,-0.14795230329036713,64.5751953125,4.8828125,-4.0283203125
2.6941990852355957,-1270137155,1,0.10829056799411774,1.0527247190475464,-0.16577456891536713,64.208984375,-64.697265625,-11.5966796875
2.6981360912323,-1270137156,0,-0.1646350622177124,1.0362788438796997,-0.10639562457799911,-16.6015625,-101.4404296875,-18.06640625
2.6981430053710938,-1270137137,0,-0.1385120153427124,1.0018550157546997,-0.10175695270299911,-6.16455078125,-114.07470703125,-18.6767578125
2.710210084915161,-1270137136,1,0.14198197424411774,0.9763087034225464,-0.15600894391536713,44.86083984375,-84.65576171875,7.080078125
2.7259140014648438,-1270137118,0,-0.1070178672671318,0.9679194688796997,-0.10175695270299911,4.150390625,-99.42626953125,-22.03369140625
2.746605157852173,-1270137117,1,0.18128861486911774,0.8657130002975464,-0.10547183454036713,22.94921875,-76.0498046875,21.3623046875
2.746614933013916,-1270137098,1,0.22035111486911774,0.8513087034225464,-0.09814761579036713,23.193359375,-43.45703125,23.13232421875
2.7551321983337402,-1270137099,0,-0.1016467735171318,0.9347163438796997,-0.07099523395299911,22.88818359375,-63.04931640625,-33.8134765625
2.7939341068267822,-1270137063,0,-0.1636584997177124,0.9635249376296997,-0.059520624577999115,93.1396484375,-60.6689453125,-31.67724609375
2.793942928314209,-1270137044,0,-0.1285022497177124,0.9952632188796997,-0.09077062457799911,107.23876953125,-86.7919921875,-20.69091796875
2.7993521690368652,-1270137079,1,0.20692338049411774,0.8461817502975464,-0.07983706891536713,36.865234375,16.41845703125,29.11376953125
2.79945707321167,-1270137060,1,0.20081986486911774,0.9001368284225464,-0.11255191266536713,48.03466796875,60.302734375,31.92138671875
2.800241231918335,-1270137041,1,0.14466752111911774,0.9365137815475464,-0.13354800641536713,41.44287109375,69.51904296875,12.26806640625
2.814343214035034,-1270137025,0,-0.1285022497177124,1.0499507188796997,-0.09272374957799911,101.37939453125,-85.51025390625,-20.56884765625
2.8292410373687744,-1270137022,1,0.08070267736911774,0.9391993284225464,-0.14697574079036713,19.10400390625,44.73876953125,11.3525390625
2.846403121948242,-1270137006,0,-0.1138538047671318,1.0343257188796997,-0.08588781207799911,92.71240234375,-67.87109375,-23.13232421875
2.8464131355285645,-1270136987,0,-0.1287463903427124,0.9874507188796997,-0.07538976520299911,88.8671875,-50.9033203125,-20.99609375
2.8612568378448486,-1270136986,1,0.09339798986911774,0.8879297971725464,-0.13501285016536713,-27.77099609375,-34.24072265625,43.02978515625
2.8758351802825928,-1270136968,0,-0.1194690391421318,0.9325190782546997,-0.054881952702999115,81.9091796875,-53.5888671875,-18.00537109375
2.895659923553467,-1270136967,1,0.14613236486911774,0.8586329221725464,-0.11572574079036713,-34.0576171875,-46.5087890625,57.6171875
2.8956689834594727,-1270136948,1,0.19129838049411774,0.8452051877975464,-0.11523745954036713,-31.494140625,-41.07666015625,41.50390625
2.9048140048980713,-1270136949,0,-0.1197131797671318,0.8919917345046997,-0.048290155827999115,71.8994140625,-63.78173828125,-9.765625
2.90493106842041,-1270136930,0,-0.1119006797671318,0.8607417345046997,-0.062206171452999115,61.70654296875,-61.03515625,-1.0986328125
2.9192612171173096,-1270136929,1,0.19666947424411774,0.8286036252975464,-0.11694644391536713,-28.25927734375,-9.58251953125,22.3388671875
2.945878028869629,-1270136911,0,-0.1219104453921318,0.9034663438796997,-0.08881749957799911,40.771484375,-43.5791015625,3.84521484375
2.9458861351013184,-1270136892,0,-0.1358264684677124,0.9156733751296997,-0.059276483952999115,24.658203125,-43.0908203125,10.80322265625
2.9494171142578125,-1270136910,1,0.18275345861911774,0.8630274534225464,-0.11377261579036713,-29.052734375,30.57861328125,28.25927734375
2.9495410919189453,-1270136891,1,0.15980423986911774,0.9045313596725464,-0.11743472516536713,-24.4140625,58.89892578125,53.955078125
2.9659509658813477,-1270136873,0,-0.1477893590927124,0.9542475938796997,-0.058788202702999115,19.22607421875,-67.7490234375,15.380859375
2.9811670780181885,-1270136872,1,0.14955033361911774,0.9418848752975464,-0.14477847516536713,-25.634765625,73.2421875,72.81494140625
2.981184959411621,-1270136853,1,0.15418900549411774,0.9470118284225464,-0.14770816266536713,-34.5458984375,65.5517578125,58.10546875
2.997892141342163,-1270136854,0,-0.1626819372177124,0.9688960313796997,-0.09077062457799911,9.6435546875,-104.30908203125,19.8974609375
2.9983842372894287,-1270136835,0,-0.1204456016421318,1.0082026720046997,-0.09687414020299911,-8.7890625,-108.70361328125,24.7802734375
3.0108981132507324,-1270136834,1,0.13880814611911774,0.8969630002975464,-0.12817691266536713,-39.97802734375,57.31201171875,36.1328125
3.0451509952545166,-1270136815,1,0.15614213049411774,0.8766993284225464,-0.12768863141536713,-35.94970703125,63.78173828125,36.92626953125
3.0451602935791016,-1270136796,1,0.15711869299411774,0.8918360471725464,-0.12939761579036713,-31.005859375,76.96533203125,44.73876953125
3.0559401512145996,-1270136799,0,-0.1136096641421318,0.9478999376296997,-0.06879796832799911,-15.9912109375,-45.5322265625,10.31494140625
3.0560529232025146,-1270136780,0,-0.1431506872177124,0.9271479845046997,-0.06269445270299911,-3.90625,-42.78564453125,2.38037109375
3.0710930824279785,-1270136777,1,0.15345658361911774,0.9565333127975464,-0.13965152204036713,-28.38134765625,92.59033203125,51.69677734375
3.094649076461792,-1270136761,0,-0.1514514684677124,0.9308100938796997,-0.06879796832799911,12.6953125,-61.58447265625,-2.8076171875
3.0946569442749023,-1270136742,0,-0.1270374059677124,0.9239741563796997,-0.06806554645299911,33.5693359375,-82.275390625,-5.06591796875
3.1011650562286377,-1270136758,1,0.15223588049411774,0.9836329221725464,-0.15722964704036713,-34.66796875,91.36962890625,37.841796875
3.115183115005493,-1270136723,0,-0.1162952110171318,0.9149409532546997,-0.09028234332799911,40.10009765625,-81.35986328125,-15.5029296875
3.1294808387756348,-1270136722,1,0.12757767736911774,0.9211329221725464,-0.15161441266536713,-58.53271484375,71.044921875,20.01953125
3.129606246948242,-1270136703,1,0.13197220861911774,0.9111231565475464,-0.13257144391536713,-62.07275390625,60.1806640625,38.57421875
3.1461570262908936,-1270136704,0,-0.1448596715927124,0.8905268907546997,-0.07465734332799911,44.61669921875,-71.83837890625,-22.15576171875
3.14621901512146,-1270136685,0,-0.1206897422671318,0.9063960313796997,-0.053661249577999115,51.26953125,-74.03564453125,-20.8740234375
3.1609442234039307,-1270136684,1,0.15003861486911774,1.0031641721725464,-0.15991519391536713,-62.6220703125,58.65478515625,65.7958984375
3.1746370792388916,-1270136666,0,-0.0918811485171318,0.9227534532546997,-0.07368078082799911,55.23681640625,-74.27978515625,-16.9677734375
3.197500228881836,-1270136665,1,0.15443314611911774,1.0341700315475464,-0.17114566266536713,-71.4111328125,54.38232421875,71.2890625
3.197510242462158,-1270136646,1,0.14320267736911774,1.0742090940475464,-0.17944644391536713,-80.322265625,28.50341796875,53.8330078125
3.206160068511963,-1270136647,0,-0.1158069297671318,0.9203120470046997,-0.06489171832799911,50.84228515625,-66.0400390625,-9.27734375
3.206249237060547,-1270136628,0,-0.1350940465927124,0.9530268907546997,-0.07563390582799911,40.52734375,-58.16650390625,-1.77001953125
3.219327926635742,-1270136627,1,0.14247025549411774,1.1430567502975464,-0.19751285016536713,-93.44482421875,-6.103515625,41.50390625
3.2447662353515625,-1270136609,0,-0.1326526403427124,0.9627925157546997,-0.07050695270299911,32.04345703125,-62.07275390625,5.859375
3.250990152359009,-1270136608,1,0.14832963049411774,1.1967676877975464,-0.19653628766536713,-97.47314453125,-34.60693359375,59.14306640625
3.251098155975342,-1270136589,1,0.15443314611911774,1.2097071409225464,-0.20117495954036713,-94.23828125,-57.12890625,78.91845703125
3.266026020050049,-1270136590,0,-0.1338733434677124,0.9833003282546997,-0.06562414020299911,21.30126953125,-75.98876953125,15.19775390625
3.266079902648926,-1270136571,0,-0.1392444372177124,1.0067378282546997,-0.08662023395299911,7.8125,-84.9609375,21.728515625
3.2801132202148438,-1270136570,1,0.16590775549411774,1.1127833127975464,-0.18628238141536713,-90.63720703125,-75.25634765625,95.15380859375
3.3085548877716064,-1270136551,1,0.17909134924411774,0.9921778440475464,-0.16919253766536713,-89.7216796875,-77.2705078125,90.087890625
3.3094451427459717,-1270136532,1,0.18519486486911774,0.9111231565475464,-0.14624331891536713,-85.205078125,-58.16650390625,74.21875
3.3275492191314697,-1270136535,0,-0.1111682578921318,0.9874507188796997,-0.08808507770299911,-22.27783203125,-51.45263671875,32.89794921875
3.3275630474090576,-1270136516,0,-0.1187366172671318,1.0099116563796997,-0.08808507770299911,-27.587890625,-26.0009765625,30.70068359375
3.346607208251953,-1270136513,1,0.18006791174411774,0.8857325315475464,-0.12524722516536713,-66.58935546875,-33.99658203125,69.091796875
3.34661602973938,-1270136494,1,0.18885697424411774,0.9518946409225464,-0.13818667829036713,-37.53662109375,-3.72314453125,62.98828125
3.3543801307678223,-1270136497,0,-0.1531604528427124,1.0509272813796997,-0.08027257770299911,-21.30126953125,-22.94921875,29.9072265625
3.354496955871582,-1270136478,0,-0.1665881872177124,1.0804682970046997,-0.09638585895299911,-6.7138671875,-57.06787109375,32.77587890625
3.39211106300354,-1270136459,0,-0.1587756872177124,1.0760737657546997,-0.10419835895299911,10.55908203125,-96.00830078125,29.35791015625
3.4009552001953125,-1270136458,1,0.20960892736911774,1.0129297971725464,-0.14453433454036713,-13.7939453125,52.79541015625,25.5126953125
3.4010770320892334,-1270136439,1,0.20374955236911774,0.9506739377975464,-0.13452456891536713,-10.25390625,85.99853515625,-7.50732421875
3.4144480228424072,-1270136440,0,-0.1458362340927124,1.0343257188796997,-0.11738195270299911,18.06640625,-105.1025390625,26.123046875
3.4145240783691406,-1270136421,0,-0.1153186485171318,1.0326167345046997,-0.10639562457799911,19.53125,-78.79638671875,19.6533203125
3.429201126098633,-1270136420,1,0.20716752111911774,0.9684962034225464,-0.14599917829036713,-1.8310546875,110.90087890625,-44.921875
3.4462730884552,-1270136402,0,-0.1377795934677124,0.9994136095046997,-0.08564367145299911,25.93994140625,-42.1142578125,17.4560546875
3.446281909942627,-1270136383,0,-0.1319202184677124,0.9530268907546997,-0.07709874957799911,42.236328125,-30.33447265625,22.15576171875
3.4594690799713135,-1270136401,1,0.15516556799411774,0.9760645627975464,-0.14404605329036713,4.21142578125,133.72802734375,-54.3212890625
3.4595749378204346,-1270136382,1,0.13490189611911774,0.9555567502975464,-0.14868472516536713,12.87841796875,119.873046875,-67.07763671875
3.474663257598877,-1270136364,0,-0.1460803747177124,0.9366694688796997,-0.07514562457799911,53.77197265625,-38.87939453125,27.4658203125
3.495725154876709,-1270136363,1,0.11414994299411774,0.9306544065475464,-0.15088199079036713,6.53076171875,83.31298828125,-87.5244140625
3.496986150741577,-1270136344,1,0.11439408361911774,0.9040430784225464,-0.14282535016536713,-7.62939453125,50.59814453125,-79.77294921875
3.506031036376953,-1270136345,0,-0.1282581090927124,0.9337397813796997,-0.07270421832799911,57.373046875,-49.62158203125,34.36279296875
3.5061581134796143,-1270136326,0,-0.1016467735171318,0.9908686876296997,-0.07831945270299911,51.025390625,-34.7900390625,37.9638671875
3.520104169845581,-1270136325,1,0.12831009924411774,0.8962305784225464,-0.13232730329036713,-14.6484375,22.64404296875,-74.0966796875
3.5438132286071777,-1270136307,0,-0.1228870078921318,0.9908686876296997,-0.08393468707799911,41.56494140625,-3.60107421875,42.8466796875
3.5510261058807373,-1270136306,1,0.14173783361911774,0.8327540159225464,-0.12622378766536713,-14.16015625,0.244140625,-60.97412109375
3.551133155822754,-1270136287,1,0.16541947424411774,0.8019922971725464,-0.12402652204036713,-17.2119140625,8.7890625,-42.54150390625
3.5660300254821777,-1270136271,0,-0.1289905309677124,1.0374995470046997,-0.07514562457799911,30.76171875,27.16064453125,52.001953125
3.5795938968658447,-1270136268,1,0.15028275549411774,0.7573145627975464,-0.10815738141536713,-16.90673828125,22.94921875,-27.4658203125
3.598642110824585,-1270136252,0,-0.1546252965927124,1.0228511095046997,-0.06757726520299911,23.49853515625,20.08056640625,56.396484375
3.598651170730591,-1270136233,0,-0.1668323278427124,1.0592280626296997,-0.08930578082799911,19.83642578125,6.2255859375,55.0537109375
3.6110429763793945,-1270136249,1,0.12806595861911774,0.7851465940475464,-0.11792300641536713,-3.23486328125,18.1884765625,-26.79443359375
3.6111271381378174,-1270136230,1,0.11927689611911774,0.8347071409225464,-0.12451480329036713,1.46484375,3.35693359375,-26.611328125
3.625821113586426,-1270136214,0,-0.1516956090927124,1.0304194688796997,-0.07929601520299911,17.2119140625,-5.92041015625,50.96435546875
3.646278142929077,-1270136194,1,0.13929642736911774,0.8615626096725464,-0.13891910016536713,-0.67138671875,-16.05224609375,-15.31982421875
3.6559300422668457,-1270136195,0,-0.1390002965927124,1.0309077501296997,-0.08222570270299911,18.798828125,-8.36181640625,48.03466796875
3.6560111045837402,-1270136176,0,-0.1309436559677124,1.0426265001296997,-0.09077062457799911,20.5078125,3.60107421875,45.83740234375
3.672964096069336,-1270136175,1,0.13416947424411774,0.8461817502975464,-0.12207339704036713,-3.47900390625,-15.869140625,-15.44189453125
3.693589925765991,-1270136157,0,-0.1414417028427124,1.0553218126296997,-0.08100499957799911,20.6298828125,18.85986328125,44.7998046875
3.6985268592834473,-1270136156,1,0.13416947424411774,0.8630274534225464,-0.12378238141536713,9.033203125,-22.27783203125,-27.40478515625
3.700249195098877,-1270136137,1,0.13246048986911774,0.8884180784225464,-0.13330386579036713,21.30126953125,-37.4755859375,-49.25537109375
3.716073989868164,-1270136138,0,-0.1558459997177124,1.0746089220046997,-0.09418859332799911,23.8037109375,24.2919921875,47.4853515625
3.7161431312561035,-1270136119,0,-0.1558459997177124,1.0792475938796997,-0.08515539020299911,26.3671875,19.34814453125,48.095703125
3.7300431728363037,-1270136118,1,0.15101517736911774,0.9394434690475464,-0.14087222516536713,19.22607421875,-46.93603515625,-59.326171875
3.7463011741638184,-1270136100,0,-0.1548694372177124,1.0599604845046997,-0.08832921832799911,28.80859375,7.8125,47.05810546875
3.760944128036499,-1270136099,1,0.16590775549411774,0.9487208127975464,-0.13525699079036713,13.61083984375,-45.95947265625,-64.27001953125
3.7611188888549805,-1270136080,1,0.16712845861911774,0.9252833127975464,-0.13916324079036713,14.2822265625,-40.10009765625,-61.95068359375
3.7760040760040283,-1270136081,0,-0.1458362340927124,1.0006343126296997,-0.08320226520299911,27.83203125,3.2958984375,46.5087890625
3.7760961055755615,-1270136062,0,-0.1282581090927124,1.0155268907546997,-0.07612218707799911,23.681640625,15.380859375,47.05810546875
3.797292947769165,-1270136061,1,0.16371048986911774,0.9023340940475464,-0.13183902204036713,22.94921875,-39.4287109375,-62.43896484375
3.797304153442383,-1270136042,1,0.16883744299411774,0.9223536252975464,-0.13452456891536713,30.029296875,-43.5791015625,-63.17138671875
3.804565906524658,-1270136043,0,-0.1377795934677124,1.0033198595046997,-0.07954015582799911,21.17919921875,28.50341796875,48.7060546875
3.842607021331787,-1270136007,0,-0.1414417028427124,0.9725581407546997,-0.06977453082799911,16.2353515625,38.2080078125,53.16162109375
3.851133108139038,-1270136023,1,0.17957963049411774,0.9614161252975464,-0.14038394391536713,32.71484375,-41.8701171875,-61.09619140625
3.8511431217193604,-1270136004,1,0.18983353674411774,0.9626368284225464,-0.13891910016536713,37.109375,-35.33935546875,-55.35888671875
3.8511481285095215,-1270135985,1,0.17689408361911774,0.9370020627975464,-0.13818667829036713,39.48974609375,-23.193359375,-42.17529296875
3.864413261413574,-1270135988,0,-0.1287463903427124,0.9540034532546997,-0.07343664020299911,7.01904296875,33.0810546875,49.74365234375
3.8645269870758057,-1270135969,0,-0.1399768590927124,0.9544917345046997,-0.07807531207799911,2.50244140625,28.564453125,44.86083984375
3.891475200653076,-1270135966,1,0.15956009924411774,0.9081934690475464,-0.12988589704036713,41.19873046875,-19.8974609375,-37.2314453125
3.8975281715393066,-1270135950,0,-0.1319202184677124,0.9569331407546997,-0.07221593707799911,0.8544921875,26.4892578125,40.283203125
3.911374092102051,-1270135930,1,0.14100541174411774,0.9216212034225464,-0.13354800641536713,45.654296875,-43.64013671875,-37.17041015625
3.9259629249572754,-1270135931,0,-0.1404651403427124,0.9662104845046997,-0.07978429645299911,-0.732421875,28.6865234375,37.17041015625
3.926058053970337,-1270135912,0,-0.1233752891421318,0.9466792345046997,-0.09394445270299911,-3.5400390625,38.9404296875,32.40966796875
3.947093963623047,-1270135911,1,0.15321244299411774,0.9438380002975464,-0.13550113141536713,45.34912109375,-59.2041015625,-36.7431640625
3.9478061199188232,-1270135892,1,0.17787064611911774,0.9772852659225464,-0.13598941266536713,39.12353515625,-59.99755859375,-36.1328125
3.9543631076812744,-1270135893,0,-0.1140979453921318,0.9244624376296997,-0.07880773395299911,-11.962890625,48.03466796875,24.35302734375
3.9544761180877686,-1270135874,0,-0.1292346715927124,0.9300776720046997,-0.07856359332799911,-15.2587890625,44.5556640625,17.39501953125
3.96915602684021,-1270135873,1,0.18739213049411774,0.9675196409225464,-0.12695620954036713,37.29248046875,-45.166015625,-36.80419921875
3.9931750297546387,-1270135855,0,-0.1443713903427124,0.9063960313796997,-0.06806554645299911,-11.41357421875,39.36767578125,13.5498046875
3.999465227127075,-1270135854,1,0.18885697424411774,0.9562891721725464,-0.12622378766536713,38.75732421875,-29.72412109375,-46.08154296875
3.9995651245117188,-1270135835,1,0.17249955236911774,0.9675196409225464,-0.13013003766536713,41.1376953125,-20.3857421875,-56.2744140625
4.0187060832977295,-1270135836,0,-0.1265491247177124,0.8980952501296997,-0.07343664020299911,-3.41796875,34.72900390625,10.55908203125
4.018714189529419,-1270135817,0,-0.1165393516421318,0.9085932970046997,-0.07099523395299911,-3.96728515625,37.59765625,5.9814453125
4.030077219009399,-1270135816,1,0.16932572424411774,1.0129297971725464,-0.14648745954036713,45.654296875,-22.705078125,-60.11962890625
4.0472540855407715,-1270135798,0,-0.1424182653427124,0.9154292345046997,-0.07880773395299911,-9.21630859375,40.83251953125,4.150390625
4.063138961791992,-1270135797,1,0.17054642736911774,1.0063380002975464,-0.15503238141536713,45.47119140625,-29.052734375,-57.4951171875
4.063154220581055,-1270135778,1,0.18055619299411774,0.9777735471725464,-0.14258120954036713,45.47119140625,-26.7333984375,-52.24609375
4.076071262359619,-1270135779,0,-0.1468127965927124,0.9347163438796997,-0.06953039020299911,-13.36669921875,38.51318359375,6.65283203125
4.096094131469727,-1270135759,1,0.17957963049411774,0.9477442502975464,-0.13061831891536713,46.08154296875,-20.751953125,-46.9970703125
4.10719895362854,-1270135743,0,-0.1385120153427124,0.9447261095046997,-0.07197179645299911,-15.869140625,36.7431640625,5.615234375
4.107208967208862,-1270135724,0,-0.1272815465927124,0.9615718126296997,-0.08857335895299911,-21.66748046875,43.701171875,-2.13623046875
4.121001958847046,-1270135740,1,0.17957963049411774,0.9677637815475464,-0.13867495954036713,52.6123046875,-16.6015625,-43.64013671875
4.121088027954102,-1270135721,1,0.17298783361911774,0.9999903440475464,-0.14209292829036713,60.97412109375,-19.04296875,-38.63525390625
4.143555164337158,-1270135705,0,-0.1592639684677124,0.9386225938796997,-0.07563390582799911,-25.93994140625,40.95458984375,-9.1552734375
4.1509130001068115,-1270135702,1,0.17860306799411774,1.0139063596725464,-0.14282535016536713,61.4013671875,-20.751953125,-35.58349609375
4.166046142578125,-1270135686,0,-0.1482776403427124,0.9403315782546997,-0.07514562457799911,-26.7333984375,27.7099609375,-10.43701171875
4.16617226600647,-1270135667,0,-0.1421741247177124,0.9723140001296997,-0.08246984332799911,-25.7568359375,8.7890625,-12.87841796875
4.17949104309082,-1270135666,1,0.17835892736911774,0.9880274534225464,-0.14062808454036713,45.10498046875,-21.78955078125,-25.634765625
4.2004170417785645,-1270135648,0,-0.1285022497177124,0.9620600938796997,-0.08784093707799911,-26.2451171875,12.5732421875,-19.59228515625
4.211138010025024,-1270135647,1,0.17445267736911774,1.0078028440475464,-0.14062808454036713,45.41015625,-19.8974609375,-15.44189453125
4.211251974105835,-1270135628,1,0.18714798986911774,1.0585840940475464,-0.15234683454036713,45.2880859375,-23.98681640625,-7.87353515625
4.227596998214722,-1270135629,0,-0.1228870078921318,0.9806147813796997,-0.08027257770299911,-31.55517578125,29.4189453125,-32.1044921875
4.2276060581207275,-1270135610,0,-0.1285022497177124,0.9806147813796997,-0.08124914020299911,-34.7900390625,37.59765625,-43.0908203125
4.245510101318359,-1270135609,1,0.18983353674411774,1.0827540159225464,-0.15112613141536713,45.22705078125,-26.30615234375,-5.43212890625
4.255077123641968,-1270135591,0,-0.1595081090927124,0.9930659532546997,-0.08124914020299911,-35.70556640625,26.42822265625,-47.7294921875
4.270984888076782,-1270135590,1,0.19178666174411774,1.0654200315475464,-0.15478824079036713,33.75244140625,-25.87890625,-2.01416015625
4.271083116531372,-1270135571,1,0.18226517736911774,1.0295313596725464,-0.15039370954036713,24.47509765625,-24.4140625,1.220703125
4.295912265777588,-1270135571,0,-0.1487659215927124,1.0211421251296997,-0.09565343707799911,-33.02001953125,7.6904296875,-47.4853515625
4.295920133590698,-1270135552,0,-0.1377795934677124,1.0150386095046997,-0.09272374957799911,-32.1044921875,5.9814453125,-50.84228515625
4.301002025604248,-1270135552,1,0.17347611486911774,0.9872950315475464,-0.14087222516536713,24.47509765625,-22.64404296875,12.0849609375
4.301096200942993,-1270135533,1,0.17689408361911774,0.9675196409225464,-0.13989566266536713,31.982421875,-21.1181640625,22.39990234375
4.315922260284424,-1270135533,0,-0.1299670934677124,1.0470210313796997,-0.10395421832799911,-36.31591796875,16.845703125,-58.10546875
4.316072225570679,-1270135514,0,-0.1441272497177124,1.0721675157546997,-0.10297765582799911,-40.1611328125,22.52197265625,-62.01171875
4.3294360637664795,-1270135514,1,0.18617142736911774,0.9638575315475464,-0.13305972516536713,34.423828125,-14.404296875,24.59716796875
4.358669996261597,-1270135495,1,0.18275345861911774,0.9601954221725464,-0.13550113141536713,34.5458984375,-6.4697265625,24.23095703125
4.3595030307769775,-1270135476,1,0.17298783361911774,0.9694727659225464,-0.12573550641536713,31.6162109375,-1.15966796875,22.5830078125
4.374691009521484,-1270135478,0,-0.1546252965927124,1.0655757188796997,-0.10346593707799911,-42.66357421875,13.73291015625,-59.08203125
4.374819040298462,-1270135459,0,-0.1468127965927124,1.0577632188796997,-0.08271398395299911,-46.5087890625,12.26806640625,-60.546875
4.395326137542725,-1270135457,1,0.16273392736911774,0.9892481565475464,-0.13696597516536713,31.982421875,0.42724609375,26.2451171875
4.409926176071167,-1270135440,0,-0.1375354528427124,1.0387202501296997,-0.09125890582799911,-46.81396484375,15.0146484375,-61.8896484375
4.42112398147583,-1270135438,1,0.17933548986911774,1.0446680784225464,-0.14209292829036713,29.60205078125,-3.84521484375,35.09521484375
4.44353985786438,-1270135421,0,-0.1314319372177124,1.0414057970046997,-0.09760656207799911,-48.4619140625,15.56396484375,-64.14794921875
4.443547248840332,-1270135402,0,-0.1477893590927124,1.0968257188796997,-0.10151281207799911,-45.7763671875,10.1318359375,-63.78173828125
4.4523890018463135,-1270135402,1,0.18714798986911774,1.0649317502975464,-0.14355777204036713,16.54052734375,4.21142578125,40.10009765625
4.452398061752319,-1270135383,1,0.18373002111911774,1.0446680784225464,-0.13940738141536713,6.103515625,8.6669921875,40.58837890625
4.464476108551025,-1270135383,0,-0.1585315465927124,1.1312495470046997,-0.09662999957799911,-46.2646484375,4.57763671875,-60.791015625
4.464599132537842,-1270135364,0,-0.1372913122177124,1.1065913438796997,-0.10102453082799911,-47.2412109375,8.97216796875,-63.78173828125
4.479323148727417,-1270135364,1,0.18080033361911774,1.0444239377975464,-0.14258120954036713,-1.708984375,14.16015625,44.37255859375
4.496614217758179,-1270135345,0,-0.1390002965927124,1.0848628282546997,-0.10566320270299911,-47.119140625,16.2353515625,-72.44873046875
4.509432077407837,-1270135345,1,0.17176713049411774,1.0485743284225464,-0.13696597516536713,-2.86865234375,23.193359375,48.27880859375
4.509552240371704,-1270135326,1,0.17835892736911774,1.0590723752975464,-0.14648745954036713,-3.23486328125,22.64404296875,59.75341796875
4.524463176727295,-1270135326,0,-0.1433948278427124,1.0760737657546997,-0.09980382770299911,-41.748046875,21.1181640625,-80.87158203125
4.5245890617370605,-1270135307,0,-0.1624377965927124,1.0709468126296997,-0.09980382770299911,-37.90283203125,13.916015625,-80.50537109375
4.547567129135132,-1270135307,1,0.18495072424411774,1.0483301877975464,-0.14990542829036713,-7.75146484375,25.93994140625,64.94140625
4.556137323379517,-1270135288,0,-0.1436389684677124,1.0885249376296997,-0.10786046832799911,-33.8134765625,2.74658203125,-75.25634765625
4.5709311962127686,-1270135288,1,0.17884720861911774,1.0204981565475464,-0.14233706891536713,-14.0380859375,37.90283203125,64.94140625
4.5710670948028564,-1270135269,1,0.16859330236911774,0.9809473752975464,-0.13232730329036713,-14.70947265625,45.10498046875,57.373046875
4.594929218292236,-1270135269,0,-0.1433948278427124,1.0663081407546997,-0.10004796832799911,-31.73828125,2.38037109375,-71.6552734375
4.594937086105347,-1270135250,0,-0.1258167028427124,1.0638667345046997,-0.08857335895299911,-28.6865234375,11.90185546875,-69.15283203125
4.600876092910767,-1270135250,1,0.15418900549411774,0.9533594846725464,-0.12231753766536713,-15.9912109375,45.5322265625,51.45263671875
4.615920066833496,-1270135214,0,-0.1438831090927124,1.0304194688796997,-0.09052648395299911,-25.5126953125,18.310546875,-69.51904296875
4.632691144943237,-1270135231,1,0.14979447424411774,0.9558008909225464,-0.12988589704036713,-18.06640625,44.5556640625,50.47607421875
4.641779899597168,-1270135212,1,0.15882767736911774,0.9389551877975464,-0.12744449079036713,-23.8037109375,42.48046875,57.2509765625
4.645989179611206,-1270135195,0,-0.1338733434677124,1.0204097032546997,-0.07636632770299911,-22.88818359375,2.25830078125,-64.39208984375
4.661012887954712,-1270135193,1,0.15028275549411774,0.9169825315475464,-0.12182925641536713,-36.07177734375,47.36328125,65.673828125
4.661108016967773,-1270135174,1,0.14930619299411774,0.9028223752975464,-0.11352847516536713,-44.921875,54.19921875,67.138671875
4.676072120666504,-1270135176,0,-0.1507190465927124,1.0016108751296997,-0.09614171832799911,-21.8505859375,-10.07080078125,-57.2509765625
4.676191091537476,-1270135157,0,-0.1289905309677124,1.0304194688796997,-0.08246984332799911,-22.88818359375,-9.3994140625,-50.72021484375
4.7061591148376465,-1270135138,0,-0.1248401328921318,1.0133296251296997,-0.08173742145299911,-25.93994140625,2.685546875,-46.81396484375
4.721072196960449,-1270135138,1,0.15370072424411774,0.9018458127975464,-0.12646792829036713,-59.2041015625,62.1337890625,65.0634765625
4.721174955368042,-1270135119,1,0.14295853674411774,0.8891505002975464,-0.13013003766536713,-68.05419921875,68.29833984375,63.41552734375
4.743923187255859,-1270135119,0,-0.1040881797671318,0.9554682970046997,-0.08735265582799911,-27.9541015625,13.427734375,-48.33984375
4.743932247161865,-1270135100,0,-0.1228870078921318,0.9247065782546997,-0.07880773395299911,-24.2919921875,14.09912109375,-49.1943359375
4.750943899154663,-1270135100,1,0.13758744299411774,0.8864649534225464,-0.13867495954036713,-73.30322265625,72.021484375,63.41552734375
4.7662131786346436,-1270135081,0,-0.1336292028427124,0.9151850938796997,-0.07197179645299911,-20.751953125,-1.40380859375,-45.41015625
4.7662739753723145,-1270135062,0,-0.1272815465927124,0.9308100938796997,-0.08344640582799911,-19.10400390625,-17.76123046875,-36.7431640625
4.793452978134155,-1270135081,1,0.13807572424411774,0.9016016721725464,-0.12890933454036713,-77.63671875,73.05908203125,63.720703125
4.7934629917144775,-1270135062,1,0.14344681799411774,0.9094141721725464,-0.13721011579036713,-77.2705078125,72.57080078125,61.46240234375
4.797818183898926,-1270135043,0,-0.1177600547671318,0.9347163438796997,-0.07880773395299911,-16.11328125,-17.08984375,-32.89794921875
4.811084985733032,-1270135043,1,0.15467728674411774,0.9367579221725464,-0.14233706891536713,-77.94189453125,76.72119140625,55.11474609375
4.8111701011657715,-1270135024,1,0.16395463049411774,0.9450587034225464,-0.14819644391536713,-78.9794921875,82.45849609375,45.59326171875
4.824599027633667,-1270135024,0,-0.1155627891421318,0.9020015001296997,-0.08515539020299911,-13.73291015625,-3.7841796875,-32.470703125
4.824681282043457,-1270135005,0,-0.1050647422671318,0.8956538438796997,-0.08100499957799911,-13.85498046875,12.6953125,-33.99658203125
4.848750114440918,-1270135005,1,0.16395463049411774,0.9604395627975464,-0.14770816266536713,-75.98876953125,90.576171875,36.19384765625
4.854314088821411,-1270134986,0,-0.1255725622177124,0.8858882188796997,-0.07783117145299911,-11.65771484375,13.7939453125,-30.2734375
4.88386607170105,-1270134950,0,-0.1145862266421318,0.8604975938796997,-0.07416906207799911,-2.0751953125,-5.126953125,-19.59228515625
4.902384042739868,-1270134986,1,0.15321244299411774,0.9606837034225464,-0.14966128766536713,-72.1435546875,92.6513671875,28.62548828125
4.902392148971558,-1270134967,1,0.15687455236911774,0.9743555784225464,-0.15845035016536713,-69.51904296875,92.46826171875,20.81298828125
4.902397155761719,-1270134948,1,0.15736283361911774,0.9863184690475464,-0.15332339704036713,-67.5048828125,88.43994140625,18.1884765625
4.914428234100342,-1270134931,0,-0.1043323203921318,0.8167964220046997,-0.06953039020299911,3.0517578125,-0.79345703125,-17.02880859375
4.914513111114502,-1270134912,0,-0.0952991172671318,0.8246089220046997,-0.07416906207799911,2.685546875,10.19287109375,-19.22607421875
4.931004047393799,-1270134929,1,0.15687455236911774,0.9819239377975464,-0.15674136579036713,-64.75830078125,84.47265625,14.46533203125
4.931124925613403,-1270134910,1,0.16859330236911774,0.9804590940475464,-0.16333316266536713,-64.02587890625,82.51953125,15.07568359375
4.946774959564209,-1270134893,0,-0.1189807578921318,0.8785640001296997,-0.07856359332799911,2.8076171875,18.6767578125,-15.07568359375
4.959660053253174,-1270134874,1,0.16395463049411774,1.0024317502975464,-0.15942691266536713,-59.99755859375,82.70263671875,11.65771484375
4.974757194519043,-1270134874,0,-0.1263049840927124,0.9415522813796997,-0.07075109332799911,5.92041015625,11.23046875,-4.8828125
4.974814176559448,-1270134855,0,-0.1006702110171318,0.9276362657546997,-0.08149328082799911,6.9580078125,5.06591796875,2.685546875
4.9948952198028564,-1270134855,1,0.16273392736911774,1.0361231565475464,-0.16138003766536713,-56.2744140625,76.11083984375,10.8642578125
5.004578113555908,-1270134836,0,-0.0974963828921318,0.8775874376296997,-0.08466710895299911,5.0048828125,11.23046875,1.64794921875
5.0194690227508545,-1270134836,1,0.16200150549411774,1.0566309690475464,-0.16577456891536713,-54.0771484375,67.2607421875,9.765625
5.019579172134399,-1270134817,1,0.16200150549411774,1.0368555784225464,-0.17261050641536713,-55.96923828125,56.21337890625,8.48388671875
5.044169902801514,-1270134817,0,-0.0999377891421318,0.8849116563796997,-0.07270421832799911,1.64794921875,27.34375,-2.74658203125
5.044178247451782,-1270134798,0,-0.1409534215927124,0.9000483751296997,-0.06782140582799911,3.47900390625,29.72412109375,1.953125
5.049345016479492,-1270134798,1,0.16224564611911774,0.9914454221725464,-0.16260074079036713,-57.7392578125,48.40087890625,10.3759765625
5.065118312835693,-1270134779,0,-0.1338733434677124,0.9203120470046997,-0.07294835895299911,8.97216796875,15.869140625,10.19287109375
5.082526922225952,-1270134779,1,0.14808548986911774,0.9626368284225464,-0.15698550641536713,-57.67822265625,40.95458984375,10.7421875
5.092538118362427,-1270134760,1,0.14393509924411774,0.9655665159225464,-0.15845035016536713,-54.5654296875,30.3955078125,11.71875
5.096874952316284,-1270134760,0,-0.1243518516421318,0.9354487657546997,-0.06562414020299911,18.85986328125,-4.08935546875,19.34814453125
5.096887111663818,-1270134741,0,-0.1104358360171318,0.9310542345046997,-0.08662023395299911,19.4091796875,-4.0283203125,17.7001953125
5.111128091812134,-1270134741,1,0.12708939611911774,0.9135645627975464,-0.14429019391536713,-48.095703125,13.61083984375,13.00048828125
5.12586522102356,-1270134722,0,-0.1123889610171318,0.9166499376296997,-0.10078039020299911,13.7939453125,15.56396484375,17.4560546875
5.145912170410156,-1270134722,1,0.12806595861911774,0.8906153440475464,-0.15063785016536713,-43.15185546875,-5.55419921875,11.65771484375
5.145920991897583,-1270134703,1,0.11585892736911774,0.8864649534225464,-0.14429019391536713,-39.9169921875,-25.57373046875,14.83154296875
5.155929088592529,-1270134686,0,-0.1216663047671318,0.8910151720046997,-0.062450312077999115,10.92529296875,47.119140625,29.96826171875
5.170928239822388,-1270134684,1,0.12782181799411774,0.9660547971725464,-0.16308902204036713,-31.1279296875,-45.95947265625,25.57373046875
5.171031951904297,-1270134665,1,0.13831986486911774,0.9521387815475464,-0.15845035016536713,-28.86962890625,-67.32177734375,22.94921875
5.192901134490967,-1270134667,0,-0.1265491247177124,0.9024897813796997,-0.059276483952999115,17.2119140625,43.701171875,38.39111328125
5.192910194396973,-1270134648,0,-0.1287463903427124,0.9298335313796997,-0.07563390582799911,27.9541015625,31.92138671875,45.10498046875
5.200896978378296,-1270134646,1,0.12489213049411774,0.9013575315475464,-0.14526675641536713,-23.49853515625,-77.33154296875,20.44677734375
5.216126918792725,-1270134629,0,-0.1123889610171318,0.9625483751296997,-0.08393468707799911,30.33447265625,29.1748046875,46.69189453125
5.243816137313843,-1270134610,1,0.13050736486911774,0.7866114377975464,-0.12720035016536713,-20.93505859375,-87.70751953125,-8.60595703125
5.2479212284088135,-1270134610,0,-0.1416858434677124,1.0155268907546997,-0.08686437457799911,27.4658203125,40.0390625,49.01123046875
5.247928142547607,-1270134591,0,-0.1270374059677124,1.0045405626296997,-0.09711828082799911,23.86474609375,52.1240234375,50.4150390625
5.261054277420044,-1270134591,1,0.12342728674411774,0.7846583127975464,-0.12060855329036713,-8.72802734375,-90.087890625,-16.4794921875
5.2754340171813965,-1270134572,0,-0.1311877965927124,0.9974604845046997,-0.06733312457799911,28.25927734375,61.58447265625,55.7861328125
5.275552034378052,-1270134553,0,-0.1397327184677124,0.9972163438796997,-0.07246007770299911,33.14208984375,64.453125,60.24169921875
5.296781063079834,-1270134572,1,0.16029252111911774,0.8920801877975464,-0.14209292829036713,0.42724609375,-88.43994140625,-18.310546875
5.29679012298584,-1270134553,1,0.19032181799411774,0.8972071409225464,-0.13696597516536713,7.50732421875,-82.6416015625,-27.16064453125
5.306174993515015,-1270134534,0,-0.1397327184677124,1.0040522813796997,-0.07783117145299911,35.5224609375,71.1669921875,65.00244140625
5.320946216583252,-1270134534,1,0.20741166174411774,0.8412989377975464,-0.11645816266536713,12.8173828125,-45.166015625,-28.25927734375
5.3210461139678955,-1270134515,1,0.18983353674411774,0.8774317502975464,-0.12451480329036713,24.658203125,-3.72314453125,-37.4755859375
5.343144178390503,-1270134515,0,-0.1473010778427124,1.0482417345046997,-0.06977453082799911,34.48486328125,73.30322265625,69.03076171875
5.343151092529297,-1270134496,0,-0.1914905309677124,1.1070796251296997,-0.07294835895299911,36.4990234375,59.326171875,75.439453125
5.350839138031006,-1270134496,1,0.15882767736911774,0.9243067502975464,-0.12353824079036713,44.43359375,9.27734375,-50.048828125
5.365998029708862,-1270134477,0,-0.1577991247177124,1.0973140001296997,-0.08369054645299911,38.818359375,37.41455078125,80.4443359375
5.379312038421631,-1270134477,1,0.16248978674411774,0.9645899534225464,-0.14941714704036713,55.11474609375,10.1318359375,-54.01611328125
5.379421234130859,-1270134458,1,0.14588822424411774,0.9362696409225464,-0.15210269391536713,56.15234375,3.662109375,-55.908203125
5.408414125442505,-1270134439,1,0.14417923986911774,0.9374903440475464,-0.13598941266536713,57.31201171875,-5.0048828125,-58.59375
5.4243340492248535,-1270134458,0,-0.1524280309677124,1.1036616563796997,-0.09785070270299911,36.2548828125,29.4189453125,82.09228515625
5.424426078796387,-1270134422,0,-0.1653674840927124,1.1617671251296997,-0.09199132770299911,32.2265625,38.57421875,89.4775390625
5.425255060195923,-1270134403,0,-0.1770862340927124,1.1922847032546997,-0.09028234332799911,34.60693359375,45.654296875,94.66552734375
5.445681095123291,-1270134420,1,0.16200150549411774,0.9785059690475464,-0.13281558454036713,68.7255859375,-16.357421875,-60.11962890625
5.445691108703613,-1270134401,1,0.18055619299411774,0.9792383909225464,-0.13794253766536713,72.81494140625,-15.56396484375,-68.17626953125
5.455918073654175,-1270134384,0,-0.1577991247177124,1.1812983751296997,-0.10053624957799911,32.2265625,47.91259765625,93.68896484375
5.470070123672485,-1270134382,1,0.19422806799411774,0.9997462034225464,-0.13989566266536713,72.6318359375,-3.7841796875,-76.35498046875
5.493462085723877,-1270134365,0,-0.1768420934677124,1.1441890001296997,-0.09394445270299911,25.87890625,42.05322265625,92.041015625
5.493472099304199,-1270134346,0,-0.1783069372177124,1.1424800157546997,-0.09492101520299911,19.53125,28.25927734375,91.552734375
5.500261068344116,-1270134346,1,0.18958939611911774,1.0600489377975464,-0.14868472516536713,68.7255859375,15.19775390625,-77.57568359375
5.51433801651001,-1270134327,0,-0.1682971715927124,1.1329585313796997,-0.09101476520299911,8.7890625,12.20703125,91.1865234375
5.529449939727783,-1270134327,1,0.18202103674411774,1.0954493284225464,-0.15454410016536713,60.48583984375,14.34326171875,-77.2705078125
5.5295140743255615,-1270134308,1,0.18006791174411774,1.0822657346725464,-0.14990542829036713,58.53271484375,5.126953125,-73.2421875
5.546549081802368,-1270134308,0,-0.1680530309677124,1.0797358751296997,-0.07905187457799911,8.1787109375,13.85498046875,91.064453125
5.546557188034058,-1270134289,0,-0.1431506872177124,1.0802241563796997,-0.09565343707799911,9.82666015625,39.0625,87.40234375
5.559267997741699,-1270134289,1,0.19056595861911774,1.0451563596725464,-0.15283511579036713,56.2744140625,-1.03759765625,-71.044921875
5.576469898223877,-1270134270,0,-0.1585315465927124,1.1095210313796997,-0.10175695270299911,8.7890625,63.232421875,82.8857421875
5.594851016998291,-1270134270,1,0.19642533361911774,1.0942286252975464,-0.15307925641536713,51.08642578125,5.79833984375,-63.5986328125
5.5948591232299805,-1270134251,1,0.20179642736911774,1.1403712034225464,-0.16382144391536713,53.955078125,4.638671875,-57.43408203125
5.606083154678345,-1270134251,0,-0.1519397497177124,1.1249018907546997,-0.08979406207799911,6.40869140625,75.01220703125,74.64599609375
5.606230020523071,-1270134232,0,-0.1707385778427124,1.1217280626296997,-0.11323156207799911,5.0048828125,75.0732421875,66.46728515625
5.620993137359619,-1270134232,1,0.20106400549411774,1.1218165159225464,-0.17114566266536713,55.11474609375,1.3427734375,-59.2041015625
5.621033191680908,-1270134213,1,0.20008744299411774,1.0668848752975464,-0.14868472516536713,55.23681640625,7.38525390625,-55.5419921875
5.643742322921753,-1270134213,0,-0.1485217809677124,1.0743647813796997,-0.12470617145299911,0.48828125,75.62255859375,58.41064453125
5.64375114440918,-1270134194,0,-0.1507190465927124,1.1361323595046997,-0.09736242145299911,4.0283203125,85.87646484375,51.1474609375
5.651177167892456,-1270134194,1,0.18299759924411774,1.0414942502975464,-0.14770816266536713,61.279296875,10.25390625,-49.86572265625
5.678714036941528,-1270134175,1,0.19105423986911774,1.0590723752975464,-0.15210269391536713,73.2421875,12.3291015625,-46.9970703125
5.680336236953735,-1270134156,1,0.19496048986911774,1.0681055784225464,-0.15722964704036713,77.5146484375,11.8408203125,-48.33984375
5.696016073226929,-1270134158,0,-0.1458362340927124,1.0951167345046997,-0.07636632770299911,33.26416015625,105.89599609375,43.45703125
5.696130990982056,-1270134139,0,-0.1597522497177124,1.0865718126296997,-0.09345617145299911,41.015625,101.62353515625,32.77587890625
5.708389043807983,-1270134137,1,0.19544877111911774,1.0468653440475464,-0.15014956891536713,76.35498046875,17.27294921875,-49.01123046875
5.725207090377808,-1270134120,0,-0.1660999059677124,1.0941401720046997,-0.08027257770299911,33.14208984375,78.43017578125,35.82763671875
5.74655818939209,-1270134118,1,0.18568314611911774,1.0165919065475464,-0.13989566266536713,71.71630859375,26.7333984375,-40.52734375
5.7560341358184814,-1270134101,0,-0.1607288122177124,1.0760737657546997,-0.10322179645299911,24.23095703125,68.78662109375,43.15185546875
5.756132125854492,-1270134082,0,-0.1297229528427124,1.0374995470046997,-0.09321203082799911,11.1083984375,85.205078125,44.921875
5.7709879875183105,-1270134082,1,0.15370072424411774,0.8725489377975464,-0.11499331891536713,60.546875,28.076171875,-38.818359375
5.771177291870117,-1270134063,1,0.14857377111911774,0.8710840940475464,-0.11499331891536713,52.55126953125,23.49853515625,-37.9638671875
5.794435024261475,-1270134063,0,-0.1321643590927124,0.9752436876296997,-0.09101476520299911,0.91552734375,117.5537109375,42.724609375
5.7944419384002686,-1270134044,0,-0.1294788122177124,0.9386225938796997,-0.07368078082799911,-3.96728515625,134.3994140625,34.3017578125
5.800880193710327,-1270134044,1,0.16053666174411774,0.9020899534225464,-0.11499331891536713,54.38232421875,19.95849609375,-30.6396484375
5.815908193588257,-1270134025,0,-0.1502307653427124,0.9156733751296997,-0.06830968707799911,-8.36181640625,126.77001953125,29.1748046875
5.842370986938477,-1270134025,1,0.18055619299411774,0.9238184690475464,-0.11987613141536713,55.72509765625,21.54541015625,-17.822265625
5.842379093170166,-1270134006,1,0.17957963049411774,0.9323633909225464,-0.12256167829036713,48.03466796875,34.0576171875,-4.45556640625
5.847785949707031,-1270134006,0,-0.1499866247177124,0.8861323595046997,-0.07099523395299911,-12.0849609375,104.06494140625,23.25439453125
5.847793102264404,-1270133987,0,-0.1231311485171318,0.8360835313796997,-0.06855382770299911,-16.66259765625,94.05517578125,11.71875
5.860960006713867,-1270133987,1,0.17909134924411774,0.9157618284225464,-0.12597964704036713,32.470703125,50.72021484375,7.50732421875
5.87596321105957,-1270133968,0,-0.1004260703921318,0.7625972032546997,-0.057079218327999115,-13.18359375,108.154296875,-1.64794921875
5.896423101425171,-1270133968,1,0.14930619299411774,0.8410547971725464,-0.10986636579036713,24.658203125,57.55615234375,4.0283203125
5.897518157958984,-1270133949,1,0.13026322424411774,0.7609766721725464,-0.10058902204036713,26.18408203125,59.63134765625,2.685546875
5.9045140743255615,-1270133949,0,-0.1001819297671318,0.7577143907546997,-0.07294835895299911,-10.1318359375,128.96728515625,-13.73291015625
5.904584169387817,-1270133930,0,-0.1206897422671318,0.7518550157546997,-0.055614374577999115,-3.60107421875,150.69580078125,-27.40478515625
5.943335056304932,-1270133894,0,-0.1092151328921318,0.8243647813796997,-0.10200109332799911,-4.2724609375,167.1142578125,-53.40576171875
5.949817180633545,-1270133930,1,0.11585892736911774,0.7336329221725464,-0.10132144391536713,29.9072265625,59.87548828125,3.35693359375
5.949923992156982,-1270133911,1,0.12318314611911774,0.7797755002975464,-0.11328433454036713,33.14208984375,50.10986328125,3.35693359375
5.950002193450928,-1270133892,1,0.13441361486911774,0.8373926877975464,-0.11181949079036713,41.9921875,39.0625,7.080078125
5.965673923492432,-1270133875,0,-0.1145862266421318,0.8153315782546997,-0.08051671832799911,2.86865234375,154.11376953125,-74.27978515625
5.991626977920532,-1270133873,1,0.16346634924411774,0.8925684690475464,-0.12402652204036713,44.61669921875,39.55078125,16.9677734375
5.991635084152222,-1270133854,1,0.16981400549411774,0.8749903440475464,-0.11572574079036713,34.66796875,51.20849609375,24.71923828125
5.995944261550903,-1270133856,0,-0.0769885703921318,0.8680659532546997,-0.1442374289035797,10.3759765625,131.34765625,-92.59033203125
5.995951175689697,-1270133837,0,-0.1126331016421318,0.8934565782546997,-0.12250890582799911,8.11767578125,115.8447265625,-99.30419921875
6.023503065109253,-1270133818,0,-0.0686877891421318,0.9359370470046997,-0.1562003195285797,23.25439453125,96.49658203125,-78.30810546875
6.045143127441406,-1270133818,1,0.14906205236911774,0.7741602659225464,-0.09375308454036713,26.123046875,96.435546875,16.54052734375
6.04515814781189,-1270133799,1,0.13123978674411774,0.7712305784225464,-0.10254214704036713,29.72412109375,107.60498046875,2.5634765625
6.054465055465698,-1270133799,0,-0.1043323203921318,0.9508296251296997,-0.11811437457799911,31.79931640625,89.90478515625,-61.279296875
6.054569244384766,-1270133780,0,-0.1477893590927124,0.9742671251296997,-0.07514562457799911,31.982421875,76.23291015625,-63.1103515625
6.06937313079834,-1270133780,1,0.12074173986911774,0.7827051877975464,-0.10791324079036713,26.3671875,104.00390625,-7.26318359375
6.093163967132568,-1270133761,0,-0.1206897422671318,0.9950190782546997,-0.07294835895299911,26.67236328125,71.83837890625,-68.84765625
6.093172073364258,-1270133742,0,-0.1221545860171318,0.9947749376296997,-0.08613195270299911,17.63916015625,89.78271484375,-79.2236328125
6.100865125656128,-1270133761,1,0.13587845861911774,0.8459376096725464,-0.11157535016536713,18.24951171875,104.91943359375,-6.103515625
6.100872993469238,-1270133742,1,0.14930619299411774,0.9106348752975464,-0.11841128766536713,8.97216796875,106.99462890625,-5.0048828125
6.115960121154785,-1270133723,0,-0.1282581090927124,0.9215327501296997,-0.07050695270299911,15.80810546875,104.736328125,-76.84326171875
6.130887269973755,-1270133723,1,0.16883744299411774,0.9706934690475464,-0.13476870954036713,-0.9765625,107.7880859375,-6.7138671875
6.1310200691223145,-1270133704,1,0.17347611486911774,0.9789942502975464,-0.14697574079036713,-14.404296875,116.88232421875,-10.31494140625
6.14872407913208,-1270133704,0,-0.1221545860171318,0.9398432970046997,-0.06464757770299911,20.5078125,107.84912109375,-66.7724609375
6.148733139038086,-1270133685,0,-0.1277698278427124,0.9478999376296997,-0.07221593707799911,29.052734375,107.36083984375,-63.3544921875
6.160907983779907,-1270133685,1,0.18031205236911774,1.0204981565475464,-0.14502261579036713,-28.1982421875,126.40380859375,-13.48876953125
6.1759490966796875,-1270133666,0,-0.1377795934677124,1.0108882188796997,-0.08124914020299911,30.2734375,98.08349609375,-69.580078125
6.196913242340088,-1270133666,1,0.18592728674411774,1.0427149534225464,-0.16162417829036713,-33.26416015625,130.37109375,-14.2822265625
6.196922063827515,-1270133647,1,0.19325150549411774,1.0524805784225464,-0.16138003766536713,-35.09521484375,136.16943359375,-8.97216796875
6.2061638832092285,-1270133630,0,-0.1377795934677124,1.0445796251296997,-0.08344640582799911,27.64892578125,88.2568359375,-94.8486328125
6.220808982849121,-1270133628,1,0.19935502111911774,1.0314844846725464,-0.16162417829036713,-43.15185546875,150.5126953125,-4.7607421875
6.243788957595825,-1270133611,0,-0.1348499059677124,1.0345698595046997,-0.07246007770299911,31.06689453125,94.23828125,-105.52978515625
6.2437989711761475,-1270133592,0,-0.1267932653427124,1.1100093126296997,-0.09492101520299911,35.58349609375,104.4921875,-112.4267578125
6.25105094909668,-1270133609,1,0.18617142736911774,1.0004786252975464,-0.15600894391536713,-45.41015625,163.87939453125,0.42724609375
6.251136064529419,-1270133590,1,0.16615189611911774,0.9572657346725464,-0.16211245954036713,-42.66357421875,167.96875,2.5634765625
6.268195152282715,-1270133573,0,-0.1480334997177124,1.1507807970046997,-0.09077062457799911,46.44775390625,109.06982421875,-106.14013671875
6.292987108230591,-1270133554,1,0.13343705236911774,0.9077051877975464,-0.14868472516536713,-37.41455078125,157.1044921875,1.40380859375
6.297085285186768,-1270133554,0,-0.1580432653427124,1.1954585313796997,-0.10908117145299911,46.38671875,106.8115234375,-101.9287109375
6.29758095741272,-1270133535,0,-0.1570667028427124,1.1869136095046997,-0.11323156207799911,40.83251953125,102.47802734375,-101.9287109375
6.311056137084961,-1270133535,1,0.13954056799411774,0.9387110471725464,-0.16308902204036713,-37.17041015625,143.37158203125,-6.40869140625
6.325841188430786,-1270133516,0,-0.1538928747177124,1.1878901720046997,-0.08369054645299911,39.97802734375,95.15380859375,-99.365234375
6.3464250564575195,-1270133516,1,0.14662064611911774,0.9868067502975464,-0.15600894391536713,-40.6494140625,130.2490234375,-20.32470703125
6.346434116363525,-1270133497,1,0.16517533361911774,1.0478419065475464,-0.17383120954036713,-40.10009765625,120.66650390625,-29.6630859375
6.356456279754639,-1270133497,0,-0.1575549840927124,1.2062007188796997,-0.10322179645299911,43.39599609375,89.35546875,-93.81103515625
6.356465101242065,-1270133478,0,-0.1597522497177124,1.2467280626296997,-0.10615148395299911,46.81396484375,87.40234375,-86.181640625
6.370910167694092,-1270133478,1,0.17005814611911774,1.0998438596725464,-0.17456363141536713,-39.97802734375,115.29541015625,-34.423828125
6.393762111663818,-1270133459,0,-0.1626819372177124,1.2328120470046997,-0.10517492145299911,49.01123046875,83.92333984375,-73.486328125
6.401018142700195,-1270133459,1,0.18250931799411774,1.1310938596725464,-0.18457339704036713,-38.26904296875,107.91015625,-37.29248046875
6.401133060455322,-1270133440,1,0.18226517736911774,1.1049708127975464,-0.17822574079036713,-37.841796875,93.8720703125,-43.9453125
6.416137933731079,-1270133440,0,-0.1524280309677124,1.1959468126296997,-0.11103429645299911,50.6591796875,82.45849609375,-68.2373046875
6.4162421226501465,-1270133421,0,-0.1387561559677124,1.0846186876296997,-0.08466710895299911,49.1943359375,81.6650390625,-74.5849609375
6.429150104522705,-1270133421,1,0.17445267736911774,1.0126856565475464,-0.16382144391536713,-39.4287109375,87.2802734375,-45.10498046875
6.458672046661377,-1270133402,1,0.16493119299411774,0.9702051877975464,-0.16382144391536713,-43.76220703125,83.49609375,-35.2783203125
6.459434986114502,-1270133383,1,0.14100541174411774,0.9445704221725464,-0.15869449079036713,-45.10498046875,73.66943359375,-27.03857421875
6.474539041519165,-1270133402,0,-0.1458362340927124,1.0196772813796997,-0.08027257770299911,48.64501953125,78.9794921875,-75.5615234375
6.474595069885254,-1270133366,0,-0.1700061559677124,1.0492182970046997,-0.06684484332799911,56.21337890625,62.80517578125,-66.58935546875
6.49832010269165,-1270133364,1,0.12415970861911774,0.9367579221725464,-0.15381167829036713,-39.55078125,47.4853515625,-8.30078125
6.498329162597656,-1270133345,1,0.13636673986911774,0.9916895627975464,-0.16333316266536713,-28.86962890625,17.2119140625,7.26318359375
6.505974054336548,-1270133347,0,-0.1592639684677124,1.1085444688796997,-0.06953039020299911,63.17138671875,37.04833984375,-66.22314453125
6.506062984466553,-1270133328,0,-0.1739124059677124,1.1559077501296997,-0.07538976520299911,66.71142578125,1.953125,-68.78662109375
6.5192601680755615,-1270133326,1,0.17689408361911774,1.0231837034225464,-0.15967105329036713,-20.01953125,-3.662109375,11.23046875
6.54584813117981,-1270133309,0,-0.1558459997177124,1.1490718126296997,-0.09077062457799911,58.2275390625,-22.64404296875,-73.974609375
6.550963878631592,-1270133290,1,0.23890580236911774,1.0512598752975464,-0.15112613141536713,-10.3759765625,50.84228515625,6.65283203125
6.5644049644470215,-1270133290,0,-0.1458362340927124,1.1009761095046997,-0.09540929645299911,38.87939453125,-25.81787109375,-80.50537109375
6.56452202796936,-1270133271,0,-0.1304553747177124,1.0694819688796997,-0.07807531207799911,20.6298828125,-19.59228515625,-78.06396484375
6.5792460441589355,-1270133271,1,0.23133744299411774,1.0849512815475464,-0.13843081891536713,-2.5634765625,84.8388671875,-0.54931640625
6.596249103546143,-1270133252,0,-0.0967639610171318,0.9544917345046997,-0.06904210895299911,1.220703125,-4.08935546875,-69.39697265625
6.59672999382019,-1270133233,0,-0.1026233360171318,0.8856440782546997,-0.07075109332799911,-15.9912109375,7.14111328125,-62.1337890625
6.609527111053467,-1270133252,1,0.18910111486911774,1.0993555784225464,-0.15527652204036713,17.02880859375,106.14013671875,-13.97705078125
6.609591007232666,-1270133233,1,0.13929642736911774,1.0449122190475464,-0.16650699079036713,14.09912109375,97.71728515625,-20.01953125
6.62428617477417,-1270133214,0,-0.1194690391421318,0.8766108751296997,-0.06318273395299911,-23.01025390625,8.85009765625,-53.1005859375
6.644869089126587,-1270133214,1,0.11390580236911774,0.9758204221725464,-0.16894839704036713,-9.46044921875,73.6083984375,-16.54052734375
6.644878149032593,-1270133195,1,0.11244095861911774,0.9531153440475464,-0.15161441266536713,-28.62548828125,50.96435546875,-13.671875
6.657323122024536,-1270133195,0,-0.1109241172671318,0.8922358751296997,-0.06513585895299911,-25.81787109375,4.8828125,-45.8984375
6.657331943511963,-1270133176,0,-0.0948108360171318,0.8995600938796997,-0.062450312077999115,-28.9306640625,5.859375,-41.56494140625
6.670936107635498,-1270133176,1,0.14076127111911774,0.9475001096725464,-0.12988589704036713,-25.390625,22.94921875,-16.41845703125
6.6929919719696045,-1270133157,0,-0.1243518516421318,0.8692866563796997,-0.07465734332799911,-33.935546875,10.25390625,-38.63525390625
6.7015321254730225,-1270133157,1,0.17762650549411774,0.9672755002975464,-0.14087222516536713,-9.94873046875,13.61083984375,-25.146484375
6.701541185379028,-1270133138,1,0.20960892736911774,1.0041407346725464,-0.15527652204036713,-9.82666015625,35.400390625,-28.74755859375
6.71433424949646,-1270133138,0,-0.1160510703921318,0.8922358751296997,-0.07661046832799911,-38.02490234375,12.0849609375,-33.02001953125
6.742589235305786,-1270133119,1,0.19081009924411774,1.0219630002975464,-0.15991519391536713,-13.97705078125,62.8662109375,-32.470703125
6.748829126358032,-1270133102,0,-0.1482776403427124,0.9410640001296997,-0.06391515582799911,-38.330078125,-2.99072265625,-17.15087890625
6.748837232589722,-1270133083,0,-0.1411975622177124,1.0270015001296997,-0.07612218707799911,-28.80859375,-9.521484375,-12.87841796875
6.761115074157715,-1270133100,1,0.17494095861911774,1.0461329221725464,-0.16479800641536713,-12.14599609375,69.82421875,-33.3251953125
6.761189222335815,-1270133081,1,0.15614213049411774,1.0497950315475464,-0.16943667829036713,-0.6103515625,53.52783203125,-33.87451171875
6.775883913040161,-1270133064,0,-0.1394885778427124,1.0587397813796997,-0.10248937457799911,-25.7568359375,-13.48876953125,-16.05224609375
6.799971103668213,-1270133062,1,0.14662064611911774,1.0266016721725464,-0.16406558454036713,19.53125,24.47509765625,-33.14208984375
6.80457329750061,-1270133045,0,-0.1531604528427124,1.0479975938796997,-0.10053624957799911,-30.57861328125,-14.5263671875,-16.90673828125
6.804687023162842,-1270133026,0,-0.1133655235171318,0.9894038438796997,-0.09296789020299911,-40.46630859375,-2.74658203125,-18.6767578125
6.8209052085876465,-1270133026,1,0.16419877111911774,0.8976954221725464,-0.15063785016536713,13.7939453125,7.75146484375,-7.87353515625
6.844418048858643,-1270133007,0,-0.1136096641421318,0.9435054063796997,-0.08637609332799911,-53.1005859375,22.8271484375,-19.6533203125
6.851030111312866,-1270133007,1,0.16322220861911774,0.8393458127975464,-0.12427066266536713,17.2119140625,17.39501953125,2.25830078125
6.851134300231934,-1270132988,1,0.15223588049411774,0.8171290159225464,-0.11865542829036713,30.3955078125,23.74267578125,3.47900390625
6.866057872772217,-1270132988,0,-0.1238635703921318,0.9120112657546997,-0.058788202702999115,-48.33984375,39.1845703125,-14.09912109375
6.866123914718628,-1270132969,0,-0.1465686559677124,0.9278804063796997,-0.08881749957799911,-37.90283203125,27.587890625,-4.39453125
6.880839109420776,-1270132969,1,0.14369095861911774,0.8141993284225464,-0.11792300641536713,47.7294921875,25.93994140625,-1.46484375
6.896274089813232,-1270132950,0,-0.1636584997177124,0.9461909532546997,-0.08271398395299911,-39.85595703125,0.42724609375,5.859375
6.9111809730529785,-1270132950,1,0.13978470861911774,0.8579005002975464,-0.13208316266536713,56.70166015625,25.32958984375,-7.38525390625
6.911283254623413,-1270132931,1,0.13026322424411774,0.9194239377975464,-0.15063785016536713,48.03466796875,20.20263671875,-13.24462890625
6.926055192947388,-1270132931,0,-0.1419299840927124,1.0167475938796997,-0.10712804645299911,-52.3681640625,-28.50341796875,16.05224609375
6.926141262054443,-1270132912,0,-0.1277698278427124,0.9889155626296997,-0.09565343707799911,-67.93212890625,-24.658203125,15.869140625
6.945818185806274,-1270132912,1,0.11805619299411774,0.9167383909225464,-0.14013980329036713,38.6962890625,5.92041015625,-15.68603515625
6.945825099945068,-1270132893,1,0.12196244299411774,0.9177149534225464,-0.13159488141536713,38.02490234375,-12.02392578125,-10.1318359375
6.9910829067230225,-1270132893,0,-0.1172717735171318,0.9513179063796997,-0.08417882770299911,-74.951171875,1.708984375,17.15087890625
6.991091966629028,-1270132874,0,-0.1297229528427124,0.9188472032546997,-0.07636632770299911,-75.25634765625,8.85009765625,22.8271484375
6.999417066574097,-1270132874,1,0.14198197424411774,0.9108790159225464,-0.13891910016536713,42.17529296875,-30.45654296875,-15.80810546875
6.999489068984985,-1270132855,1,0.15809525549411774,0.9035547971725464,-0.13476870954036713,45.7763671875,-40.71044921875,-21.66748046875
7.005259037017822,-1270132836,1,0.17323197424411774,0.8596094846725464,-0.12134097516536713,47.18017578125,-31.18896484375,-23.5595703125
7.014570951461792,-1270132838,0,-0.1409534215927124,0.9320307970046997,-0.08320226520299911,-65.24658203125,-33.447265625,40.6494140625
7.014652252197266,-1270132819,0,-0.1319202184677124,0.9676753282546997,-0.09833898395299911,-66.46728515625,-52.18505859375,44.677734375
7.029331922531128,-1270132817,1,0.17176713049411774,0.8217676877975464,-0.11108706891536713,54.87060546875,-14.46533203125,-18.1884765625
7.046472072601318,-1270132800,0,-0.1402209997177124,1.0340815782546997,-0.09711828082799911,-69.88525390625,-49.25537109375,43.76220703125
7.060949087142944,-1270132798,1,0.16908158361911774,0.8403223752975464,-0.11621402204036713,61.58447265625,10.92529296875,-14.404296875
7.076069116592407,-1270132781,0,-0.1470569372177124,1.0819331407546997,-0.11591710895299911,-69.27490234375,-33.5693359375,46.630859375
7.076207160949707,-1270132762,0,-0.1477893590927124,1.0606929063796997,-0.10615148395299911,-67.9931640625,-20.32470703125,52.18505859375
7.096492052078247,-1270132762,1,0.14369095861911774,0.8735255002975464,-0.11670230329036713,72.81494140625,18.49365234375,-13.916015625
7.096502065658569,-1270132743,1,0.14027298986911774,0.8652247190475464,-0.11841128766536713,63.8427734375,13.916015625,-14.46533203125
7.1047680377960205,-1270132743,0,-0.1331409215927124,1.0067378282546997,-0.10419835895299911,-69.51904296875,-5.9814453125,60.72998046875
7.104860067367554,-1270132724,0,-0.1343616247177124,0.9420405626296997,-0.09003820270299911,-68.90869140625,4.08935546875,64.94140625
7.1192100048065186,-1270132724,1,0.13661088049411774,0.8669337034225464,-0.11596988141536713,52.6123046875,7.50732421875,-11.65771484375
7.146510124206543,-1270132705,0,-0.1258167028427124,0.9269038438796997,-0.08759679645299911,-66.40625,7.4462890625,65.36865234375
7.150974988937378,-1270132705,1,0.13807572424411774,0.8681544065475464,-0.11108706891536713,42.29736328125,0.79345703125,-8.1787109375
7.150992155075073,-1270132686,1,0.15199173986911774,0.8762110471725464,-0.11523745954036713,30.82275390625,-2.13623046875,-9.27734375
7.1660332679748535,-1270132686,0,-0.1502307653427124,0.9969722032546997,-0.09565343707799911,-57.67822265625,-4.21142578125,63.232421875
7.1661412715911865,-1270132667,0,-0.1787952184677124,1.0978022813796997,-0.07001867145299911,-35.58349609375,-29.23583984375,64.94140625
7.191307067871094,-1270132667,1,0.15809525549411774,0.8459376096725464,-0.11377261579036713,18.310546875,5.0048828125,-12.14599609375
7.19578218460083,-1270132648,0,-0.1629260778427124,1.1239253282546997,-0.11713781207799911,-19.10400390625,-49.560546875,71.22802734375
7.210158109664917,-1270132648,1,0.14784134924411774,0.8127344846725464,-0.10400699079036713,12.0849609375,15.2587890625,-14.0380859375
7.210261106491089,-1270132629,1,0.15150345861911774,0.8120020627975464,-0.10888980329036713,9.21630859375,20.8740234375,-16.2353515625
7.224422216415405,-1270132629,0,-0.1480334997177124,1.1102534532546997,-0.12275304645299911,-22.39990234375,-46.08154296875,79.2236328125
7.22455906867981,-1270132610,0,-0.1214221641421318,1.0873042345046997,-0.12079992145299911,-39.97802734375,-13.427734375,82.21435546875
7.246093034744263,-1270132610,1,0.14271439611911774,0.7941797971725464,-0.11133120954036713,3.96728515625,23.62060546875,-15.5029296875
7.255826234817505,-1270132574,0,-0.1687854528427124,1.1251460313796997,-0.10004796832799911,-41.07666015625,35.888671875,86.669921875
7.270925998687744,-1270132591,1,0.13246048986911774,0.8061426877975464,-0.11743472516536713,4.33349609375,23.3154296875,-6.77490234375
7.271067142486572,-1270132572,1,0.13539017736911774,0.8205469846725464,-0.11548160016536713,5.55419921875,12.3291015625,0.42724609375
7.293542146682739,-1270132555,0,-0.1875842809677124,1.1385737657546997,-0.09150304645299911,-32.40966796875,23.25439453125,89.4775390625
7.301048994064331,-1270132553,1,0.13831986486911774,0.8271387815475464,-0.11743472516536713,4.45556640625,2.197265625,2.62451171875
7.30117130279541,-1270132534,1,0.15321244299411774,0.8234766721725464,-0.11523745954036713,-0.67138671875,2.01416015625,12.63427734375
7.314510107040405,-1270132536,0,-0.1687854528427124,1.1195307970046997,-0.11713781207799911,-29.84619140625,2.0751953125,91.73583984375
7.314590215682983,-1270132517,0,-0.1497424840927124,1.0924311876296997,-0.10566320270299911,-37.65869140625,2.99072265625,90.14892578125
7.347293138504028,-1270132498,0,-0.1512073278427124,1.0467768907546997,-0.10078039020299911,-43.88427734375,21.17919921875,79.4677734375
7.361065864562988,-1270132498,1,0.14466752111911774,0.8200587034225464,-0.10620425641536713,-4.45556640625,15.0146484375,34.60693359375
7.361125230789185,-1270132479,1,0.13807572424411774,0.8207911252975464,-0.10571597516536713,-7.080078125,13.671875,31.06689453125
7.376193046569824,-1270132479,0,-0.1641467809677124,1.0255366563796997,-0.07514562457799911,-35.94970703125,36.4990234375,78.30810546875
7.37633204460144,-1270132460,0,-0.1482776403427124,0.9598628282546997,-0.10810460895299911,-21.3623046875,44.43359375,78.61328125
7.396251201629639,-1270132460,1,0.13416947424411774,0.8417872190475464,-0.11059878766536713,-15.07568359375,13.00048828125,24.7802734375
7.405997037887573,-1270132441,0,-0.1309436559677124,0.9020015001296997,-0.09028234332799911,-15.07568359375,48.40087890625,74.27978515625
7.406126022338867,-1270132422,0,-0.1314319372177124,0.8829585313796997,-0.09492101520299911,-12.39013671875,52.734375,63.3544921875
7.420336008071899,-1270132441,1,0.14124955236911774,0.8652247190475464,-0.12158511579036713,-26.2451171875,15.380859375,23.5595703125
7.420406103134155,-1270132422,1,0.14320267736911774,0.8644922971725464,-0.11596988141536713,-43.9453125,19.6533203125,22.94921875
7.445051193237305,-1270132403,0,-0.1455920934677124,0.9041987657546997,-0.06684484332799911,-5.615234375,48.4619140625,54.931640625
7.4509851932525635,-1270132403,1,0.14930619299411774,0.8664454221725464,-0.12060855329036713,-47.2412109375,24.96337890625,25.57373046875
7.451130151748657,-1270132384,1,0.15077103674411774,0.8874415159225464,-0.11841128766536713,-40.46630859375,31.3720703125,23.8037109375
7.46609091758728,-1270132384,0,-0.1321643590927124,0.9037104845046997,-0.07221593707799911,6.4697265625,39.36767578125,50.35400390625
7.466218948364258,-1270132365,0,-0.1563342809677124,0.9122554063796997,-0.08344640582799911,19.04296875,31.1279296875,47.18017578125
7.508657217025757,-1270132365,1,0.15809525549411774,0.9379786252975464,-0.14258120954036713,-42.05322265625,36.56005859375,14.892578125
7.509511232376099,-1270132346,1,0.15931595861911774,0.9499415159225464,-0.14258120954036713,-50.29296875,40.58837890625,5.06591796875
7.509587287902832,-1270132327,1,0.15638627111911774,0.9416407346725464,-0.14770816266536713,-56.640625,43.0908203125,3.0517578125
7.52443528175354,-1270132346,0,-0.1436389684677124,0.9286128282546997,-0.07758703082799911,18.98193359375,32.958984375,42.17529296875
7.5245702266693115,-1270132310,0,-0.1341174840927124,0.9049311876296997,-0.08320226520299911,7.14111328125,62.3779296875,23.92578125
7.544337034225464,-1270132308,1,0.15199173986911774,0.9384669065475464,-0.13769839704036713,-52.42919921875,44.86083984375,8.36181640625
7.556009292602539,-1270132291,0,-0.1328967809677124,0.9325190782546997,-0.06708898395299911,12.26806640625,65.91796875,22.88818359375
7.5560948848724365,-1270132272,0,-0.1414417028427124,0.9518061876296997,-0.08417882770299911,18.73779296875,60.4248046875,25.7568359375
7.571073055267334,-1270132289,1,0.14832963049411774,0.9326075315475464,-0.13550113141536713,-41.93115234375,43.45703125,10.43701171875
7.571185111999512,-1270132270,1,0.15956009924411774,0.9680079221725464,-0.15332339704036713,-34.0576171875,43.8232421875,3.90625
7.593889951705933,-1270132253,0,-0.1297229528427124,0.9562007188796997,-0.07148351520299911,18.37158203125,56.0302734375,21.3623046875
7.6009521484375,-1270132234,1,0.16786088049411774,1.0114649534225464,-0.15405581891536713,-35.5224609375,46.56982421875,-5.67626953125
7.614531993865967,-1270132234,0,-0.1397327184677124,0.9742671251296997,-0.07612218707799911,12.5732421875,62.255859375,13.24462890625
7.6145920753479,-1270132215,0,-0.1431506872177124,0.9857417345046997,-0.07197179645299911,18.37158203125,69.3359375,9.33837890625
7.629187107086182,-1270132215,1,0.16834916174411774,0.9902247190475464,-0.15381167829036713,-34.66796875,51.33056640625,-1.77001953125
7.646615982055664,-1270132196,0,-0.1409534215927124,0.9735347032546997,-0.09199132770299911,26.91650390625,70.068359375,9.58251953125
7.659463167190552,-1270132196,1,0.16346634924411774,0.9926661252975464,-0.15259097516536713,-29.72412109375,53.64990234375,3.662109375
7.659581184387207,-1270132177,1,0.15907181799411774,1.0136622190475464,-0.14917300641536713,-23.86474609375,50.9033203125,4.94384765625
7.675514221191406,-1270132177,0,-0.1270374059677124,0.9449702501296997,-0.07734289020299911,36.62109375,71.10595703125,9.70458984375
7.675588130950928,-1270132158,0,-0.1219104453921318,0.9435054063796997,-0.08686437457799911,43.02978515625,77.81982421875,5.615234375
7.696951150894165,-1270132158,1,0.17323197424411774,1.0424708127975464,-0.16479800641536713,-23.8037109375,39.794921875,-0.67138671875
7.706295967102051,-1270132139,0,-0.1399768590927124,0.9757319688796997,-0.08344640582799911,44.49462890625,77.2705078125,4.45556640625
7.720968246459961,-1270132139,1,0.17079056799411774,1.0136622190475464,-0.15478824079036713,-32.53173828125,41.8701171875,-4.69970703125
7.721045970916748,-1270132120,1,0.16834916174411774,0.9853419065475464,-0.15405581891536713,-31.06689453125,47.05810546875,1.40380859375
7.742743968963623,-1270132120,0,-0.1905139684677124,0.9684077501296997,-0.030467890202999115,46.5087890625,56.33544921875,6.53076171875
7.742756128311157,-1270132101,0,-0.1841663122177124,0.9481440782546997,-0.025340937077999115,52.734375,14.6484375,8.72802734375
7.75114893913269,-1270132101,1,0.15736283361911774,0.9753321409225464,-0.15381167829036713,-24.84130859375,44.37255859375,0.244140625
7.764272212982178,-1270132082,0,-0.1807483434677124,0.9398432970046997,-0.016063593327999115,50.78125,6.7138671875,-2.38037109375
7.782041072845459,-1270132082,1,0.15418900549411774,0.9697169065475464,-0.15722964704036713,-20.81298828125,36.1328125,-0.1220703125
7.782048940658569,-1270132063,1,0.15711869299411774,0.9782618284225464,-0.15893863141536713,-18.4326171875,28.076171875,-4.08935546875
7.79951810836792,-1270132046,0,-0.1824573278427124,1.0033198595046997,-0.041210077702999115,35.70556640625,73.73046875,-25.69580078125
7.811033010482788,-1270132044,1,0.16761673986911774,0.9555567502975464,-0.15185855329036713,-15.31982421875,29.35791015625,-1.77001953125
7.81110405921936,-1270132025,1,0.16639603674411774,0.9445704221725464,-0.14648745954036713,-13.12255859375,36.19384765625,5.06591796875
7.825418949127197,-1270132027,0,-0.1499866247177124,1.0008784532546997,-0.056835077702999115,37.841796875,99.609375,-31.982421875
7.825465202331543,-1270132008,0,-0.1758655309677124,0.9852534532546997,-0.046581171452999115,43.701171875,90.2099609375,-23.5595703125
7.8457090854644775,-1270132006,1,0.16371048986911774,0.9313868284225464,-0.14355777204036713,-0.9765625,38.26904296875,4.94384765625
7.855997085571289,-1270131989,0,-0.1624377965927124,1.0138179063796997,-0.06489171832799911,53.1005859375,47.8515625,-9.8876953125
7.8708720207214355,-1270131970,1,0.16175736486911774,0.9675196409225464,-0.15625308454036713,13.97705078125,30.517578125,0.8544921875
7.894286155700684,-1270131970,0,-0.1675647497177124,1.0619136095046997,-0.08588781207799911,45.41015625,17.27294921875,-12.02392578125
7.894294023513794,-1270131951,0,-0.1341174840927124,1.0641108751296997,-0.08051671832799911,36.43798828125,14.09912109375,-16.357421875
7.901144027709961,-1270131951,1,0.15711869299411774,0.9521387815475464,-0.14477847516536713,15.0146484375,27.4658203125,4.69970703125
7.901278972625732,-1270131932,1,0.15492142736911774,0.9348047971725464,-0.14184878766536713,18.12744140625,26.06201171875,12.5732421875
7.916141033172607,-1270131932,0,-0.1375354528427124,0.9972163438796997,-0.06806554645299911,34.912109375,24.90234375,-13.12255859375
7.916237115859985,-1270131913,0,-0.1280139684677124,0.9769526720046997,-0.06660070270299911,40.46630859375,35.46142578125,-8.6669921875
7.929327011108398,-1270131913,1,0.13954056799411774,0.9138087034225464,-0.13769839704036713,22.216796875,19.8974609375,14.0380859375
7.9466822147369385,-1270131894,0,-0.1431506872177124,0.9911128282546997,-0.08271398395299911,40.771484375,33.3251953125,-4.39453125
7.960979223251343,-1270131894,1,0.13709916174411774,0.9101465940475464,-0.13598941266536713,24.4140625,9.09423828125,10.43701171875
7.961087942123413,-1270131875,1,0.14686478674411774,0.9182032346725464,-0.13428042829036713,24.47509765625,-1.708984375,3.47900390625
7.976111173629761,-1270131875,0,-0.1453479528427124,1.0475093126296997,-0.08539953082799911,37.29248046875,19.53125,-8.4228515625
7.976222991943359,-1270131856,0,-0.1712268590927124,1.0821772813796997,-0.07783117145299911,34.3017578125,-6.77490234375,-15.68603515625
7.993717908859253,-1270131856,1,0.15614213049411774,0.9086817502975464,-0.13086245954036713,19.83642578125,-7.26318359375,2.44140625
8.040446996688843,-1270131837,0,-0.1548694372177124,1.0528804063796997,-0.07831945270299911,34.7900390625,-26.67236328125,-18.00537109375
8.040456295013428,-1270131818,0,-0.1233752891421318,1.0077143907546997,-0.06757726520299911,36.92626953125,-24.7802734375,-16.78466796875
8.04961109161377,-1270131837,1,0.15028275549411774,0.8784083127975464,-0.12475894391536713,17.02880859375,-2.99072265625,11.8408203125
8.049694299697876,-1270131818,1,0.14442338049411774,0.8642481565475464,-0.12793277204036713,20.08056640625,-3.7841796875,20.44677734375
8.050950050354004,-1270131799,1,0.13416947424411774,0.8430079221725464,-0.12964175641536713,20.81298828125,-10.55908203125,23.86474609375
8.051026105880737,-1270131780,1,0.13490189611911774,0.7961329221725464,-0.12134097516536713,24.84130859375,-19.6533203125,24.23095703125
8.0643892288208,-1270131782,0,-0.1177600547671318,1.0086909532546997,-0.09785070270299911,38.330078125,12.5732421875,-21.05712890625
8.064510107040405,-1270131763,0,-0.1355823278427124,1.0519038438796997,-0.07929601520299911,39.73388671875,28.9306640625,-27.099609375
8.080874919891357,-1270131761,1,0.14271439611911774,0.7841700315475464,-0.11719058454036713,29.6630859375,-21.05712890625,28.80859375
8.099426984786987,-1270131744,0,-0.1617053747177124,1.0155268907546997,-0.07465734332799911,42.1142578125,12.8173828125,-32.2265625
8.11081600189209,-1270131742,1,0.15174759924411774,0.8007715940475464,-0.11499331891536713,33.87451171875,-16.54052734375,30.6396484375
8.128392219543457,-1270131725,0,-0.1502307653427124,0.9464350938796997,-0.07075109332799911,39.1845703125,-16.29638671875,-31.06689453125
8.128403186798096,-1270131706,0,-0.1272815465927124,0.9342280626296997,-0.07221593707799911,33.935546875,-26.67236328125,-29.4189453125
8.145698070526123,-1270131706,1,0.12049759924411774,0.8010157346725464,-0.12109683454036713,43.27392578125,-15.869140625,30.94482421875
8.154279232025146,-1270131687,0,-0.1228870078921318,0.9388667345046997,-0.047069452702999115,29.35791015625,-20.751953125,-31.1279296875
8.171715021133423,-1270131687,1,0.11610306799411774,0.7585352659225464,-0.12158511579036713,45.22705078125,-31.1279296875,28.99169921875
8.171724081039429,-1270131668,1,0.10487259924411774,0.7167872190475464,-0.10156558454036713,44.3115234375,-43.701171875,32.77587890625
8.192154169082642,-1270131668,0,-0.1204456016421318,0.9378901720046997,-0.06367101520299911,31.31103515625,-7.26318359375,-33.5693359375
8.192162036895752,-1270131649,0,-0.1402209997177124,0.9398432970046997,-0.050243280827999115,31.8603515625,-9.82666015625,-32.77587890625
8.200425863265991,-1270131649,1,0.11634720861911774,0.7075098752975464,-0.10888980329036713,51.26953125,-54.3212890625,37.841796875
8.215285062789917,-1270131630,0,-0.1380237340927124,0.9122554063796997,-0.06611242145299911,24.84130859375,-25.57373046875,-33.69140625
8.230977058410645,-1270131630,1,0.11952103674411774,0.7812403440475464,-0.11865542829036713,51.81884765625,-63.65966796875,38.26904296875
8.241974115371704,-1270131611,1,0.12977494299411774,0.8532618284225464,-0.13696597516536713,50.72021484375,-76.11083984375,37.04833984375
8.246171236038208,-1270131611,0,-0.1199573203921318,0.8980952501296997,-0.050975702702999115,12.63427734375,-49.25537109375,-34.36279296875
8.246178150177002,-1270131592,0,-0.1390002965927124,0.9093257188796997,-0.050487421452999115,4.45556640625,-69.4580078125,-28.4423828125
8.261153936386108,-1270131592,1,0.13685502111911774,0.9116114377975464,-0.14160464704036713,51.6357421875,-96.25244140625,41.50390625
8.261225938796997,-1270131573,1,0.15199173986911774,0.9267481565475464,-0.14941714704036713,47.119140625,-104.06494140625,57.6171875
8.27611517906189,-1270131573,0,-0.1319202184677124,0.9486323595046997,-0.06415929645299911,-0.1220703125,-79.04052734375,-24.47509765625
8.276216983795166,-1270131554,0,-0.1331409215927124,0.9508296251296997,-0.07270421832799911,-3.47900390625,-76.96533203125,-23.37646484375
8.296154022216797,-1270131554,1,0.14906205236911774,0.9252833127975464,-0.14697574079036713,45.83740234375,-116.39404296875,75.62255859375
8.319396018981934,-1270131535,1,0.14710892736911774,0.9540919065475464,-0.15747378766536713,53.64990234375,-132.38525390625,83.3740234375
8.320856094360352,-1270131516,1,0.15638627111911774,1.0385645627975464,-0.17700503766536713,60.546875,-156.73828125,83.740234375
8.342188119888306,-1270131518,0,-0.1065295860171318,0.9183589220046997,-0.07123937457799911,-26.79443359375,-77.2705078125,-26.123046875
8.342195987701416,-1270131499,0,-0.1336292028427124,0.9186030626296997,-0.06708898395299911,-34.7900390625,-85.38818359375,-26.30615234375
8.350093126296997,-1270131497,1,0.17591752111911774,1.1891993284225464,-0.20776675641536713,65.49072265625,-191.0400390625,80.26123046875
8.365786075592041,-1270131480,0,-0.1331409215927124,0.9417964220046997,-0.07880773395299911,-29.296875,-94.05517578125,-20.08056640625
8.39320707321167,-1270131478,1,0.21180619299411774,1.3112696409225464,-0.23315738141536713,62.01171875,-218.994140625,84.89990234375
8.398797035217285,-1270131461,0,-0.1285022497177124,0.9662104845046997,-0.07123937457799911,-21.66748046875,-98.32763671875,-19.6533203125
8.398803949356079,-1270131442,0,-0.1321643590927124,0.9635249376296997,-0.09028234332799911,-22.39990234375,-99.7314453125,-23.25439453125
8.410979986190796,-1270131442,1,0.25819292664527893,1.4545801877975464,-0.23828433454036713,68.4814453125,-229.18701171875,107.5439453125
8.41104006767273,-1270131423,1,0.27625933289527893,1.4958399534225464,-0.25122377276420593,79.58984375,-230.224609375,113.22021484375
8.425910949707031,-1270131423,0,-0.1182483360171318,0.9200679063796997,-0.07685460895299911,-31.8603515625,-99.12109375,-24.5361328125
8.425995111465454,-1270131404,0,-0.1397327184677124,0.9911128282546997,-0.09125890582799911,-38.63525390625,-97.10693359375,-20.56884765625
8.445656061172485,-1270131404,1,0.27137652039527893,1.4418848752975464,-0.24023745954036713,80.6884765625,-227.4169921875,104.6142578125
8.454362154006958,-1270131385,0,-0.1368030309677124,1.0902339220046997,-0.09394445270299911,-36.80419921875,-98.44970703125,-14.83154296875
8.471070289611816,-1270131385,1,0.26063433289527893,1.4460352659225464,-0.24609683454036713,72.44873046875,-217.1630859375,96.6796875
8.47455906867981,-1270131366,1,0.25135698914527893,1.4655665159225464,-0.24096988141536713,59.99755859375,-217.6513671875,86.36474609375
8.492927074432373,-1270131366,0,-0.1414417028427124,1.1053706407546997,-0.06830968707799911,-28.564453125,-103.21044921875,-8.9111328125
8.492935180664062,-1270131347,0,-0.1250842809677124,1.0379878282546997,-0.10444249957799911,-29.35791015625,-107.666015625,-2.38037109375
8.500969886779785,-1270131347,1,0.25331011414527893,1.4528712034225464,-0.23999331891536713,56.57958984375,-220.15380859375,81.6650390625
8.518182039260864,-1270131328,0,-0.1082385703921318,0.9427729845046997,-0.10322179645299911,-47.79052734375,-101.4404296875,1.708984375
8.546128034591675,-1270131309,0,-0.1221545860171318,0.9583979845046997,-0.09321203082799911,-58.9599609375,-85.26611328125,3.7841796875
8.546136140823364,-1270131290,0,-0.1399768590927124,1.0121089220046997,-0.07392492145299911,-55.17578125,-79.16259765625,12.26806640625
8.560534000396729,-1270131328,1,0.25965777039527893,1.4692286252975464,-0.23291324079036713,60.05859375,-224.9755859375,81.11572265625
8.560544967651367,-1270131309,1,0.26209917664527893,1.4362696409225464,-0.23730777204036713,55.5419921875,-226.9287109375,80.4443359375
8.56055498123169,-1270131290,1,0.26673784852027893,1.3530176877975464,-0.22485660016536713,41.07666015625,-218.26171875,76.416015625
8.56065821647644,-1270131271,1,0.25331011414527893,1.2890528440475464,-0.20263980329036713,28.076171875,-200.86669921875,82.09228515625
8.574572086334229,-1270131254,0,-0.1487659215927124,1.0143061876296997,-0.07929601520299911,-26.30615234375,-116.27197265625,23.62060546875
8.594298124313354,-1270131252,1,0.24330033361911774,1.3029688596725464,-0.19897769391536713,21.8505859375,-181.57958984375,93.68896484375
8.606194257736206,-1270131235,0,-0.0996936485171318,0.8590327501296997,-0.08613195270299911,-33.26416015625,-129.2724609375,29.541015625
8.621086120605469,-1270131233,1,0.24598588049411774,1.3403223752975464,-0.21362613141536713,24.59716796875,-174.62158203125,97.47314453125
8.621198177337646,-1270131214,1,0.23890580236911774,1.3002833127975464,-0.19800113141536713,24.5361328125,-173.15673828125,99.18212890625
8.643160104751587,-1270131216,0,-0.1153186485171318,0.9356929063796997,-0.09833898395299911,-47.119140625,-110.83984375,31.18896484375
8.643167972564697,-1270131197,0,-0.1653674840927124,1.0909663438796997,-0.10566320270299911,-51.7578125,-105.1025390625,38.75732421875
8.663289070129395,-1270131178,0,-0.1878284215927124,1.2201167345046997,-0.08564367145299911,-30.45654296875,-125.67138671875,51.513671875
8.679518938064575,-1270131178,1,0.24598588049411774,1.3442286252975464,-0.20386050641536713,3.0517578125,-136.3525390625,126.220703125
8.679550886154175,-1270131159,1,0.25428667664527893,1.4133204221725464,-0.21972964704036713,-16.05224609375,-120.7275390625,128.173828125
8.697956085205078,-1270131159,0,-0.1133655235171318,0.9657222032546997,-0.08515539020299911,-13.36669921875,-141.78466796875,45.22705078125
8.697963953018188,-1270131140,0,-0.0933459922671318,0.8724604845046997,-0.1312979757785797,-28.3203125,-120.849609375,22.88818359375
8.709357023239136,-1270131140,1,0.25819292664527893,1.4247950315475464,-0.21777652204036713,-29.72412109375,-112.73193359375,129.82177734375
8.725863218307495,-1270131121,0,-0.1758655309677124,1.0116206407546997,-0.09394445270299911,-44.921875,-122.55859375,24.71923828125
8.725941896438599,-1270131102,0,-0.2239612340927124,1.1515132188796997,-0.059032343327999115,-22.0947265625,-170.71533203125,61.09619140625
8.747967958450317,-1270131121,1,0.28602495789527893,1.5451563596725464,-0.23486636579036713,-49.25537109375,-89.4775390625,134.09423828125
8.747976303100586,-1270131102,1,0.31263628602027893,1.7526758909225464,-0.26636049151420593,-64.3310546875,-56.09130859375,152.9541015625
8.755856037139893,-1270131083,0,-0.1243518516421318,1.0699702501296997,-0.09662999957799911,15.68603515625,-200.0732421875,82.21435546875
8.770863056182861,-1270131083,1,0.35853472352027893,2.022695302963257,-0.32641908526420593,-88.31787109375,-24.35302734375,159.912109375
8.770958185195923,-1270131064,1,0.40370073914527893,2.187001943588257,-0.38257142901420593,-120.60546875,5.9814453125,158.935546875
8.793488025665283,-1270131064,0,-0.0660022422671318,0.9659663438796997,-0.1386221945285797,3.662109375,-145.751953125,53.22265625
8.79417610168457,-1270131045,0,-0.1436389684677124,1.0780268907546997,-0.11469640582799911,-18.310546875,-102.05078125,33.5693359375
8.801128149032593,-1270131045,1,0.44447222352027893,2.344472646713257,-0.45093080401420593,-185.11962890625,60.60791015625,143.49365234375
8.81587815284729,-1270131026,0,-0.2500842809677124,1.2362300157546997,-0.06928624957799911,-8.23974609375,-124.3896484375,48.9501953125
8.841499090194702,-1270131026,1,0.43885698914527893,2.489736318588257,-0.46289369463920593,-239.44091796875,125.1220703125,129.69970703125
8.84151005744934,-1270131007,1,0.41566362977027893,2.650136709213257,-0.47705385088920593,-251.708984375,163.6962890625,129.7607421875
8.845858097076416,-1270130990,0,-0.1258167028427124,1.1036616563796997,-0.1256827414035797,45.0439453125,-232.91015625,87.0361328125
8.863778114318848,-1270130988,1,0.43421831727027893,2.874013662338257,-0.5229523181915283,-248.1689453125,170.83740234375,123.4130859375
8.87610411643982,-1270130971,0,-0.1199573203921318,1.0992671251296997,-0.12372960895299911,36.7431640625,-203.06396484375,52.6123046875
8.876152038574219,-1270130952,0,-0.1993030309677124,1.1859370470046997,-0.11811437457799911,32.1044921875,-195.80078125,40.6494140625
8.895647048950195,-1270130969,1,0.5035542249679565,3.332753896713257,-0.6442902088165283,-272.216796875,164.24560546875,107.97119140625
8.895658016204834,-1270130950,1,0.5548237562179565,3.648916006088257,-0.7150909900665283,-320.3125,145.5078125,84.41162109375
