sync_time,timestamp_ms,device_id,ax,ay,az,gx,gy,gz
0.011715173721313477,-146999909,0,-0.12236001342535019,0.18844735622406006,1.0775257349014282,-0.1220703125,5.43212890625,-15.0146484375
0.03650498390197754,-146999914,1,-0.4954226016998291,0.5202792882919312,0.7673988342285156,14.95361328125,-12.39013671875,17.08984375
0.03651309013366699,-146999895,1,-0.5508425235748291,0.5110019445419312,0.7534828186035156,17.15087890625,-13.18359375,16.41845703125
0.04175996780395508,-146999890,0,-0.1611783802509308,0.18356454372406006,1.0948597192764282,0.54931640625,1.52587890625,-14.404296875
0.06528520584106445,-146999876,1,-0.5137331485748291,0.5298007726669312,0.7766761779785156,19.4091796875,-21.728515625,19.775390625
0.07094025611877441,-146999871,0,-0.1892545521259308,0.17501962184906006,1.0684925317764282,1.77001953125,-3.5400390625,-15.07568359375
0.07094597816467285,-146999852,0,-0.1728971302509308,0.17892587184906006,1.0694690942764282,3.47900390625,-6.89697265625,-15.31982421875
0.0829610824584961,-146999857,1,-0.5259401798248291,0.5427402257919312,0.7544593811035156,18.00537109375,-23.4375,20.751953125
0.08304905891418457,-146999838,1,-0.5027468204498291,0.5295566320419312,0.7539710998535156,17.08984375,-25.81787109375,22.4609375
0.09812092781066895,-146999833,0,-0.1545865833759308,0.17917001247406006,1.0538440942764282,3.23486328125,-12.39013671875,-15.56396484375
0.11950421333312988,-146999819,1,-0.4954226016998291,0.5000156164169312,0.7747230529785156,16.2353515625,-26.3671875,22.27783203125
0.12833213806152344,-146999814,0,-0.1421354115009308,0.16793954372406006,1.0296741724014282,4.638671875,-16.9677734375,-14.892578125
0.1284470558166504,-146999795,0,-0.09208657592535019,0.19064462184906006,1.0221058130264282,7.32421875,-19.71435546875,-20.93505859375
0.1429271697998047,-146999800,1,-0.4619753360748291,0.47779884934425354,0.7261390686035156,17.333984375,-31.06689453125,19.04296875
0.14302802085876465,-146999781,1,-0.4102175235748291,0.5117343664169312,0.7312660217285156,20.01953125,-33.38623046875,16.357421875
0.16689515113830566,-146999776,0,-0.04496743530035019,0.20749032497406006,1.0247913599014282,10.07080078125,-19.10400390625,-26.06201171875
0.17264509201049805,-146999762,1,-0.4387819766998291,0.48341408371925354,0.7486000061035156,24.4140625,-32.89794921875,13.12255859375
0.18827223777770996,-146999757,0,-0.04838540405035019,0.21212899684906006,1.0438343286514282,10.68115234375,-19.22607421875,-31.6162109375
0.18842124938964844,-146999738,0,-0.02861001342535019,0.22750985622406006,1.0340687036514282,10.3759765625,-23.37646484375,-35.400390625
0.21720218658447266,-146999726,1,-0.4417116641998291,0.5246738195419312,0.7312660217285156,33.63037109375,-47.54638671875,13.00048828125
0.22166204452514648,-146999719,0,-0.08451821655035019,0.21554696559906006,1.0279651880264282,13.61083984375,-25.45166015625,-48.9501953125
0.22166919708251953,-146999700,0,-0.04618813842535019,0.22189462184906006,1.0174671411514282,14.6484375,-28.1982421875,-60.60791015625
0.23304104804992676,-146999707,1,-0.4314577579498291,0.5102695226669312,0.7251625061035156,40.1611328125,-49.62158203125,-3.7841796875
0.23311424255371094,-146999688,1,-0.4395143985748291,0.5129550695419312,0.6917152404785156,45.166015625,-54.50439453125,-11.474609375
0.2479851245880127,-146999681,0,-0.04032876342535019,0.26999032497406006,1.0321155786514282,12.39013671875,-28.01513671875,-67.32177734375
0.26749110221862793,-146999669,1,-0.3928835391998291,0.5778964757919312,0.6904945373535156,52.734375,-61.6455078125,-14.83154296875
0.2781412601470947,-146999645,0,-0.03837563842535019,0.23239266872406006,1.0589710474014282,20.1416015625,-17.822265625,-72.32666015625
0.29321813583374023,-146999650,1,-0.3489382266998291,0.6159824132919312,0.7298011779785156,50.96435546875,-58.349609375,-15.56396484375
0.29333019256591797,-146999631,1,-0.3574831485748291,0.5964511632919312,0.7669105529785156,50.537109375,-49.49951171875,-11.16943359375
0.3159310817718506,-146999626,0,-0.06108071655035019,0.20041024684906006,1.0511585474014282,21.728515625,-17.4560546875,-62.56103515625
0.32478809356689453,-146999612,1,-0.4734499454498291,0.5305331945419312,0.7774085998535156,47.119140625,-48.2177734375,-12.20703125
0.3381202220916748,-146999607,0,-0.08305337280035019,0.21261727809906006,1.0379749536514282,22.27783203125,-24.2919921875,-65.73486328125
0.3382389545440674,-146999588,0,-0.04814126342535019,0.19870126247406006,1.0365101099014282,19.10400390625,-28.13720703125,-74.21875
0.3648490905761719,-146999593,1,-0.4263308048248291,0.5134433507919312,0.7666664123535156,45.22705078125,-59.50927734375,-15.80810546875
0.36485815048217773,-146999574,1,-0.4207155704498291,0.49269142746925354,0.7027015686035156,47.18017578125,-56.94580078125,-27.03857421875
0.37156105041503906,-146999569,0,-0.04862954467535019,0.16452157497406006,1.0435901880264282,20.32470703125,-26.79443359375,-82.09228515625
0.3715682029724121,-146999550,0,-0.02909829467535019,0.11154306679964066,1.0235706567764282,26.85546875,-25.93994140625,-83.984375
0.38144612312316895,-146999555,1,-0.3762819766998291,0.47169533371925354,0.7222328186035156,55.5419921875,-56.15234375,-28.13720703125
0.3815479278564453,-146999536,1,-0.3943483829498291,0.43141213059425354,0.6751136779785156,65.0634765625,-53.52783203125,-28.076171875
0.39816904067993164,-146999531,0,-0.05644204467535019,0.14010751247406006,1.0084339380264282,36.865234375,-23.37646484375,-87.58544921875
0.42115306854248047,-146999517,1,-0.3633425235748291,0.5039218664169312,0.6846351623535156,74.64599609375,-56.70166015625,-28.74755859375
0.42661190032958984,-146999512,0,-0.02665688842535019,0.18576180934906006,0.9810901880264282,45.654296875,-22.3388671875,-90.88134765625
0.4266700744628906,-146999493,0,0.06367514282464981,0.14425790309906006,0.9952503442764282,48.15673828125,-12.63427734375,-89.9658203125
0.4413571357727051,-146999498,1,-0.2969362735748291,0.46534767746925354,0.6856117248535156,74.70703125,-44.921875,-36.31591796875
0.4672691822052002,-146999474,0,0.01045248657464981,0.11837900429964066,0.9942737817764282,59.38720703125,6.8359375,-97.412109375
0.47140026092529297,-146999462,1,-0.6336061954498291,0.33180275559425354,0.5642738342285156,73.91357421875,-26.91650390625,-51.6357421875
0.4865710735321045,-146999455,0,-1.1150357723236084,0.7411817312240601,1.0499378442764282,68.54248046875,27.83203125,-108.3984375
0.48664021492004395,-146999436,0,-0.4338834583759308,0.9472364187240601,0.8570667505264282,62.6220703125,6.9580078125,-84.716796875
0.5147969722747803,-146999443,1,-1.013244867324829,1.7575839757919312,0.337711364030838,98.81591796875,-6.34765625,-25.20751953125
0.5148050785064697,-146999424,1,-0.5960085391998291,0.7253574132919312,0.136539489030838,84.89990234375,-27.03857421875,-5.31005859375
0.5192611217498779,-146999417,0,-0.4131315052509308,0.5607618093490601,1.0238147974014282,65.12451171875,52.30712890625,-85.205078125
0.5318222045898438,-146999405,1,-0.8289186954498291,0.39161720871925354,0.406070739030838,93.6279296875,-56.5185546875,-3.5400390625
0.5318770408630371,-146999386,1,-0.6069948673248291,0.45875588059425354,0.5017738342285156,113.09814453125,-86.669921875,-40.83251953125
0.5463862419128418,-146999381,0,-0.3755338490009308,0.19088876247406006,0.9146839380264282,76.2939453125,27.64892578125,-97.0458984375
0.5673341751098633,-146999367,1,-0.5313112735748291,0.38014259934425354,0.5047035217285156,125.06103515625,-111.328125,-47.18017578125
0.5797202587127686,-146999362,0,-0.3716275990009308,0.16793954372406006,0.9832874536514282,81.9091796875,18.00537109375,-125.18310546875
0.5797302722930908,-146999343,0,-0.7981412410736084,0.44308602809906006,0.9735218286514282,79.9560546875,40.771484375,-173.7060546875
0.5915231704711914,-146999348,1,-0.6992800235748291,0.28736916184425354,0.5271644592285156,122.6806640625,-76.5380859375,-59.14306640625
0.5916481018066406,-146999329,1,-0.6755983829498291,1.2194980382919312,1.6553382873535156,80.2001953125,-154.47998046875,60.1806640625
0.6191082000732422,-146999324,0,-0.6838834285736084,0.6393750905990601,1.0562855005264282,48.03466796875,-13.48876953125,-215.576171875
0.6232969760894775,-146999310,1,-0.4548952579498291,1.3095859289169312,1.3836097717285156,-81.1767578125,-188.232421875,188.65966796875
0.638768196105957,-146999305,0,-0.2954557240009308,0.39694344997406006,1.0474964380264282,27.2216796875,-46.08154296875,-157.77587890625
0.6387782096862793,-146999286,0,-0.2695768177509308,0.23117196559906006,1.0911976099014282,-8.85009765625,-66.58935546875,-70.00732421875
0.6650259494781494,-146999291,1,-0.4097292423248291,1.0400546789169312,1.1243324279785156,-135.986328125,-109.92431640625,108.0322265625
0.6650340557098389,-146999272,1,-0.5303347110748291,0.6994785070419312,0.7852210998535156,-150.634765625,-31.25,-27.83203125
0.671454906463623,-146999267,0,-0.2686002552509308,0.10641611367464066,0.9339710474014282,7.50732421875,-61.95068359375,-63.78173828125
0.67146897315979,-146999248,0,-0.1765592396259308,0.09542978554964066,0.8858753442764282,19.8974609375,-52.55126953125,-92.041015625
0.6876001358032227,-146999253,1,-0.4024050235748291,0.38014259934425354,0.5081214904785156,-131.04248046875,-59.326171875,-14.0380859375
0.6876170635223389,-146999234,1,-0.1677858680486679,0.30616798996925354,0.376041442155838,-108.7646484375,-70.6787109375,43.76220703125
0.696519136428833,-146999229,0,-0.2280729115009308,0.24484384059906006,0.9224964380264282,26.4892578125,-33.935546875,-119.44580078125
0.7264890670776367,-146999210,0,-0.1333463490009308,0.37936532497406006,0.8634144067764282,22.52197265625,-32.16552734375,-127.197265625
0.7279238700866699,-146999191,0,-0.2532193958759308,0.48922860622406006,0.7911487817764282,13.61083984375,-18.4326171875,-123.84033203125
0.7429869174957275,-146999198,1,-0.10308860242366791,0.39527931809425354,0.344547301530838,-47.36328125,6.103515625,-34.11865234375
0.7430741786956787,-146999179,1,-0.1560671180486679,0.7675937414169312,0.5227699279785156,5.31005859375,-5.9814453125,-83.43505859375
0.7683062553405762,-146999172,0,-0.2805631458759308,0.6764844655990601,0.7913929224014282,5.2490234375,-11.41357421875,-130.55419921875
0.7729270458221436,-146999160,1,0.025329366326332092,1.0964511632919312,0.6192054748535156,-6.40869140625,-22.0947265625,-105.65185546875
0.7865800857543945,-146999153,0,-0.4214322865009308,0.7802442312240601,0.8216663599014282,-6.591796875,-15.0146484375,-124.51171875
0.8165960311889648,-146999141,1,-0.3084108829498291,1.0227206945419312,0.5860023498535156,-44.25048828125,-32.04345703125,-123.22998046875
0.8166041374206543,-146999122,1,-0.3118288516998291,0.6662753820419312,0.6311683654785156,-89.17236328125,-124.6337890625,-36.31591796875
0.821115255355835,-146999117,0,-0.4868619740009308,0.7587598562240601,0.7154651880264282,-17.7001953125,7.14111328125,-67.19970703125
0.8211221694946289,-146999098,0,-0.4104459583759308,0.5314649343490601,0.6329456567764282,-31.25,8.11767578125,-17.4560546875
0.8331151008605957,-146999103,1,-0.05035422742366791,0.6950839757919312,0.7637367248535156,-94.1162109375,-65.73486328125,-60.05859375
0.8331880569458008,-146999084,1,-0.0037233680486679077,0.43580666184425354,0.8652992248535156,-83.31298828125,-55.11474609375,-55.11474609375
0.848362922668457,-146999079,0,-0.5164029598236084,0.43576180934906006,0.6954456567764282,-3.47900390625,38.87939453125,-5.859375
0.8688771724700928,-146999065,1,0.08612038195133209,0.41847267746925354,0.9190101623535156,-40.8935546875,-65.91796875,-42.29736328125
0.8783211708068848,-146999060,0,-0.6008756160736084,0.38864266872406006,0.5848499536514282,29.9072265625,46.7529296875,0.67138671875
0.8784260749816895,-146999041,0,-0.5364224910736084,0.5016797780990601,0.6236683130264282,79.28466796875,69.03076171875,14.22119140625
0.8916771411895752,-146999046,1,-0.1831667274236679,0.7256015539169312,1.0239906311035156,24.84130859375,12.87841796875,-106.689453125
0.8918130397796631,-146999027,1,-0.2991335391998291,0.6140292882919312,1.0728187561035156,35.46142578125,-3.173828125,-125.6103515625
0.9156589508056641,-146999022,0,-0.4739225208759308,0.7424024343490601,0.7161976099014282,68.603515625,38.57421875,29.1748046875
0.9230608940124512,-146999008,1,-0.3052370548248291,0.6291660070419312,1.1096839904785156,24.5361328125,7.9345703125,-103.82080078125
0.9381811618804932,-146999003,0,-0.2537076771259308,0.6769727468490601,0.8267933130264282,25.634765625,25.81787109375,96.74072265625
0.9382901191711426,-146998984,0,-0.3132779896259308,0.45749032497406006,0.7530628442764282,13.12255859375,17.7001953125,124.8779296875
0.964277982711792,-146998989,1,-0.10113547742366791,0.6792148351669312,1.0625648498535156,5.615234375,13.73291015625,-69.64111328125
0.964285135269165,-146998970,1,-0.3377077579498291,0.6716464757919312,0.6777992248535156,36.56005859375,9.94873046875,-70.61767578125
0.9694950580596924,-146998965,0,-0.1931608021259308,0.5138868093490601,0.7933460474014282,28.86962890625,12.0849609375,120.78857421875
0.9830069541931152,-146998934,1,-0.7395632266998291,0.5859531164169312,0.5808753967285156,174.072265625,-92.46826171875,-160.0341796875
0.996624231338501,-146998946,0,-0.1372525990009308,0.6213086843490601,0.8660999536514282,35.94970703125,11.23046875,113.95263671875
0.9967002868652344,-146998927,0,-0.07255532592535019,0.6403516530990601,0.9776722192764282,24.90234375,4.0283203125,113.525390625
1.0203981399536133,-146998915,1,0.1337278038263321,0.5110019445419312,1.0488929748535156,159.60693359375,-133.97216796875,-140.380859375
1.0281181335449219,-146998908,0,-0.05058266967535019,0.5524610280990601,0.9344593286514282,35.5224609375,-2.685546875,97.96142578125
1.0281920433044434,-146998889,0,-0.08134438842535019,0.17843759059906006,0.8678089380264282,76.35498046875,-9.09423828125,70.6787109375
1.0431151390075684,-146998896,1,-0.08551047742366791,0.23170509934425354,0.9199867248535156,137.3291015625,-57.9833984375,-77.08740234375
1.043196201324463,-146998877,1,-0.1846315711736679,0.38209572434425354,0.7686195373535156,121.88720703125,-56.2744140625,7.75146484375
1.0718581676483154,-146998858,1,-0.05963157117366791,0.47950783371925354,0.7815589904785156,104.4921875,-77.5146484375,98.0224609375
1.0881831645965576,-146998853,0,0.01289389282464981,1.30294930934906,0.6934925317764282,305.17578125,178.955078125,-14.09912109375
1.088205099105835,-146998834,0,-0.3584440052509308,1.11325204372406,0.7286487817764282,42.54150390625,7.87353515625,14.95361328125
1.1066880226135254,-146998839,1,-0.3748171329498291,0.5324863195419312,0.8191566467285156,89.111328125,-34.66796875,127.5634765625
1.1066951751708984,-146998820,1,-0.3128054141998291,0.5649570226669312,0.7634925842285156,16.357421875,-67.3828125,154.96826171875
1.1243619918823242,-146998815,0,-0.007369779050350189,0.6835645437240601,1.1356312036514282,-12.0849609375,67.9931640625,34.3017578125
1.1330881118774414,-146998801,1,-0.3025515079498291,0.7512363195419312,0.8167152404785156,-33.99658203125,-55.6640625,137.0849609375
1.1481430530548096,-146998796,0,-0.4307096302509308,0.5260938405990601,1.3057972192764282,-35.888671875,-1.0986328125,27.16064453125
1.148224115371704,-146998777,0,-0.1570279896259308,0.5624707937240601,0.8595081567764282,-21.6064453125,-119.0185546875,-15.9912109375
1.1696290969848633,-146998782,1,-0.3201296329498291,0.7019199132919312,0.8428382873535156,-39.97802734375,-35.70556640625,27.89306640625
1.1696372032165527,-146998763,1,-0.2415163367986679,0.49488869309425354,0.7273597717285156,-49.98779296875,-37.4755859375,-49.8046875
1.1781821250915527,-146998758,0,-0.2139127552509308,0.8993848562240601,0.6612659692764282,-14.22119140625,-96.923828125,0.9765625
1.1782560348510742,-146998739,0,-0.08793618530035019,0.7245801687240601,0.6558948755264282,-45.41015625,-127.99072265625,35.888671875
1.1915321350097656,-146998744,1,-0.1716921180486679,0.34156838059425354,0.6345863342285156,-67.138671875,-31.73828125,-71.96044921875
1.1915922164916992,-146998725,1,-0.2505495548248291,0.29005470871925354,0.6389808654785156,-37.90283203125,-46.32568359375,-85.26611328125
1.2168781757354736,-146998720,0,-0.04032876342535019,0.6315625905990601,0.6239124536514282,-70.068359375,-131.65283203125,72.1435546875
1.2216870784759521,-146998706,1,-0.1973268836736679,0.34718361496925354,0.7273597717285156,-11.53564453125,-63.53759765625,-99.853515625
1.239326000213623,-146998701,0,-0.07572915405035019,0.6003125905990601,0.5975452661514282,-85.3271484375,-96.923828125,83.8623046875
1.2393369674682617,-146998682,0,-0.08573891967535019,0.6427930593490601,0.4942737817764282,-89.41650390625,-67.3828125,82.58056640625
1.265712022781372,-146998670,1,-0.1865846961736679,0.25001564621925354,0.8445472717285156,-9.6435546875,-18.6767578125,-116.0888671875
1.271437168121338,-146998663,0,0.2013704478740692,0.6696485280990601,0.5445667505264282,-105.89599609375,-27.64892578125,74.3408203125
1.281351089477539,-146998651,1,-0.2920534610748291,0.06202736496925354,0.7437171936035156,-10.55908203125,6.9580078125,-107.177734375
1.2965731620788574,-146998644,0,-0.1404264271259308,0.43063485622406006,0.4015003442764282,-131.591796875,-46.20361328125,54.13818359375
1.2966389656066895,-146998625,0,-0.04862954467535019,0.6571973562240601,0.7921253442764282,-134.1552734375,-44.189453125,45.654296875
1.3191890716552734,-146998632,1,-0.2986452579498291,0.10035744309425354,0.6987953186035156,-2.01416015625,-0.8544921875,-60.72998046875
1.3192119598388672,-146998613,1,-0.2879030704498291,0.23683205246925354,0.8272132873535156,-11.5966796875,-11.77978515625,-23.37646484375
1.3280220031738281,-146998589,0,-0.05961587280035019,0.5795606374740601,0.7069202661514282,-118.71337890625,12.39013671875,28.86962890625
1.3418118953704834,-146998594,1,-0.2554323673248291,0.30201759934425354,0.8045082092285156,-23.01025390625,2.13623046875,-10.19287109375
1.3418869972229004,-146998575,1,-0.2268678992986679,0.14576759934425354,0.8076820373535156,-14.2822265625,14.83154296875,-8.72802734375
1.367035150527954,-146998570,0,-0.04472329467535019,0.6330274343490601,0.6361194849014282,-69.9462890625,31.8603515625,57.67822265625
1.3728702068328857,-146998556,1,-0.3189089298248291,-0.05784568190574646,0.8106117248535156,12.0849609375,6.89697265625,2.44140625
1.3867111206054688,-146998551,0,0.006546236574649811,0.5280469655990601,0.6458851099014282,-52.001953125,37.2314453125,74.0966796875
1.3867640495300293,-146998532,0,-0.01689126342535019,0.5949414968490601,0.7220569849014282,-48.4619140625,46.20361328125,59.26513671875
1.4144251346588135,-146998537,1,-0.3526003360748291,0.20460548996925354,0.8230628967285156,44.921875,-12.02392578125,32.53173828125
1.414431095123291,-146998518,1,-0.2395632117986679,0.45851173996925354,0.9041175842285156,40.34423828125,-1.03759765625,49.98779296875
1.4205429553985596,-146998513,0,-0.08647134155035019,0.8263868093490601,0.7332874536514282,-55.96923828125,33.63037109375,43.5791015625
1.4314920902252197,-146998499,1,-0.2390749305486679,0.5371249914169312,0.8591957092285156,33.8134765625,19.775390625,28.1982421875
1.4489731788635254,-146998494,0,-0.09086587280035019,0.8830274343490601,0.4657093286514282,-69.4580078125,63.96484375,49.13330078125
1.448984146118164,-146998475,0,0.07368490844964981,0.9191602468490601,0.3717151880264282,-56.09130859375,85.44921875,74.462890625
1.4691712856292725,-146998480,1,-0.2771608829498291,0.37843361496925354,0.6980628967285156,27.4658203125,26.79443359375,3.84521484375
1.4698450565338135,-146998461,1,-0.3862917423248291,0.34816017746925354,0.5728187561035156,32.3486328125,7.99560546875,0.54931640625
1.4779791831970215,-146998456,0,-0.05058266967535019,0.9335645437240601,0.3416858911514282,-51.57470703125,126.46484375,77.7587890625
1.4930241107940674,-146998442,1,-0.4509890079498291,0.35914650559425354,0.6340980529785156,28.86962890625,-14.2822265625,9.94873046875
1.5152380466461182,-146998437,0,-0.2776334583759308,1.01803719997406,0.5484730005264282,-55.7861328125,137.63427734375,80.13916015625
1.515244960784912,-146998418,0,-0.4084928333759308,1.01168954372406,0.8634144067764282,-129.7607421875,126.89208984375,131.89697265625
1.522878885269165,-146998406,1,-0.4414675235748291,0.5976718664169312,0.7590980529785156,-9.70458984375,-23.62060546875,-0.18310546875
1.5382320880889893,-146998399,0,-0.5044400691986084,0.5041211843490601,1.0555530786514282,-169.43359375,140.56396484375,200.5615234375
1.5383851528167725,-146998380,0,-0.7407681941986084,0.45602548122406006,1.3531605005264282,-144.71435546875,156.06689453125,225.5859375
1.5650858879089355,-146998387,1,-0.3865358829498291,0.7104648351669312,0.9270668029785156,-27.28271484375,-28.6865234375,-20.44677734375
1.565094232559204,-146998368,1,-0.2368776649236679,0.8923496007919312,1.2268714904785156,-45.95947265625,-25.08544921875,-35.2783203125
1.5699131488800049,-146998361,0,-0.9934537410736084,0.49801766872406006,1.7262073755264282,-84.65576171875,159.60693359375,281.31103515625
1.5832293033599854,-146998349,1,-0.2302858680486679,1.1042636632919312,1.2710609436035156,-26.611328125,-10.986328125,-61.767578125
1.5963311195373535,-146998325,0,-0.8813931941986084,0.21969735622406006,1.4417835474014282,-63.3544921875,21.78955078125,348.6328125
1.617717981338501,-146998330,1,-0.09796164929866791,0.7736972570419312,1.0532875061035156,11.77978515625,-0.18310546875,-118.46923828125
1.617725133895874,-146998311,1,-0.1836550086736679,0.44337502121925354,0.8689613342285156,52.79541015625,4.2724609375,-151.42822265625
1.6264822483062744,-146998306,0,-0.8086392879486084,0.10470712929964066,1.2235218286514282,-5.2490234375,-72.509765625,351.74560546875
1.641373872756958,-146998292,1,-0.2715456485748291,0.30567970871925354,0.7424964904785156,135.07080078125,-15.7470703125,-120.9716796875
1.6655101776123047,-146998287,0,-0.5105435848236084,-0.12185537070035934,0.9803577661514282,14.2822265625,-138.12255859375,354.6142578125
1.6655170917510986,-146998268,0,-0.5359342098236084,-0.24099600315093994,0.7657581567764282,19.04296875,-167.8466796875,334.16748046875
1.671558141708374,-146998273,1,-0.2754518985748291,0.26271095871925354,0.6550941467285156,191.71142578125,-54.26025390625,-91.73583984375
1.671565055847168,-146998254,1,-0.4024050235748291,0.19972267746925354,0.5391273498535156,203.06396484375,-62.3779296875,-110.65673828125
1.6866321563720703,-146998249,0,-0.2932584583759308,-0.9780565500259399,0.6224476099014282,37.17041015625,-179.443359375,243.65234375
1.6866950988769531,-146998230,0,0.3253938853740692,-1.62551748752594,0.2987171411514282,75.927734375,-119.44580078125,135.8642578125
1.7144889831542969,-146998235,1,-0.7266237735748291,-0.06004294753074646,0.266910582780838,186.82861328125,-57.7392578125,-146.66748046875
1.7144958972930908,-146998216,1,-1.163391351699829,-0.7084804773330688,-0.155452698469162,182.31201171875,-85.63232421875,-148.3154296875
1.7205381393432617,-146998211,0,0.1862337291240692,-1.83938467502594,0.07606089115142822,151.42822265625,-85.75439453125,44.00634765625
1.731100082397461,-146998197,1,-1.512512445449829,-1.2182461023330688,-0.316829651594162,187.1337890625,-148.5595703125,-53.8330078125
1.7464098930358887,-146998192,0,-0.2534635365009308,-1.94509756565094,0.9183460474014282,177.6123046875,10.3759765625,-139.2822265625
1.7465190887451172,-146998173,0,-0.4561002552509308,-1.61721670627594,0.6729847192764282,50.23193359375,29.96826171875,-329.04052734375
1.7694981098175049,-146998178,1,-1.596985101699829,-1.2333828210830688,0.10284807533025742,106.5673828125,-191.71142578125,96.74072265625
1.7764201164245605,-146998154,0,-0.5483853816986084,-1.03909170627594,0.7564808130264282,63.4765625,15.07568359375,-477.6611328125
1.7917900085449219,-146998142,1,-1.017883539199829,-0.8669277429580688,0.8010902404785156,-196.533203125,-2.99072265625,273.681640625
1.8152530193328857,-146998135,0,-0.9477994441986084,-0.41409170627593994,0.7982288599014282,13.24462890625,31.8603515625,-581.54296875
1.8152601718902588,-146998116,0,-1.5874478816986084,1.07174813747406,0.9791370630264282,-0.1220703125,19.47021484375,-631.04248046875
1.8213670253753662,-146998123,1,-0.4920046329498291,-0.44700583815574646,0.7954750061035156,-313.53759765625,129.150390625,308.10546875
1.82145094871521,-146998104,1,-0.1340944617986679,0.11256447434425354,0.9724769592285156,-330.01708984375,110.90087890625,317.93212890625
1.8368241786956787,-146998097,0,-1.8994596004486084,2.8754591941833496,1.0013538599014282,35.400390625,31.6162109375,-611.6943359375
1.864288091659546,-146998085,1,0.6835324764251709,1.4165195226669312,1.7488441467285156,-246.64306640625,19.6533203125,320.4345703125
1.8642961978912354,-146998066,1,0.9562375545501709,2.7148594856262207,2.0481605529785156,-103.8818359375,-7.2021484375,235.7177734375
1.8691720962524414,-146998061,0,-1.3633267879486084,4.43698263168335,1.5916858911514282,94.66552734375,55.7861328125,-84.716796875
1.88139009475708,-146998047,1,1.070251226425171,2.7219395637512207,1.8743324279785156,-20.6298828125,-1.0986328125,63.5986328125
1.8966152667999268,-146998042,0,-1.5583951473236084,3.7780470848083496,1.1234241724014282,-102.60009765625,-82.3974609375,142.08984375
1.8967061042785645,-146998023,0,-1.1621549129486084,2.2436232566833496,0.8490101099014282,-158.69140625,-66.7724609375,339.4775390625
1.9197959899902344,-146998028,1,0.8707883358001709,2.3259434700012207,1.4993324279785156,9.033203125,9.58251953125,-61.6455078125
1.9198060035705566,-146998009,1,0.4345090389251709,1.4267734289169312,1.0220375061035156,41.748046875,6.04248046875,-178.5888671875
1.9269490242004395,-146998004,0,-0.9104459285736084,0.5575879812240601,0.8519397974014282,-94.1162109375,-18.310546875,478.271484375
1.941411018371582,-146997990,1,-0.08233664929866791,0.44068947434425354,0.7422523498535156,76.72119140625,-0.732421875,-239.013671875
1.9651939868927002,-146997985,0,-0.6682584285736084,-0.7900682687759399,0.8617054224014282,0.6103515625,-28.6865234375,469.78759765625
1.965203046798706,-146997966,0,-0.1492154896259308,-1.87527334690094,0.6036487817764282,122.00927734375,-18.9208984375,388.0615234375
1.9717860221862793,-146997971,1,-0.6567995548248291,-0.22605857253074646,0.459781676530838,123.47412109375,-26.123046875,-207.70263671875
1.9717941284179688,-146997952,1,-0.9856569766998291,-0.5593105554580688,0.378971129655838,138.73291015625,-67.44384765625,-152.89306640625
1.986793041229248,-146997947,0,0.6317903995513916,-2.4692673683166504,0.6549183130264282,286.7431640625,59.5703125,214.2333984375
1.9868910312652588,-146997928,0,0.9147493839263916,-1.84744131565094,1.2266956567764282,269.6533203125,78.67431640625,-42.05322265625
2.0013229846954346,-146997933,1,-1.289367914199829,-0.7377773523330688,0.490787535905838,102.72216796875,-91.6748046875,-87.82958984375
2.001411199569702,-146997914,1,-1.354065179824829,-0.8620449304580688,0.5940589904785156,33.02001953125,-76.11083984375,4.0283203125
2.022928237915039,-146997909,0,0.4994661509990692,-1.25881826877594,1.4859730005264282,66.40625,-15.31982421875,-271.78955078125
2.045693874359131,-146997890,0,0.1520540416240692,-0.7326952219009399,1.1126819849014282,-57.0068359375,-74.951171875,-387.26806640625
2.0465750694274902,-146997871,0,-0.5112760066986084,0.41427743434906006,0.8429065942764282,-60.72998046875,-99.7314453125,-445.556640625
2.0683541297912598,-146997878,1,-0.7883913516998291,-0.38548240065574646,0.8999671936035156,-62.744140625,36.92626953125,185.48583984375
2.06836199760437,-146997859,1,-0.2783815860748291,0.25904884934425354,1.0264320373535156,-92.46826171875,55.2978515625,226.318359375
2.076580047607422,-146997852,0,-1.1042935848236084,2.0312209129333496,0.8680530786514282,22.5830078125,-19.6533203125,-356.87255859375
2.0911872386932373,-146997840,1,0.08978249132633209,0.8532871007919312,1.1665687561035156,-72.509765625,24.47509765625,227.5390625
2.116931200027466,-146997833,0,-1.2319791316986084,2.7238478660583496,0.7013050317764282,42.78564453125,-9.27734375,-179.62646484375
2.1214261054992676,-146997821,1,0.4794309139251709,1.5771640539169312,1.4097328186035156,-33.50830078125,-8.23974609375,188.8427734375
2.121523141860962,-146997802,1,0.5560910701751709,1.6279453039169312,1.3291664123535156,-6.28662109375,2.74658203125,76.72119140625
2.1402831077575684,-146997797,0,-0.8542935848236084,2.1376662254333496,0.14759409427642822,-76.7822265625,-47.42431640625,88.623046875
2.1402931213378906,-146997778,0,-0.4995572865009308,0.8420118093490601,0.2513538599014282,-132.32421875,-25.81787109375,168.0908203125
2.1639621257781982,-146997783,1,0.3165891170501709,1.1064609289169312,1.0462074279785156,12.451171875,14.58740234375,-35.5224609375
2.1639699935913086,-146997764,1,-0.0010378211736679077,0.5581210851669312,0.8291664123535156,31.25,11.29150390625,-88.43994140625
2.1691930294036865,-146997759,0,-0.04960610717535019,-0.34158194065093994,0.5206409692764282,-91.61376953125,-42.6025390625,187.98828125
2.185760021209717,-146997745,1,-0.4375612735748291,0.10353127121925354,0.8591957092285156,86.669921875,-12.02392578125,-124.32861328125
2.1966331005096436,-146997740,0,0.5009310245513916,-0.8291307687759399,0.6515003442764282,50.048828125,-33.5693359375,171.44775390625
2.1967642307281494,-146997721,0,0.7575228214263916,-0.6809374094009399,0.9022327661514282,155.21240234375,11.474609375,104.1259765625
2.2187352180480957,-146997726,1,-0.5852663516998291,-0.20188865065574646,0.8674964904785156,151.123046875,-63.65966796875,-67.32177734375
2.218743085861206,-146997707,1,-0.5596315860748291,-0.16258201003074646,0.8433265686035156,121.27685546875,-76.7822265625,10.31494140625
2.2294530868530273,-146997702,0,0.6691439151763916,-0.14553701877593994,1.1827503442764282,75.86669921875,-7.01904296875,-23.01025390625
2.241448163986206,-146997688,1,-0.5818483829498291,-0.09641990065574646,0.8352699279785156,82.51953125,-48.4619140625,21.66748046875
2.2660410404205322,-146997683,0,0.4987337291240692,0.012910254299640656,1.1876331567764282,-41.07666015625,-71.22802734375,-128.47900390625
2.266047954559326,-146997664,0,0.11128256469964981,0.48214852809906006,1.0557972192764282,-81.787109375,-110.7177734375,-176.57470703125
2.2742130756378174,-146997669,1,-0.5662233829498291,-0.09861716628074646,0.7957191467285156,44.73876953125,-12.14599609375,33.75244140625
2.2742221355438232,-146997650,1,-0.4509890079498291,0.05079689621925354,0.8477210998535156,22.27783203125,-7.26318359375,69.4580078125
2.2867813110351562,-146997645,0,0.03413412719964981,0.8749707937240601,0.8919788599014282,-1.953125,-77.392578125,-179.5654296875
2.316538095474243,-146997614,1,-0.07354758679866791,0.5432285070419312,0.8435707092285156,0.18310546875,0.732421875,113.95263671875
2.3236641883850098,-146997626,0,-0.2456510365009308,1.33151376247406,0.9710804224014282,82.58056640625,-31.982421875,-180.2978515625
2.32367205619812,-146997607,0,-0.3525846302509308,1.59860360622406,0.9571644067764282,106.201171875,-48.7060546875,-144.775390625
2.3320071697235107,-146997595,1,0.06561256945133209,0.7937167882919312,0.7876625061035156,-16.05224609375,6.2255859375,93.32275390625
2.3465020656585693,-146997588,0,-0.4038541615009308,1.71457040309906,0.8924671411514282,81.97021484375,-65.36865234375,-97.35107421875
2.346593141555786,-146997569,0,-0.3005826771259308,1.36544930934906,0.6500355005264282,37.841796875,-93.93310546875,-26.7333984375
2.370084047317505,-146997576,1,0.06634499132633209,0.8676913976669312,0.7608070373535156,-17.4560546875,6.40869140625,42.236328125
2.3700931072235107,-146997557,1,-0.014709696173667908,0.7368320226669312,0.7222328186035156,-18.5546875,1.3427734375,-28.80859375
2.390388011932373,-146997538,1,-0.10479758679866791,0.41749611496925354,0.7686195373535156,-19.775390625,11.29150390625,-61.279296875
2.4160351753234863,-146997533,0,0.1447298228740692,0.39010751247406006,0.3199573755264282,-5.43212890625,-48.76708984375,-30.2734375
2.4160430431365967,-146997514,0,0.2523958384990692,-0.16165030002593994,0.19617807865142822,-52.8564453125,-3.5400390625,-81.23779296875
2.4214861392974854,-146997519,1,-0.3145143985748291,0.29347267746925354,0.7525062561035156,4.0283203125,22.3388671875,-44.921875
2.421581983566284,-146997500,1,-0.3955690860748291,0.36158791184425354,0.8074378967285156,39.9169921875,7.4462890625,-23.193359375
2.4361910820007324,-146997495,0,0.1847688853740692,0.32345712184906006,0.4012562036514282,-4.69970703125,1.40380859375,-39.4287109375
2.4514029026031494,-146997481,1,-0.3821413516998291,0.45802345871925354,0.8604164123535156,72.44873046875,-28.13720703125,-18.4326171875
2.4699881076812744,-146997476,0,0.09150717407464981,0.43112313747406006,0.6239124536514282,50.6591796875,-16.54052734375,-23.92578125
2.469999074935913,-146997457,0,0.01118490844964981,0.44430673122406006,0.7738147974014282,49.4384765625,-36.56005859375,-22.64404296875
2.481544256210327,-146997462,1,-0.3179323673248291,0.5207675695419312,0.8753089904785156,67.0166015625,-52.30712890625,-23.01025390625
2.4816410541534424,-146997443,1,-0.2615358829498291,0.5832675695419312,0.9055824279785156,41.56494140625,-50.23193359375,-44.43359375
2.4965481758117676,-146997438,0,-0.002731107175350189,0.5595411062240601,0.9752308130264282,-21.6064453125,-41.93115234375,-36.07177734375
2.4966280460357666,-146997419,0,0.03291342407464981,0.5475782155990601,1.0330921411514282,-56.82373046875,-38.330078125,-60.85205078125
2.5190341472625732,-146997424,1,-0.2771608829498291,0.5627597570419312,0.8645668029785156,15.68603515625,-59.99755859375,-38.51318359375
2.5190420150756836,-146997405,1,-0.2288210242986679,0.49195900559425354,0.7139320373535156,12.26806640625,-43.27392578125,-65.3076171875
2.5262420177459717,-146997400,0,0.07246420532464981,0.5080274343490601,0.9681507349014282,-35.46142578125,-33.5693359375,-85.44921875
2.54150128364563,-146997386,1,-0.1406862586736679,0.46730080246925354,0.8096351623535156,9.58251953125,-33.99658203125,-49.98779296875
2.566190004348755,-146997381,0,0.0011751428246498108,0.39865243434906006,0.9264026880264282,-25.146484375,-33.3251953125,-98.876953125
2.5661981105804443,-146997362,0,-0.07524087280035019,0.49655282497406006,0.9503284692764282,-18.24951171875,-42.724609375,-99.365234375
2.575683116912842,-146997350,1,-0.2078249305486679,0.47120705246925354,0.7910804748535156,9.58251953125,1.0986328125,32.5927734375
2.58669114112854,-146997343,0,-0.1497037708759308,0.6344922780990601,0.9676624536514282,-24.0478515625,-46.142578125,-88.8671875
2.616791009902954,-146997331,1,-0.1675417274236679,0.48756447434425354,0.6885414123535156,12.14599609375,-14.83154296875,68.54248046875
2.6234869956970215,-146997324,0,-0.1504361927509308,0.6623243093490601,0.9935413599014282,-33.0810546875,-40.83251953125,-90.39306640625
2.6235861778259277,-146997305,0,-0.1265104115009308,0.7096875905990601,1.0135608911514282,-29.1748046875,-43.51806640625,-85.8154296875
2.6317920684814453,-146997312,1,-0.2141725867986679,0.6157382726669312,0.8643226623535156,5.92041015625,-44.61669921875,88.80615234375
2.6318631172180176,-146997293,1,-0.1995241492986679,0.6418613195419312,0.8948402404785156,-18.61572265625,-46.44775390625,70.98388671875
2.646315097808838,-146997269,0,-0.1582486927509308,0.6852735280990601,1.0587269067764282,-6.16455078125,-43.76220703125,-81.6650390625
2.6710000038146973,-146997274,1,-0.11334250867366791,0.5927890539169312,0.9846839904785156,-34.24072265625,-17.08984375,66.40625
2.671010971069336,-146997255,1,-0.1484987586736679,0.5639804601669312,0.8328285217285156,-42.724609375,34.0576171875,60.1806640625
2.6766750812530518,-146997250,0,-0.1548307240009308,0.6908887624740601,1.0931507349014282,-1.3427734375,-45.59326171875,-69.3359375
2.6915290355682373,-146997236,1,-0.1511843055486679,0.5822910070419312,0.7361488342285156,-31.06689453125,34.0576171875,57.0068359375
2.720107078552246,-146997231,0,-0.1499479115009308,0.6930860280990601,1.0875355005264282,-2.197265625,-50.23193359375,-49.62158203125
2.720114231109619,-146997212,0,-0.1919400990009308,0.6703809499740601,1.0677601099014282,-3.173828125,-59.4482421875,-35.64453125
2.7239880561828613,-146997217,1,-0.1497194617986679,0.6301425695419312,0.6843910217285156,-17.39501953125,16.90673828125,49.01123046875
2.7239952087402344,-146997198,1,-0.1306764930486679,0.6853183507919312,0.7319984436035156,-17.7001953125,6.9580078125,39.55078125
2.7366929054260254,-146997193,0,-0.1492154896259308,0.6247266530990601,0.9857288599014282,1.46484375,-75.1953125,-35.64453125
2.7514500617980957,-146997179,1,-0.1453249305486679,0.7063144445419312,0.7163734436035156,-27.77099609375,11.29150390625,29.9072265625
2.7710211277008057,-146997174,0,-0.1352994740009308,0.6383985280990601,0.9217640161514282,11.474609375,-76.84326171875,-40.771484375
2.771028995513916,-146997155,0,-0.1318815052509308,0.6877149343490601,0.8663440942764282,22.76611328125,-58.9599609375,-37.65869140625
2.7814881801605225,-146997160,1,-0.1538698524236679,0.7116855382919312,0.7149085998535156,-29.296875,11.53564453125,27.4658203125
2.7816240787506104,-146997141,1,-0.1851198524236679,0.7033847570419312,0.6909828186035156,-22.705078125,2.25830078125,26.4892578125
2.796492099761963,-146997136,0,-0.1533658802509308,0.7072461843490601,0.8756214380264282,25.390625,-39.4287109375,-30.09033203125
2.818781852722168,-146997122,1,-0.2014772742986679,0.7089999914169312,0.7617835998535156,-9.033203125,-11.53564453125,18.798828125
2.826529026031494,-146997117,0,-0.1582486927509308,0.7089551687240601,0.8729358911514282,26.79443359375,-34.5458984375,-29.4189453125
2.8266491889953613,-146997098,0,-0.1587369740009308,0.6759961843490601,0.8524280786514282,28.13720703125,-37.4755859375,-32.16552734375
2.8416740894317627,-146997086,1,-0.2070925086736679,0.6499179601669312,0.8245277404785156,6.40869140625,-7.26318359375,3.96728515625
2.866286039352417,-146997079,0,-0.1423795521259308,0.6691602468490601,0.8394886255264282,33.87451171875,-37.78076171875,-41.07666015625
2.866292953491211,-146997060,0,-0.1372525990009308,0.6960157155990601,0.8524280786514282,40.83251953125,-39.00146484375,-49.6826171875
2.8715131282806396,-146997067,1,-0.2190553992986679,0.6125644445419312,0.8303871154785156,15.56396484375,-4.39453125,14.0380859375
2.871580123901367,-146997048,1,-0.2288210242986679,0.6369785070419312,0.8750648498535156,21.6064453125,-4.82177734375,19.83642578125
2.8868820667266846,-146997041,0,-0.11357095092535019,0.6901563405990601,0.8348499536514282,45.654296875,-30.6396484375,-46.08154296875
2.914140224456787,-146997029,1,-0.2500612735748291,0.6098788976669312,0.9046058654785156,31.494140625,-3.0517578125,10.80322265625
2.9188358783721924,-146997005,0,-0.12431313842535019,0.6840528249740601,0.8397327661514282,39.6728515625,-10.07080078125,-26.42822265625
2.9317049980163574,-146997010,1,-0.3140261173248291,0.5415195226669312,0.8682289123535156,36.62109375,-2.86865234375,12.5732421875
2.9318361282348633,-146996991,1,-0.2490846961736679,0.5202792882919312,0.9077796936035156,35.2783203125,-7.99560546875,24.84130859375
2.9462661743164062,-146996986,0,-0.11332681030035019,0.6479200124740601,0.8148304224014282,31.6162109375,-12.39013671875,-23.681640625
2.969884157180786,-146996972,1,-0.2739870548248291,0.48878517746925354,0.8682289123535156,33.447265625,-5.615234375,27.83203125
2.9766151905059814,-146996967,0,-0.1267545521259308,0.6379102468490601,0.7882190942764282,31.8603515625,-15.625,-24.47509765625
2.976677179336548,-146996948,0,-0.09403970092535019,0.6366895437240601,0.7398792505264282,34.24072265625,-11.23046875,-28.13720703125
2.991608142852783,-146996953,1,-0.2932741641998291,0.44874611496925354,0.8176918029785156,32.1044921875,-18.4326171875,43.15185546875
2.99173903465271,-146996934,1,-0.2881472110748291,0.44239845871925354,0.8794593811035156,27.099609375,-25.390625,48.583984375
3.0196962356567383,-146996929,0,-0.09867837280035019,0.6596387624740601,0.7340198755264282,32.53173828125,0.48828125,-22.27783203125
3.0197041034698486,-146996910,0,-0.08647134155035019,0.6657422780990601,0.6707874536514282,24.23095703125,12.5732421875,-12.51220703125
3.024322986602783,-146996915,1,-0.2710573673248291,0.47071877121925354,0.8223304748535156,25.32958984375,-27.89306640625,45.166015625
3.024329900741577,-146996896,1,-0.2290651649236679,0.42457619309425354,0.8203773498535156,27.83203125,-26.06201171875,40.52734375
3.036600112915039,-146996891,0,-0.11430337280035019,0.6523145437240601,0.6453968286514282,20.44677734375,16.2353515625,-6.89697265625
3.0513241291046143,-146996877,1,-0.2141725867986679,0.40943947434425354,0.7720375061035156,32.71484375,-15.9912109375,39.0625
3.071364164352417,-146996872,0,-0.09135415405035019,0.6550000905990601,0.6019397974014282,16.90673828125,16.4794921875,-8.1787109375
3.0713729858398438,-146996853,0,-0.09330727905035019,0.6733106374740601,0.6014515161514282,11.3525390625,16.17431640625,-11.23046875
3.0815200805664062,-146996858,1,-0.2156374305486679,0.43898048996925354,0.7310218811035156,35.82763671875,-10.3759765625,39.61181640625
3.0963492393493652,-146996834,0,-0.07865884155035019,0.6828321218490601,0.6014515161514282,3.0517578125,23.37646484375,-11.53564453125
3.1172232627868652,-146996822,1,-0.2520143985748291,0.46583595871925354,0.7051429748535156,23.193359375,-22.216796875,44.921875
3.1265571117401123,-146996815,0,-0.06083657592535019,0.6664746999740601,0.5958362817764282,-3.60107421875,23.37646484375,-9.46044921875
3.1266889572143555,-146996796,0,-0.05253579467535019,0.6630567312240601,0.5870472192764282,-8.544921875,16.54052734375,-12.451171875
3.141577959060669,-146996803,1,-0.2522585391998291,0.5349277257919312,0.7073402404785156,12.51220703125,-19.4091796875,36.0107421875
3.1417043209075928,-146996784,1,-0.2044069617986679,0.5149081945419312,0.6817054748535156,4.57763671875,-14.7705078125,30.76171875
3.1680750846862793,-146996777,0,-0.08061196655035019,0.6427930593490601,0.5970569849014282,-6.34765625,7.38525390625,-17.4560546875
3.1731481552124023,-146996765,1,-0.1924440711736679,0.42237892746925354,0.6592445373535156,2.8076171875,-8.6669921875,37.90283203125
3.1731560230255127,-146996746,1,-0.2356569617986679,0.45704689621925354,0.6821937561035156,8.97216796875,-19.47021484375,49.9267578125
3.1872482299804688,-146996741,0,-0.03324868530035019,0.6491407155990601,0.6253772974014282,-20.56884765625,-12.87841796875,-1.8310546875
3.2167558670043945,-146996727,1,-0.2544558048248291,0.48902931809425354,0.7376136779785156,12.39013671875,-35.09521484375,51.7578125
3.2228341102600098,-146996722,0,-0.03715493530035019,0.6325391530990601,0.6925159692764282,-23.74267578125,-12.51220703125,3.11279296875
3.222844123840332,-146996703,0,-0.03544595092535019,0.6300977468490601,0.7415882349014282,-24.2919921875,-12.20703125,1.708984375
3.2318620681762695,-146996708,1,-0.2339479774236679,0.47462502121925354,0.7854652404785156,11.962890625,-39.0625,51.8798828125
3.2319369316101074,-146996689,1,-0.2395632117986679,0.46192970871925354,0.8242835998535156,10.68115234375,-31.43310546875,53.955078125
3.2466211318969727,-146996684,0,-0.006149075925350189,0.6476758718490601,0.7476917505264282,-16.7236328125,-7.8125,-5.615234375
3.2714550495147705,-146996670,1,-0.2459108680486679,0.40406838059425354,0.7881507873535156,14.5263671875,-26.42822265625,70.3125
3.2781660556793213,-146996665,0,-0.03984048217535019,0.6347364187240601,0.7425647974014282,-2.38037109375,-13.73291015625,-19.53125
3.2782959938049316,-146996646,0,-0.05717446655035019,0.6445020437240601,0.7340198755264282,5.0048828125,-28.564453125,-25.69580078125
3.2917070388793945,-146996651,1,-0.1592409461736679,0.47657814621925354,0.7952308654785156,24.10888671875,-30.1513671875,84.3505859375
3.291727066040039,-146996632,1,-0.10284446179866791,0.5781406164169312,0.7930335998535156,26.7333984375,-27.28271484375,80.56640625
3.317800283432007,-146996627,0,-0.04814126342535019,0.7060254812240601,0.7191272974014282,4.8828125,-39.4287109375,-26.2451171875
3.317807197570801,-146996608,0,-0.06913735717535019,0.7526563405990601,0.6922718286514282,-1.64794921875,-45.59326171875,-24.658203125
3.321869134902954,-146996613,1,-0.06890891492366791,0.6220859289169312,0.7984046936035156,27.77099609375,-22.64404296875,66.71142578125
3.321876049041748,-146996594,1,-0.03399680554866791,0.6369785070419312,0.7693519592285156,26.0009765625,-16.17431640625,49.1943359375
3.3364322185516357,-146996589,0,-0.03373696655035019,0.7770704030990601,0.6639515161514282,-4.39453125,-46.9970703125,-26.611328125
3.3715319633483887,-146996570,0,-0.05741860717535019,0.7817090749740601,0.6785999536514282,0.67138671875,-42.17529296875,-38.2080078125
3.3715388774871826,-146996551,0,-0.10331704467535019,0.8564161062240601,0.6668812036514282,-0.79345703125,-41.8701171875,-51.33056640625
3.3813161849975586,-146996558,1,0.04901100695133209,0.5727695226669312,0.7422523498535156,23.0712890625,-18.85986328125,53.5888671875
3.381434202194214,-146996539,1,0.07220436632633209,0.6604160070419312,0.7420082092285156,21.728515625,-23.98681640625,56.15234375
3.3964478969573975,-146996532,0,-0.07768227905035019,0.9386914968490601,0.6344105005264282,-8.11767578125,-37.41455078125,-50.23193359375
3.4170820713043213,-146996520,1,0.09710671007633209,0.6548007726669312,0.7251625061035156,16.54052734375,-23.3154296875,39.1845703125
3.4266741275787354,-146996513,0,-0.1387174427509308,0.9911817312240601,0.6314808130264282,-21.240234375,-31.1279296875,-43.02978515625
3.441589117050171,-146996501,1,0.09442116320133209,0.6301425695419312,0.6958656311035156,12.75634765625,-19.4091796875,22.52197265625
3.4416890144348145,-146996482,1,0.07171608507633209,0.5656894445419312,0.6658363342285156,10.68115234375,-17.15087890625,11.3525390625
3.4658281803131104,-146996477,0,-0.12406899780035019,0.8852246999740601,0.6641956567764282,-33.69140625,-12.8173828125,-26.611328125
3.4658350944519043,-146996458,0,-0.08891274780035019,0.8141797780990601,0.7049671411514282,-14.22119140625,-3.173828125,-31.3720703125
3.471337080001831,-146996463,1,0.08026100695133209,0.5578769445419312,0.6519203186035156,14.892578125,-22.216796875,18.798828125
3.4714391231536865,-146996444,1,0.021911397576332092,0.6235507726669312,0.6497230529785156,14.83154296875,-34.1796875,27.77099609375
3.4867260456085205,-146996439,0,-0.1631315052509308,0.7892774343490601,0.7306019067764282,5.7373046875,-3.72314453125,-32.71484375
3.5016062259674072,-146996425,1,0.05145241320133209,0.6684726476669312,0.7263832092285156,14.22119140625,-45.95947265625,25.87890625
3.519587993621826,-146996420,0,-0.1711881458759308,0.7126172780990601,0.7083851099014282,10.009765625,-14.70947265625,-20.44677734375
3.5195960998535156,-146996401,0,-0.10917641967535019,0.6852735280990601,0.7220569849014282,25.390625,-12.26806640625,-20.56884765625
3.5314371585845947,-146996406,1,0.018737569451332092,0.6816562414169312,0.7236976623535156,5.06591796875,-46.142578125,10.6201171875
3.5315639972686768,-146996387,1,-0.03228782117366791,0.6267246007919312,0.7539710998535156,8.1787109375,-47.8515625,7.26318359375
3.5462710857391357,-146996382,0,-0.10600259155035019,0.6647657155990601,0.7345081567764282,56.7626953125,-10.07080078125,-37.59765625
3.5675859451293945,-146996368,1,-0.09381125867366791,0.5820468664169312,0.7798500061035156,22.88818359375,-49.9267578125,14.7705078125
3.5765061378479004,-146996363,0,-0.1355436146259308,0.7057813405990601,0.6805530786514282,80.4443359375,-9.033203125,-53.16162109375
3.5765721797943115,-146996344,0,-0.1760709583759308,0.8598340749740601,0.6346546411514282,76.59912109375,-8.9111328125,-45.654296875
3.593039035797119,-146996349,1,-0.11651633679866791,0.6616367101669312,0.7749671936035156,29.23583984375,-53.52783203125,18.4326171875
3.593163013458252,-146996330,1,-0.1333620399236679,0.7028964757919312,0.7962074279785156,36.19384765625,-52.3681640625,9.82666015625
3.616481065750122,-146996325,0,-0.1409147083759308,0.8039258718490601,0.6031605005264282,73.2421875,-3.96728515625,-26.7333984375
3.6229429244995117,-146996294,1,-0.1482546180486679,0.7409824132919312,0.7136878967285156,39.0625,-49.62158203125,11.16943359375
3.6380112171173096,-146996306,0,-0.1269986927509308,0.7760938405990601,0.5838733911514282,78.7353515625,-1.28173828125,-23.62060546875
3.6380860805511475,-146996287,0,-0.1372525990009308,0.7612012624740601,0.5816761255264282,94.3603515625,-5.4931640625,-32.2265625
3.6646370887756348,-146996275,1,-0.1655886024236679,0.7695468664169312,0.7224769592285156,41.44287109375,-50.96435546875,14.404296875
3.67126202583313,-146996268,0,-0.1897428333759308,0.9169629812240601,0.5782581567764282,88.19580078125,-9.09423828125,-32.5927734375
3.6712701320648193,-146996249,0,-0.11820962280035019,0.9316114187240601,0.5562855005264282,67.93212890625,-6.4697265625,-18.85986328125
3.682993173599243,-146996256,1,-0.1504518836736679,0.7988437414169312,0.7788734436035156,40.83251953125,-48.9501953125,12.75634765625
3.6831040382385254,-146996237,1,-0.1277468055486679,0.8669589757919312,0.8042640686035156,35.0341796875,-39.85595703125,5.92041015625
3.717879056930542,-146996218,1,-0.1294557899236679,0.8247226476669312,0.7551918029785156,32.89794921875,-32.3486328125,-2.38037109375
3.728095054626465,-146996213,0,-0.1348111927509308,0.8095411062240601,0.6329456567764282,62.43896484375,-3.84521484375,-9.94873046875
3.728182077407837,-146996194,0,-0.11747720092535019,0.8776563405990601,0.6317249536514282,55.35888671875,-14.83154296875,-24.84130859375
3.7432260513305664,-146996199,1,-0.11749289929866791,0.8696445226669312,0.7227210998535156,34.66796875,-27.4658203125,-4.638671875
3.7433242797851562,-146996180,1,-0.09161399304866791,0.8925937414169312,0.6914710998535156,32.28759765625,-21.54541015625,-6.40869140625
3.766101121902466,-146996175,0,-0.1345670521259308,0.9301465749740601,0.6197620630264282,50.6591796875,-17.76123046875,-36.1328125
3.7727181911468506,-146996161,1,-0.05450461804866791,0.8777011632919312,0.6426429748535156,28.076171875,-15.7470703125,-7.50732421875
3.7880501747131348,-146996156,0,-0.1360318958759308,0.9111036062240601,0.5492054224014282,45.47119140625,-21.78955078125,-33.87451171875
3.788175106048584,-146996137,0,-0.11552407592535019,0.8437207937240601,0.5177112817764282,57.31201171875,-15.380859375,-33.935546875
3.8144729137420654,-146996142,1,-0.030578836798667908,0.8813632726669312,0.6236000061035156,26.91650390625,-13.24462890625,-3.90625
3.8153951168060303,-146996123,1,-0.0010378211736679077,0.8845371007919312,0.6033363342285156,25.2685546875,-13.24462890625,-2.38037109375
3.819477081298828,-146996118,0,-0.1726529896259308,0.9164746999740601,0.4801136255264282,59.99755859375,-13.73291015625,-39.55078125
3.819484233856201,-146996099,0,-0.1750943958759308,0.9284375905990601,0.4552112817764282,55.5419921875,-20.32470703125,-43.5791015625
3.833095073699951,-146996104,1,0.06854225695133209,0.8996738195419312,0.5996742248535156,18.6767578125,-9.3994140625,-2.01416015625
3.8331620693206787,-146996085,1,0.04144264757633209,0.8845371007919312,0.5762367248535156,10.1318359375,-3.90625,-4.150390625
3.8481500148773193,-146996080,0,-0.1782682240009308,0.9826368093490601,0.4181019067764282,50.537109375,-25.57373046875,-48.88916015625
3.8685302734375,-146996066,1,0.05706764757633209,0.8569492101669312,0.5891761779785156,2.25830078125,-1.28173828125,-5.4931640625
3.878200054168701,-146996061,0,-0.1379850208759308,0.9987500905990601,0.3651233911514282,37.59765625,-28.9306640625,-45.22705078125
3.878286123275757,-146996042,0,-0.1423795521259308,1.01681649684906,0.3639026880264282,23.5595703125,-25.2685546875,-31.73828125
3.8933451175689697,-146996030,1,0.09368874132633209,0.6880038976669312,0.6328773498535156,6.28662109375,4.57763671875,18.12744140625
3.919663190841675,-146996023,0,-0.09037759155035019,0.9318555593490601,0.3470569849014282,20.56884765625,-18.98193359375,-16.54052734375
3.9257521629333496,-146996011,1,0.08856178820133209,0.6880038976669312,0.6333656311035156,18.4326171875,8.9111328125,36.7431640625
3.9380900859832764,-146996004,0,-0.09135415405035019,0.9535840749740601,0.3668323755264282,23.3154296875,-13.61083984375,-8.85009765625
3.93823504447937,-146995985,0,-0.05888345092535019,0.9633496999740601,0.3868519067764282,23.74267578125,-12.6953125,-11.41357421875
3.966726064682007,-146995992,1,0.09173561632633209,0.7251132726669312,0.6314125061035156,25.0244140625,12.63427734375,45.34912109375
3.966736078262329,-146995973,1,0.10101296007633209,0.7473300695419312,0.6367835998535156,24.0478515625,15.625,41.1376953125
3.9734740257263184,-146995949,0,-0.08476235717535019,1.00314462184906,0.4066272974014282,16.11328125,-8.97216796875,-14.404296875
3.983170986175537,-146995954,1,0.06610085070133209,0.7238925695419312,0.6306800842285156,17.9443359375,14.5263671875,33.02001953125
3.983236074447632,-146995935,1,0.09417702257633209,0.6709140539169312,0.6482582092285156,13.00048828125,12.451171875,28.6865234375
3.997965097427368,-146995930,0,-0.09794595092535019,0.9623731374740601,0.4088245630264282,13.73291015625,-5.06591796875,-10.986328125
4.020205974578857,-146995916,1,0.09027077257633209,0.6779941320419312,0.6506996154785156,9.94873046875,11.8408203125,34.11865234375
4.02800726890564,-146995911,0,-0.09477212280035019,0.9443067312240601,0.4207874536514282,21.1181640625,-3.173828125,-10.92529296875
4.028093099594116,-146995892,0,-0.12187173217535019,0.9650586843490601,0.4127308130264282,23.92578125,-4.5166015625,-13.24462890625
4.045033931732178,-146995897,1,0.09124733507633209,0.6631015539169312,0.6597328186035156,8.97216796875,8.36181640625,45.8984375
4.045046091079712,-146995878,1,0.09637428820133209,0.6872714757919312,0.6865882873535156,10.92529296875,7.26318359375,51.94091796875
4.066710948944092,-146995873,0,-0.09965493530035019,1.00485360622406,0.4271351099014282,11.29150390625,-8.72802734375,-13.12255859375
4.073017120361328,-146995859,1,0.08660866320133209,0.7265781164169312,0.6687660217285156,8.97216796875,6.2255859375,43.02978515625
4.089550018310547,-146995854,0,-0.07914712280035019,1.02243173122406,0.3880726099014282,-0.8544921875,-8.544921875,-6.16455078125
4.089559078216553,-146995835,0,-0.10527016967535019,0.9425977468490601,0.3941761255264282,1.953125,-4.69970703125,-5.0048828125
4.114656925201416,-146995840,1,0.11639381945133209,0.7280429601669312,0.6804847717285156,5.859375,7.87353515625,25.87890625
4.115598201751709,-146995821,1,0.11883522570133209,0.6721347570419312,0.6560707092285156,5.615234375,7.50732421875,20.751953125
4.119936943054199,-146995816,0,-0.11137368530035019,0.9350293874740601,0.3861194849014282,11.71875,-2.685546875,-10.3759765625
4.1338701248168945,-146995802,1,0.1266477257013321,0.6626132726669312,0.6465492248535156,10.6201171875,7.4462890625,28.1982421875
4.148252248764038,-146995797,0,-0.09672524780035019,0.9738477468490601,0.3702503442764282,19.47021484375,-1.40380859375,-14.22119140625
4.1483728885650635,-146995778,0,-0.08402993530035019,0.9994825124740601,0.3441272974014282,15.380859375,3.7841796875,-15.0146484375
4.1682350635528564,-146995766,1,0.09100319445133209,0.7060703039169312,0.6553382873535156,10.1318359375,5.06591796875,30.82275390625
4.177112102508545,-146995759,0,-0.09355141967535019,0.9987500905990601,0.3587757349014282,5.92041015625,7.6904296875,-10.8642578125
4.177281141281128,-146995740,0,-0.10429360717535019,0.9565137624740601,0.3470569849014282,0.18310546875,9.033203125,-9.765625
4.193088054656982,-146995747,1,0.09735085070133209,0.7146152257919312,0.6543617248535156,12.20703125,7.01904296875,22.94921875
4.193176984786987,-146995728,1,0.08660866320133209,0.7302402257919312,0.6426429748535156,10.25390625,10.68115234375,16.11328125
4.218326091766357,-146995721,0,-0.10551431030035019,0.9604200124740601,0.3575550317764282,0.9765625,5.92041015625,-12.20703125
4.227679014205933,-146995709,1,0.07147194445133209,0.7190097570419312,0.6314125061035156,9.27734375,13.85498046875,13.0615234375
4.238389015197754,-146995685,0,-0.09403970092535019,0.9301465749740601,0.3165394067764282,10.3759765625,10.80322265625,-16.2353515625
4.264350891113281,-146995690,1,0.06561256945133209,0.7231601476669312,0.6201820373535156,5.2490234375,13.97705078125,13.427734375
4.26435923576355,-146995671,1,0.07488991320133209,0.7238925695419312,0.6035804748535156,4.45556640625,13.36669921875,11.962890625
4.270543098449707,-146995666,0,-0.08402993530035019,0.9389356374740601,0.2967640161514282,6.16455078125,13.24462890625,-16.845703125
4.282817125320435,-146995652,1,0.10028053820133209,0.7453769445419312,0.6099281311035156,1.0986328125,12.8173828125,6.77490234375
4.298083066940308,-146995647,0,-0.07865884155035019,0.9272168874740601,0.2843128442764282,0.1220703125,12.39013671875,-14.46533203125
4.2981650829315186,-146995628,0,-0.08329751342535019,0.9186719655990601,0.2550159692764282,-7.2021484375,13.671875,-12.02392578125
4.320253849029541,-146995633,1,0.05218483507633209,0.7277988195419312,0.6021156311035156,-1.03759765625,15.19775390625,-0.1220703125
4.320261240005493,-146995614,1,0.04705788195133209,0.6582187414169312,0.5996742248535156,-0.1220703125,9.58251953125,6.103515625
4.328034162521362,-146995609,0,-0.09184243530035019,0.9089063405990601,0.23279917240142822,-11.474609375,16.2353515625,-11.53564453125
4.328119993209839,-146995590,0,-0.08695962280035019,0.8954786062240601,0.23572885990142822,-8.6669921875,27.34375,-14.58740234375
4.342973232269287,-146995595,1,0.06488014757633209,0.6491855382919312,0.6006507873535156,1.8310546875,5.37109375,18.37158203125
4.343039035797119,-146995576,1,0.08514381945133209,0.6914218664169312,0.5798988342285156,-0.79345703125,-1.5869140625,24.35302734375
4.367499113082886,-146995571,0,-0.10331704467535019,0.9264844655990601,0.23841440677642822,-3.84521484375,40.22216796875,-20.6298828125
4.371308088302612,-146995557,1,0.08880592882633209,0.7268222570419312,0.5977210998535156,-4.82177734375,-9.1552734375,19.22607421875
4.391122102737427,-146995552,0,-0.09599282592535019,0.9748243093490601,0.23865854740142822,-13.0615234375,45.654296875,-24.2919921875
4.3911333084106445,-146995533,0,-0.09062173217535019,0.9787305593490601,0.19813120365142822,-31.3720703125,50.6591796875,-26.611328125
4.415888071060181,-146995538,1,0.1647336632013321,0.7807773351669312,0.6443519592285156,-13.3056640625,-9.70458984375,-4.33349609375
4.4205522537231445,-146995514,0,-0.09330727905035019,0.9760450124740601,0.18177378177642822,-48.4619140625,57.373046875,-27.83203125
4.437229156494141,-146995502,1,0.1757199913263321,0.5908359289169312,0.6077308654785156,-24.47509765625,5.37109375,-42.724609375
4.448047161102295,-146995495,0,-0.1255338490009308,0.9650586843490601,0.18226206302642822,-61.1572265625,67.56591796875,-29.541015625
4.4481542110443115,-146995476,0,-0.1406705677509308,0.9374707937240601,0.22889292240142822,-64.0869140625,81.23779296875,-32.470703125
4.468591213226318,-146995483,1,0.1444699913263321,0.5747226476669312,0.6082191467285156,-20.3857421875,-0.54931640625,-32.3486328125
4.4698779582977295,-146995464,1,0.1513059288263321,0.5569003820419312,0.5896644592285156,-22.216796875,-15.13671875,-21.1181640625
4.4790918827056885,-146995457,0,-0.1465299427509308,0.9777539968490601,0.2850452661514282,-65.673828125,89.17236328125,-30.57861328125
4.4931230545043945,-146995445,1,0.11566139757633209,0.5874179601669312,0.6079750061035156,-29.1748046875,-37.41455078125,-16.4794921875
4.493246078491211,-146995426,1,0.1537473350763321,0.5119785070419312,0.6926918029785156,-36.19384765625,-51.69677734375,-20.1416015625
4.5181660652160645,-146995421,0,-0.1970670521259308,0.9640821218490601,0.4249378442764282,-86.24267578125,67.44384765625,-17.51708984375
4.5260841846466064,-146995407,1,0.1586301475763321,0.42799416184425354,0.7249183654785156,-43.88427734375,-48.15673828125,-31.79931640625
4.537384271621704,-146995402,0,-0.1799772083759308,0.9189161062240601,0.4525257349014282,-84.41162109375,50.29296875,-14.22119140625
4.537528991699219,-146995383,0,-0.1951139271259308,0.8356641530990601,0.4544788599014282,-67.138671875,39.1845703125,-22.03369140625
4.551447153091431,-146995388,1,0.09710671007633209,0.35157814621925354,0.7239418029785156,-44.37255859375,-40.58837890625,-30.45654296875
4.553224086761475,-146995369,1,0.09661842882633209,0.30494728684425354,0.7359046936035156,-41.6259765625,-36.43798828125,-21.8505859375
4.575566053390503,-146995364,0,-0.1934049427509308,0.8124707937240601,0.5125843286514282,-40.771484375,33.447265625,-29.23583984375
4.581321954727173,-146995350,1,0.11224342882633209,0.28639259934425354,0.7322425842285156,-33.87451171875,-39.1845703125,-17.88330078125
4.59645414352417,-146995345,0,-0.2002408802509308,0.8183301687240601,0.5494495630264282,-22.15576171875,31.005859375,-32.2265625
4.596530199050903,-146995326,0,-0.1836393177509308,0.7673047780990601,0.5348011255264282,-15.9912109375,24.35302734375,-37.9638671875
4.622920989990234,-146995331,1,0.10784889757633209,0.28028908371925354,0.7559242248535156,-28.62548828125,-55.60302734375,-19.53125
4.622930288314819,-146995312,1,0.1449582725763321,0.29664650559425354,0.8272132873535156,-27.52685546875,-66.2841796875,-21.3623046875
4.626496076583862,-146995307,0,-0.1746061146259308,0.7509473562240601,0.5238147974014282,-12.8173828125,15.13671875,-43.02978515625
4.626584053039551,-146995288,0,-0.1770475208759308,0.7331250905990601,0.4967151880264282,-9.33837890625,-0.67138671875,-51.025390625
4.641512155532837,-146995293,1,0.1874387413263321,0.32936134934425354,0.8484535217285156,-37.7197265625,-59.63134765625,-25.32958984375
4.641584157943726,-146995274,1,0.1942746788263321,0.35255470871925354,0.8279457092285156,-54.5654296875,-41.56494140625,-40.71044921875
4.670194149017334,-146995269,0,-0.1763150990009308,0.7519239187240601,0.4654651880264282,-2.13623046875,-9.6435546875,-58.53271484375
4.685909986495972,-146995250,0,-0.1580045521259308,0.7206739187240601,0.4508167505264282,7.080078125,-17.08984375,-65.49072265625
4.686697006225586,-146995231,0,-0.1699674427509308,0.7135938405990601,0.4530140161514282,12.20703125,-25.87890625,-69.27490234375
4.713863134384155,-146995238,1,0.1869504600763321,0.31398048996925354,0.8291664123535156,-73.66943359375,-79.16259765625,-72.6318359375
4.713871002197266,-146995219,1,0.2269895225763321,0.26661720871925354,0.9448890686035156,-88.92822265625,-110.9619140625,-75.13427734375
4.717497110366821,-146995212,0,-0.1623990833759308,0.7245801687240601,0.4669300317764282,18.37158203125,-36.1328125,-79.89501953125
4.731361150741577,-146995200,1,0.2831418514251709,0.23927345871925354,1.0645179748535156,-107.48291015625,-122.4365234375,-65.97900390625
4.74658989906311,-146995193,0,-0.1821744740009308,0.7477735280990601,0.4869495630264282,22.27783203125,-45.47119140625,-92.71240234375
4.769720077514648,-146995181,1,0.3119504451751709,0.29103127121925354,1.0674476623535156,-133.6669921875,-117.00439453125,-61.58447265625
4.769727945327759,-146995162,1,0.2875363826751709,0.29884377121925354,1.1011390686035156,-140.19775390625,-130.43212890625,-81.9091796875
4.7774882316589355,-146995157,0,-0.2122037708759308,0.8293164968490601,0.5333362817764282,33.14208984375,-49.49951171875,-103.3935546875
4.777682304382324,-146995138,0,-0.2861783802509308,0.8346875905990601,0.5814319849014282,43.212890625,-52.734375,-108.45947265625
4.7931928634643555,-146995143,1,0.2970578670501709,0.23658791184425354,1.1729164123535156,-147.76611328125,-144.83642578125,-100.9521484375
4.793310880661011,-146995124,1,0.3275754451751709,0.17628517746925354,1.2561683654785156,-160.21728515625,-141.17431640625,-89.7216796875
4.8163230419158936,-146995119,0,-0.3684537708759308,0.8766797780990601,0.6605335474014282,46.32568359375,-59.02099609375,-117.00439453125
4.824299097061157,-146995105,1,0.3519895076751709,0.31471291184425354,1.3040199279785156,-169.25048828125,-126.64794921875,-60.9130859375
4.837921142578125,-146995100,0,-0.4431608021259308,0.8888868093490601,0.6881214380264282,45.166015625,-65.91796875,-120.42236328125
4.83801007270813,-146995081,0,-0.5330045223236084,0.9057325124740601,0.6624866724014282,47.119140625,-83.1298828125,-120.30029296875
4.8639302253723145,-146995086,1,0.2826535701751709,0.5705722570419312,1.2744789123535156,-165.6494140625,-151.0009765625,-78.2470703125
4.864838123321533,-146995067,1,0.1539914757013321,0.5888828039169312,1.5545082092285156,-144.22607421875,-205.322265625,-150.0244140625
4.870681047439575,-146995062,0,-0.5725553035736084,0.8608106374740601,0.5763050317764282,54.26025390625,-98.44970703125,-117.98095703125
4.882035970687866,-146995048,1,0.11639381945133209,0.46681252121925354,1.8679847717285156,-153.1982421875,-178.40576171875,-171.7529296875
4.89805006980896,-146995043,0,-0.6577603816986084,0.8122266530990601,0.5833851099014282,63.3544921875,-110.90087890625,-109.9853515625
4.898128032684326,-146995024,0,-0.6663053035736084,0.8478711843490601,0.5516468286514282,75.50048828125,-115.3564453125,-91.24755859375
4.92158317565918,-146995029,1,0.04290749132633209,0.7212070226669312,1.7593421936035156,-126.46484375,-151.42822265625,-132.62939453125
4.921595096588135,-146995010,1,0.007507100701332092,0.7041171789169312,1.8992347717285156,-95.03173828125,-167.8466796875,-83.31298828125
4.927925109863281,-146995005,0,-0.7649381160736084,0.9020704030990601,0.5279651880264282,66.650390625,-115.1123046875,-63.720703125
4.9429051876068115,-146994974,1,-0.1448366492986679,1.0754550695419312,2.3587074279785156,-13.18359375,-276.85546875,-121.2158203125
4.967627048492432,-146994986,0,-0.7998502254486084,0.9032911062240601,0.5643421411514282,48.4619140625,-114.68505859375,-35.94970703125
4.967634201049805,-146994967,0,-0.7273404598236084,0.9054883718490601,0.4930530786514282,37.53662109375,-101.98974609375,-12.5732421875
4.972969055175781,-146994955,1,-0.1780397742986679,0.9448398351669312,2.6760902404785156,-15.7470703125,-253.5400390625,-146.3623046875
4.986534118652344,-146994948,0,-0.7034146785736084,0.9220899343490601,0.4744983911514282,33.8134765625,-90.8203125,8.30078125
4.98664116859436,-146994929,0,-0.7593228816986084,0.8981641530990601,0.4478870630264282,25.87890625,-86.7919921875,10.31494140625
5.015558242797852,-146994936,1,-0.2886354923248291,0.9687656164169312,2.7507972717285156,25.634765625,-219.54345703125,-132.568359375
5.0155651569366455,-146994917,1,-0.4307253360748291,0.9568027257919312,2.9592933654785156,78.0029296875,-211.24267578125,-145.44677734375
5.030877113342285,-146994898,1,-0.4539186954498291,0.7749179601669312,3.1616859436035156,92.46826171875,-199.40185546875,-191.162109375
5.048224925994873,-146994893,0,-0.6626431941986084,0.9311231374740601,0.3775745630264282,8.85009765625,-79.16259765625,26.123046875
5.048349142074585,-146994874,0,-0.6462857723236084,0.8390821218490601,0.3597522974014282,5.79833984375,-64.02587890625,29.78515625
5.068305253982544,-146994879,1,-0.4075319766998291,0.31593361496925354,3.3462562561035156,93.994140625,-133.85009765625,-248.84033203125
5.068313121795654,-146994860,1,-0.4846804141998291,-0.10838279128074646,3.1653480529785156,150.57373046875,-40.771484375,-216.73583984375
5.078540086746216,-146994855,0,-0.6536099910736084,0.8000196218490601,0.3380237817764282,11.53564453125,-53.7109375,26.4892578125
5.09175705909729,-146994841,1,-0.3853151798248291,-0.46800193190574646,2.9995765686035156,222.47314453125,-2.44140625,-156.31103515625
5.117767095565796,-146994836,0,-0.5901334285736084,0.7863477468490601,0.3075062036514282,15.68603515625,-46.08154296875,14.34326171875
5.117775201797485,-146994817,0,-0.5322721004486084,0.8085645437240601,0.2869983911514282,13.73291015625,-37.53662109375,7.87353515625
5.125925064086914,-146994822,1,-0.1707155555486679,-0.7302089929580688,2.9790687561035156,258.11767578125,-10.31494140625,-141.7236328125
5.12593412399292,-146994803,1,0.06341530382633209,-1.1733242273330688,3.0020179748535156,295.166015625,-6.89697265625,-145.99609375
5.138077259063721,-146994798,0,-0.4575650990009308,0.8354200124740601,0.2877308130264282,-1.15966796875,-17.2119140625,3.662109375
5.138207912445068,-146994779,0,-0.4216764271259308,0.7572950124740601,0.2777210474014282,-24.35302734375,2.5634765625,-8.72802734375
5.165576219558716,-146994784,1,0.3449094295501709,-1.6703945398330688,2.8926429748535156,316.71142578125,69.64111328125,-150.7568359375
5.165589094161987,-146994765,1,0.7028195858001709,-2.0663905143737793,2.4910316467285156,330.810546875,179.13818359375,-131.65283203125
5.172371864318848,-146994760,0,-0.3857877552509308,0.7421582937240601,0.2860218286514282,-27.7099609375,11.77978515625,-28.6865234375
5.180619955062866,-146994746,1,0.9799191951751709,-2.2309412956237793,2.1433753967285156,338.37890625,231.0791015625,-96.37451171875
5.197192192077637,-146994741,0,-0.2942350208759308,0.8154004812240601,0.3035999536514282,-20.5078125,24.23095703125,-49.01123046875
5.197274208068848,-146994722,0,-0.2722623646259308,0.9225782155990601,0.3690296411514282,-20.263671875,29.4189453125,-46.5087890625
5.22154426574707,-146994710,1,1.345397710800171,-2.1469569206237793,1.4414710998535156,359.19189453125,222.35107421875,-10.07080078125
5.228039264678955,-146994703,0,-0.2156217396259308,0.8412793874740601,0.4229847192764282,-34.5458984375,32.958984375,-30.76171875
5.242432117462158,-146994691,1,1.384948492050171,-2.0785975456237793,1.3750648498535156,357.97119140625,224.609375,-9.3994140625
5.26849102973938,-146994684,0,-0.1833951771259308,0.9782422780990601,0.5260120630264282,-36.07177734375,29.4189453125,-12.5732421875
5.268498182296753,-146994665,0,-0.2361295521259308,1.07956063747406,0.6576038599014282,-30.21240234375,18.06640625,13.18359375
5.272914171218872,-146994672,1,1.346618413925171,-2.1208338737487793,1.4434242248535156,384.94873046875,220.0927734375,6.53076171875
5.273025989532471,-146994653,1,1.480895757675171,-2.0297694206237793,1.3711585998535156,397.03369140625,241.455078125,51.6357421875
5.28827428817749,-146994629,0,-0.2812955677509308,1.13351571559906,0.6600452661514282,-26.06201171875,-1.8310546875,72.265625
5.316030979156494,-146994634,1,1.562682867050171,-1.8784023523330688,1.2266273498535156,390.80810546875,264.22119140625,84.716796875
5.316038131713867,-146994615,1,1.727966070175171,-1.8344570398330688,1.0611000061035156,372.9248046875,270.08056640625,105.46875
5.320368051528931,-146994610,0,-0.3269498646259308,1.08297860622406,0.5872913599014282,-22.94921875,0.30517578125,84.5947265625
5.3329081535339355,-146994596,1,1.855651617050171,-1.8972011804580688,0.9622230529785156,349.79248046875,263.73291015625,110.3515625
5.348029851913452,-146994591,0,-0.3630826771259308,0.9899610280990601,0.4937855005264282,-6.89697265625,16.845703125,78.7353515625
5.348094940185547,-146994572,0,-0.3791959583759308,0.9601758718490601,0.4227405786514282,19.71435546875,32.89794921875,70.00732421875
5.36824107170105,-146994577,1,1.933288335800171,-1.8061367273330688,0.8152503967285156,318.05419921875,249.08447265625,126.3427734375
5.368303060531616,-146994558,1,2.002624273300171,-1.6496425867080688,0.6716957092285156,286.1328125,242.00439453125,151.67236328125
5.378086090087891,-146994553,0,-0.3740690052509308,0.9421094655990601,0.3348499536514282,36.19384765625,39.55078125,73.486328125
5.39307427406311,-146994539,1,2.186218023300171,-1.3415371179580688,0.486148864030838,245.9716796875,240.3564453125,170.22705078125
5.41927695274353,-146994534,0,-0.3611295521259308,0.9369825124740601,0.2684437036514282,43.3349609375,49.31640625,87.70751953125
5.41928505897522,-146994515,0,-0.4043424427509308,0.9355176687240601,0.24085581302642822,24.71923828125,58.41064453125,103.45458984375
5.424407005310059,-146994520,1,2.267028570175171,-1.2175136804580688,0.493961364030838,243.7744140625,244.7509765625,174.13330078125
5.424414873123169,-146994501,1,2.249206304550171,-1.2306972742080688,0.5994300842285156,288.75732421875,254.69970703125,197.08251953125
5.438344240188599,-146994496,0,-0.4507291615009308,0.9526075124740601,0.16956675052642822,-14.0380859375,77.63671875,120.91064453125
5.465161085128784,-146994482,1,2.278014898300171,-1.3661953210830688,0.8181800842285156,339.4775390625,266.6015625,226.5625
5.470716238021851,-146994477,0,-0.5195767879486084,0.9084180593490601,0.15174448490142822,-49.98779296875,101.25732421875,147.52197265625
5.470724105834961,-146994458,0,-0.5456998348236084,0.8808301687240601,0.18958628177642822,-80.6884765625,114.44091796875,177.06298828125
5.482984304428101,-146994446,1,2.682067632675171,-1.5585781335830688,0.9832191467285156,372.86376953125,349.4873046875,275.69580078125
5.497127294540405,-146994439,0,-0.5496060848236084,0.8854688405990601,0.22571909427642822,-103.33251953125,121.15478515625,212.890625
5.497233152389526,-146994420,0,-0.5710904598236084,0.7924512624740601,0.3265491724014282,-122.55859375,128.35693359375,261.29150390625
5.520552158355713,-146994427,1,2.942809820175171,-1.7785488367080688,0.9400062561035156,370.66650390625,408.99658203125,293.8232421875
5.520559072494507,-146994408,1,2.898376226425171,-1.9343105554580688,0.8469886779785156,363.95263671875,430.2978515625,322.75390625
5.527928113937378,-146994401,0,-0.5439908504486084,0.7045606374740601,0.4378772974014282,-134.8876953125,119.2626953125,292.236328125
5.5429041385650635,-146994389,1,2.736266851425171,-1.9846035242080688,0.6978187561035156,365.234375,394.53125,332.51953125
5.570446014404297,-146994365,0,-0.3906705677509308,0.7411817312240601,0.6231800317764282,-131.40869140625,105.04150390625,331.97021484375
5.574973106384277,-146994370,1,2.576110601425171,-2.1684412956237793,0.6382484436035156,364.2578125,337.5244140625,340.63720703125
5.574980020523071,-146994351,1,2.317077398300171,-2.2885584831237793,0.5017738342285156,363.09814453125,233.5205078125,386.23046875
5.58820104598999,-146994346,0,-0.3376920521259308,0.7548536062240601,0.8194690942764282,-115.234375,121.9482421875,361.083984375
5.60552716255188,-146994332,1,2.097839117050171,-2.4006190299987793,0.394351989030838,362.73193359375,112.60986328125,445.3125
5.626650094985962,-146994327,0,-0.2224576771259308,0.8212598562240601,0.9827991724014282,-81.6650390625,129.69970703125,379.94384765625
5.626657009124756,-146994308,0,-0.2012174427509308,0.8600782155990601,1.1256214380264282,-55.96923828125,132.2021484375,394.4091796875
5.633162021636963,-146994313,1,1.890563726425171,-2.2712244987487793,0.300601989030838,365.6005859375,-5.7373046875,467.7734375
5.6332621574401855,-146994294,1,1.737731695175171,-2.1823573112487793,0.181217223405838,370.2392578125,-99.18212890625,454.52880859375
5.649233102798462,-146994289,0,0.4040071666240692,0.5483106374740601,0.8045765161514282,-3.2958984375,180.48095703125,405.33447265625
5.649244070053101,-146994270,0,0.2770540416240692,0.17599618434906006,0.6322132349014282,170.59326171875,401.79443359375,374.6337890625
5.671237230300903,-146994275,1,1.708678960800171,-2.2140955924987793,0.284244567155838,379.82177734375,-185.60791015625,400.32958984375
5.671245098114014,-146994256,1,1.867858648300171,-2.1254725456237793,0.446842223405838,349.67041015625,-160.15625,293.39599609375
5.678261995315552,-146994251,0,-0.4365690052509308,0.8508008718490601,1.1793323755264282,157.40966796875,501.0986328125,304.0771484375
5.692979097366333,-146994237,1,1.572936773300171,-1.8019863367080688,0.270328551530838,254.82177734375,-141.2353515625,130.92041015625
5.715031147003174,-146994232,0,-0.4172818958759308,1.26120126247406,1.4610706567764282,-33.8134765625,406.79931640625,314.14794921875
5.715038061141968,-146994213,0,-0.2021940052509308,1.19479501247406,1.3353382349014282,-203.06396484375,290.6494140625,398.8037109375
5.722800254821777,-146994218,1,1.336608648300171,-1.8910976648330688,0.237857848405838,197.021484375,-176.6357421875,8.72802734375
5.738101959228516,-146994194,0,-0.04960610717535019,1.09542977809906,1.1234241724014282,-134.27734375,290.52734375,419.86083984375
5.764613151550293,-146994182,1,1.092468023300171,-1.9462734460830688,0.488101989030838,159.85107421875,-258.30078125,-56.57958984375
5.769615173339844,-146994175,0,-0.6487271785736084,0.8190625905990601,1.2357288599014282,15.7470703125,336.60888671875,371.9482421875
5.769622087478638,-146994156,0,-0.6399381160736084,0.6786817312240601,1.4395862817764282,42.29736328125,282.470703125,348.0224609375
5.783121109008789,-146994163,1,0.8895871639251709,-1.5737148523330688,0.340885192155838,114.6240234375,-297.30224609375,-50.96435546875
5.783189058303833,-146994144,1,0.6686398983001709,-1.3769375085830688,0.343570739030838,61.70654296875,-328.55224609375,-88.623046875
5.798034191131592,-146994137,0,-0.4636686146259308,0.43234384059906006,1.7264515161514282,35.7666015625,193.2373046875,351.86767578125
5.821670055389404,-146994125,1,0.4669797420501709,-1.0048671960830688,0.476383239030838,17.4560546875,-305.5419921875,-143.310546875
5.821678161621094,-146994106,1,0.1513059288263321,-0.9255214929580688,0.6983070373535156,5.18798828125,-280.94482421875,-178.40576171875
5.827934980392456,-146994101,0,-0.6516568660736084,-0.38918936252593994,1.5924183130264282,142.15087890625,83.43505859375,291.93115234375
5.842855215072632,-146994087,1,0.022155538201332092,-0.6623378992080688,0.6013832092285156,-8.056640625,-238.8916015625,-213.2568359375
5.870198965072632,-146994082,0,-0.5784146785736084,-0.5410448312759399,1.5098987817764282,244.44580078125,60.36376953125,246.4599609375
5.870207071304321,-146994063,0,-0.3896940052509308,-0.44875967502593994,1.2882190942764282,296.32568359375,26.123046875,199.5849609375
5.873457193374634,-146994068,1,-0.06475852429866791,-0.36863669753074646,0.314029723405838,1.28173828125,-287.04833984375,-190.97900390625
5.873464107513428,-146994049,1,-0.10919211804866791,-0.07542380690574646,0.6941566467285156,-22.216796875,-333.3740234375,-176.7578125
5.888033151626587,-146994044,0,-0.2449186146259308,-0.40188467502593994,0.8382679224014282,280.2734375,-10.009765625,141.6015625
5.904587030410767,-146994030,1,-0.3152468204498291,0.05275002121925354,0.9617347717285156,-20.3857421875,-286.56005859375,-186.03515625
5.923773288726807,-146994025,0,-0.2375943958759308,-0.28445303440093994,0.5223499536514282,256.8359375,-18.06640625,72.021484375
5.923781156539917,-146994006,0,-0.2844693958759308,-0.07327138632535934,0.11658823490142822,273.0712890625,12.14599609375,23.25439453125
5.933085918426514,-146994011,1,-0.2324831336736679,0.25196877121925354,0.6250648498535156,-18.1884765625,-252.86865234375,-193.05419921875
5.933222055435181,-146993992,1,-0.12139914929866791,0.13087502121925354,0.427310973405838,-33.50830078125,-260.1318359375,-179.6875
5.947965860366821,-146993987,0,-0.3696744740009308,0.07565439492464066,0.010631203651428223,299.98779296875,27.03857421875,-31.3720703125
5.9700469970703125,-146993973,1,0.022643819451332092,0.36817970871925354,0.246402770280838,-24.84130859375,-305.5419921875,-150.634765625
5.970055103302002,-146993954,1,0.1276242882013321,0.26612892746925354,0.450504332780838,-24.90234375,-331.11572265625,-142.578125
5.978103160858154,-146993967,0,-0.5032193660736084,0.13205087184906006,0.0037952661514282227,349.06005859375,33.87451171875,-68.9697265625
5.9781670570373535,-146993948,0,-0.6838834285736084,0.23361337184906006,-0.027210593223571777,397.94921875,42.8466796875,-85.38818359375
6.0184831619262695,-146993929,0,-0.7659146785736084,0.41964852809906006,0.05921518802642822,434.9365234375,47.91259765625,-98.2666015625
6.01849102973938,-146993910,0,-0.7749478816986084,0.5238965749740601,0.09730112552642822,457.21435546875,44.12841796875,-107.23876953125
6.023046255111694,-146993918,1,0.2814328670501709,0.20655861496925354,0.5239906311035156,-71.83837890625,-193.84765625,-128.0517578125
6.02316427230835,-146993899,1,0.2726438045501709,0.34962502121925354,0.192935973405838,-114.80712890625,-118.46923828125,-94.05517578125
6.038043260574341,-146993891,0,-0.7163541316986084,0.49948251247406006,0.08631479740142822,476.9287109375,27.099609375,-141.9677734375
6.066004037857056,-146993880,1,0.3109738826751709,0.45045509934425354,0.149967223405838,-162.9638671875,-97.47314453125,-94.42138671875
6.071497917175293,-146993872,0,-0.5994107723236084,0.5597852468490601,0.04993784427642822,450.439453125,-28.3203125,-175.9033203125
6.083230018615723,-146993861,1,0.3317258358001709,0.5171054601669312,0.207340270280838,-194.091796875,-107.11669921875,-110.2294921875
6.083354234695435,-146993842,1,0.5072629451751709,0.5024570226669312,0.361637145280838,-203.91845703125,-80.26123046875,-111.99951171875
6.098026990890503,-146993836,0,-0.7390592098236084,0.37375009059906006,-0.3013805150985718,360.83984375,-205.9326171875,-205.4443359375
6.117999076843262,-146993823,1,0.5055539608001709,0.6235507726669312,0.419742614030838,-205.4443359375,17.2119140625,-76.11083984375
6.118005990982056,-146993804,1,0.5189816951751709,0.8601230382919312,0.330143004655838,-229.98046875,103.271484375,-39.1845703125
6.127961158752441,-146993817,0,-1.0234830379486084,0.25045907497406006,-0.6924937963485718,338.7451171875,-258.056640625,-259.82666015625
6.128108024597168,-146993798,0,-1.1943814754486084,0.29611337184906006,-0.8526500463485718,323.42529296875,-262.451171875,-328.30810546875
6.142997980117798,-146993785,1,0.5963742733001709,1.1113437414169312,0.285953551530838,-260.7421875,136.3525390625,-32.77587890625
6.171574115753174,-146993766,1,0.5429074764251709,1.0788730382919312,0.233463317155838,-309.75341796875,142.27294921875,-38.6962890625
6.172612190246582,-146993747,1,0.5411984920501709,1.0039218664169312,0.277896910905838,-364.44091796875,126.77001953125,-47.2412109375
6.1872241497039795,-146993779,0,-1.3762662410736084,0.35446298122406006,-1.0350230932235718,302.3681640625,-271.97265625,-380.79833984375
6.187340021133423,-146993760,0,-1.7939908504486084,0.37399423122406006,-1.0931285619735718,323.3642578125,-315.7958984375,-383.85009765625
6.187397241592407,-146993741,0,-2.2383267879486084,0.6000684499740601,-1.2083629369735718,337.95166015625,-395.263671875,-353.8818359375
6.214708089828491,-146993728,1,0.5407102108001709,0.8908847570419312,0.284000426530838,-376.64794921875,124.93896484375,-14.404296875
6.220602035522461,-146993722,0,-2.5835416316986084,-0.13992178440093994,-1.5174449682235718,275.390625,-446.77734375,-359.19189453125
6.2206079959869385,-146993703,0,-2.7141568660736084,0.08566416054964066,-1.7398570775985718,201.84326171875,-418.8232421875,-400.57373046875
6.231317043304443,-146993709,1,0.5770871639251709,0.8879550695419312,0.281314879655838,-349.12109375,114.92919921875,63.8427734375
6.231415033340454,-146993690,1,0.5978391170501709,1.2048496007919312,0.330875426530838,-325.37841796875,120.05615234375,141.54052734375
6.246112108230591,-146993684,0,-3.1001431941986084,-0.19216787815093994,-2.0745739936828613,146.05712890625,-375.732421875,-416.50390625
6.272270202636719,-146993654,1,0.8048703670501709,1.1716464757919312,0.7271156311035156,-338.68408203125,169.189453125,131.7138671875
6.290375232696533,-146993635,1,0.8659055233001709,1.6313632726669312,0.8089027404785156,-288.51318359375,207.09228515625,118.59130859375
6.3132452964782715,-146993665,0,-3.1670377254486084,0.24386727809906006,-2.7027478218078613,165.71044921875,-254.150390625,-431.33544921875
6.313252210617065,-146993646,0,-3.5625455379486084,-0.11526357382535934,-2.5064587593078613,157.1044921875,-80.62744140625,-396.6064453125
6.3132569789886475,-146993627,0,-3.5544888973236084,0.49606454372406006,-2.0652966499328613,101.9287109375,-28.1982421875,-393.06640625
6.313261985778809,-146993608,0,-3.2131803035736084,0.7878125905990601,-1.6961559057235718,16.11328125,13.24462890625,-362.4267578125
6.3211541175842285,-146993616,1,1.145202398300171,1.8142246007919312,0.6824378967285156,-279.84619140625,277.03857421875,3.41796875
6.3225390911102295,-146993597,1,0.6940305233001709,1.2780917882919312,0.8589515686035156,-301.6357421875,362.060546875,-72.81494140625
6.3535380363464355,-146993578,1,1.159362554550171,1.1933749914169312,0.349918395280838,-357.7880859375,319.3359375,-150.146484375
6.36943793296814,-146993572,0,-2.6333463191986084,1.39596688747406,-1.2076305150985718,85.3271484375,70.25146484375,-467.95654296875
6.381366968154907,-146993559,1,0.3515012264251709,0.35743752121925354,0.8081703186035156,-317.2607421875,238.70849609375,-120.4833984375
6.381455183029175,-146993540,1,-0.2112428992986679,-0.11619529128074646,1.3938636779785156,-167.724609375,191.40625,64.3310546875
6.3961122035980225,-146993553,0,-2.4814908504486084,2.5566115379333496,-1.3543590307235718,-12.75634765625,164.9169921875,-316.10107421875
6.396203994750977,-146993534,0,-2.2165982723236084,2.6484084129333496,-0.9219859838485718,-31.73828125,239.8681640625,-188.8427734375
6.4177939891815186,-146993521,1,-0.022766336798667908,-0.5400234460830688,1.2070960998535156,-127.5634765625,154.1748046875,202.57568359375
6.426558971405029,-146993515,0,-2.3474576473236084,0.6542676687240601,0.13978159427642822,155.45654296875,212.46337890625,-301.8798828125
6.4266650676727295,-146993496,0,-1.4468228816986084,1.32541024684906,-0.3265269994735718,331.298828125,144.47021484375,-457.82470703125
6.441577911376953,-146993502,1,-0.2388307899236679,0.13526955246925354,1.6553382873535156,-15.68603515625,128.0517578125,245.54443359375
6.4416351318359375,-146993483,1,-0.1843874305486679,0.5129550695419312,1.2686195373535156,75.98876953125,66.162109375,196.22802734375
6.466656923294067,-146993477,0,-1.2778775691986084,2.2599806785583496,0.05872690677642822,333.251953125,196.22802734375,-401.30615234375
6.466665029525757,-146993458,0,-0.6145474910736084,1.37985360622406,0.8973499536514282,205.810546875,166.8701171875,-205.50537109375
6.472761154174805,-146993464,1,-0.4070436954498291,-0.05540427565574646,1.5342445373535156,102.783203125,54.99267578125,191.83349609375
6.472766876220703,-146993445,1,-0.1900026649236679,0.35011330246925354,1.5066566467285156,212.34130859375,92.83447265625,258.056640625
6.486317157745361,-146993439,0,-0.7344205379486084,0.9130567312240601,0.6244007349014282,173.7060546875,163.57421875,-193.115234375
6.516494035720825,-146993426,1,-0.2605593204498291,0.5073398351669312,1.3599281311035156,233.3984375,147.64404296875,222.0458984375
6.523357152938843,-146993420,0,-0.9685513973236084,0.8476270437240601,0.8968616724014282,171.9970703125,186.70654296875,-176.20849609375
6.523364067077637,-146993401,0,-1.0615689754486084,0.6901563405990601,0.9857288599014282,131.591796875,194.4580078125,-132.38525390625
6.531498908996582,-146993390,1,-0.2319948524236679,0.23658791184425354,1.3701820373535156,344.78759765625,199.3408203125,174.9267578125
6.546473979949951,-146993382,0,-1.2312467098236084,0.25827157497406006,0.9386097192764282,54.3212890625,215.8203125,-93.32275390625
6.568685054779053,-146993371,1,0.2184446007013321,0.28492775559425354,1.2910804748535156,476.98974609375,143.12744140625,220.703125
6.576509952545166,-146993363,0,-1.4990689754486084,-0.014921776950359344,0.9776722192764282,2.50244140625,254.8828125,-82.94677734375
6.576594114303589,-146993344,0,-1.6726529598236084,-0.025419823825359344,1.0399280786514282,-12.02392578125,281.982421875,-79.833984375
6.594732046127319,-146993352,1,0.7379758358001709,0.42408791184425354,1.0169105529785156,568.90869140625,-2.685546875,262.8173828125
6.59474515914917,-146993333,1,0.8060910701751709,0.5258945226669312,1.3723793029785156,552.001953125,-17.15087890625,280.3955078125
6.614758253097534,-146993308,0,-2.0525357723236084,0.042939551174640656,1.0640980005264282,-32.53173828125,312.1337890625,-18.1884765625
6.621379137039185,-146993314,1,0.8820188045501709,0.8632968664169312,0.5750160217285156,334.77783203125,104.4921875,161.62109375
6.621505975723267,-146993295,1,1.054870367050171,0.8083652257919312,-0.364192932844162,174.98779296875,45.59326171875,-20.93505859375
6.63956093788147,-146993289,0,-2.2483365535736084,-0.18557608127593994,1.0194202661514282,13.12255859375,351.6845703125,-8.4228515625
6.664520263671875,-146993276,1,0.8961789608001709,0.28273048996925354,-0.08440778404474258,99.18212890625,-149.5361328125,-91.064453125
6.670331239700317,-146993270,0,-2.4365689754486084,-0.23953115940093994,1.2574573755264282,75.98876953125,411.07177734375,-45.41015625
6.670339107513428,-146993251,0,-2.4285123348236084,-0.23757803440093994,1.5582386255264282,118.896484375,442.81005859375,-55.60302734375
6.6836771965026855,-146993257,1,0.8710324764251709,0.32228127121925354,0.5608558654785156,107.666015625,-286.43798828125,-97.7783203125
6.683687210083008,-146993238,1,0.8634641170501709,0.7234042882919312,1.0986976623535156,116.69921875,-276.85546875,-178.955078125
6.697866916656494,-146993232,0,-2.3166959285736084,-0.46926748752593994,1.7799183130264282,142.08984375,444.39697265625,-52.734375
6.720173120498657,-146993219,1,0.8285520076751709,0.9343417882919312,1.2361488342285156,123.47412109375,-234.375,-300.47607421875
6.734029054641724,-146993213,0,-2.2297818660736084,-0.6719042062759399,1.8802601099014282,165.8935546875,446.47216796875,-77.392578125
6.734042167663574,-146993194,0,-2.0630338191986084,-0.7666307687759399,1.9505726099014282,189.0869140625,445.00732421875,-97.900390625
6.74321722984314,-146993200,1,0.7846066951751709,0.8593906164169312,1.1345863342285156,135.8642578125,-200.0732421875,-443.359375
6.743315935134888,-146993181,1,0.7223508358001709,0.7378085851669312,1.0982093811035156,164.61181640625,-235.04638671875,-545.10498046875
6.768148899078369,-146993175,0,-1.9138638973236084,-0.8691698312759399,2.0887560844421387,180.96923828125,432.861328125,-53.52783203125
6.778773069381714,-146993162,1,0.5917356014251709,0.36329689621925354,1.3027992248535156,134.33837890625,-248.1689453125,-586.24267578125
6.788250207901001,-146993156,0,-2.0693814754486084,-1.13113272190094,2.0648303031921387,48.9501953125,413.57421875,23.86474609375
6.788356065750122,-146993137,0,-2.1694791316986084,-1.22952139377594,1.8853870630264282,-30.8837890625,411.376953125,69.580078125
6.815090179443359,-146993126,1,-0.2412721961736679,0.26441994309425354,1.0437660217285156,102.60009765625,-351.806640625,-505.31005859375
6.82190203666687,-146993118,0,-2.4038541316986084,-1.29592764377594,1.8231312036514282,-126.77001953125,436.58447265625,151.18408203125
6.821908950805664,-146993099,0,-2.5435025691986084,-1.67385733127594,1.8778187036514282,-171.142578125,441.34521484375,188.8427734375
6.831372976303101,-146993107,1,-0.2415163367986679,0.27735939621925354,1.3840980529785156,139.6484375,-505.67626953125,-445.556640625
6.831421852111816,-146993088,1,-0.2393190711736679,0.42945900559425354,1.7864418029785156,192.626953125,-620.30029296875,-380.31005859375
6.848124265670776,-146993080,0,-2.2922818660736084,-1.96975576877594,1.8092151880264282,-120.9716796875,421.81396484375,146.42333984375
6.871101140975952,-146993069,1,-0.1995241492986679,0.45851173996925354,1.8850746154785156,141.4794921875,-624.3896484375,-338.7451171875
6.877880096435547,-146993044,0,-1.5552213191986084,-2.0183396339416504,1.9322620630264282,-91.796875,420.0439453125,48.03466796875
6.892914295196533,-146993050,1,-0.11114524304866791,-0.19236716628074646,2.0908851623535156,39.48974609375,-500.3662109375,-365.8447265625
6.892996072769165,-146993031,1,-0.4317018985748291,-0.7753750085830688,1.9573402404785156,-41.07666015625,-350.09765625,-389.95361328125
6.917955160140991,-146993025,0,-1.1633756160736084,-2.2312302589416504,1.8577991724014282,-166.3818359375,364.44091796875,38.63525390625
6.92303204536438,-146993012,1,-0.5701296329498291,-1.1279140710830688,1.0745277404785156,-100.4638671875,-141.7236328125,-416.3818359375
6.923131227493286,-146992993,1,0.2011106163263321,-1.4831386804580688,-0.240413635969162,-89.90478515625,-62.744140625,-445.98388671875
6.936550140380859,-146993006,0,-0.7847135066986084,-2.4189743995666504,1.6756702661514282,-209.77783203125,314.3310546875,18.310546875
6.936635255813599,-146992987,0,-0.4206998646259308,-2.4604783058166504,1.3883167505264282,-217.4072265625,260.31494140625,-42.6025390625
6.96527099609375,-146992974,1,0.5209348201751709,-1.6904140710830688,-0.491390198469162,75.0732421875,-212.95166015625,-362.060546875
6.969649076461792,-146992968,0,-0.08598306030035019,-2.2512497901916504,1.2989612817764282,-230.40771484375,207.94677734375,-90.02685546875
6.969658136367798,-146992949,0,0.1618196666240692,-2.1304001808166504,1.2381702661514282,-282.28759765625,131.04248046875,-108.2763671875
6.986276149749756,-146992955,1,0.4869992733001709,-1.2035976648330688,0.020328544080257416,232.5439453125,-317.93212890625,-251.64794921875
6.986286163330078,-146992936,1,0.4723508358001709,-0.8720546960830688,0.446353942155838,268.5546875,-241.88232421875,-209.9609375
6.997982978820801,-146992930,0,0.2704622447490692,-1.77541983127594,1.1646839380264282,-300.72021484375,68.42041015625,-117.49267578125
7.019094944000244,-146992917,1,0.5941770076751709,-1.0712734460830688,0.422184020280838,200.1953125,-147.03369140625,-171.0205078125
7.0288331508636475,-146992911,0,0.02412436157464981,-1.20559561252594,0.8612171411514282,-314.3310546875,-3.11279296875,-152.64892578125
7.028846025466919,-146992892,0,-0.5037076473236084,-0.5493456125259399,0.3319202661514282,-294.5556640625,-5.4931640625,-177.8564453125
7.043221950531006,-146992898,1,0.5145871639251709,-0.9640957117080688,0.350894957780838,136.23046875,-153.80859375,-110.90087890625
7.065469980239868,-146992873,0,-0.9021451473236084,-0.11550771445035934,0.05115854740142822,-285.33935546875,49.86572265625,-185.24169921875
7.074639081954956,-146992862,1,0.6664426326751709,-0.21092185378074646,0.394351989030838,169.37255859375,-235.595703125,9.33837890625
7.087929010391235,-146992854,0,-1.0041959285736084,0.22335946559906006,0.18763315677642822,-337.58544921875,76.904296875,-124.69482421875
7.088013172149658,-146992835,0,-0.9058072566986084,0.40622079372406006,0.18860971927642822,-388.48876953125,34.11865234375,-133.11767578125
7.1163330078125,-146992843,1,0.7875363826751709,0.08082619309425354,0.381168395280838,192.32177734375,-244.32373046875,32.71484375
7.116339921951294,-146992824,1,0.8710324764251709,0.16456642746925354,0.443424254655838,201.2939453125,-248.96240234375,54.0771484375
7.124787330627441,-146992816,0,-0.8430631160736084,0.5348829030990601,0.3656116724014282,-441.95556640625,10.19287109375,-137.02392578125
7.132361888885498,-146992805,1,1.167419195175171,0.17677345871925354,0.5901527404785156,172.66845703125,-272.39990234375,73.05908203125
7.132516145706177,-146992786,1,1.454040288925171,0.37843361496925354,0.9763832092285156,132.87353515625,-311.5234375,85.9375
7.14785099029541,-146992780,0,-0.6296842098236084,0.5392774343490601,0.6798206567764282,-437.8662109375,-37.59765625,-122.6806640625
7.17474102973938,-146992767,1,1.470397710800171,0.5263828039169312,1.2595863342285156,172.30224609375,-343.75,121.27685546875
7.178112030029297,-146992761,0,-0.6279752254486084,0.5678418874740601,0.6344105005264282,-346.3134765625,-58.53271484375,-128.5400390625
7.178171157836914,-146992742,0,-0.6770474910736084,0.46945321559906006,0.6517444849014282,-282.89794921875,-76.7822265625,-157.71484375
7.19084906578064,-146992748,1,1.630309820175171,0.8354648351669312,1.5330238342285156,337.95166015625,-395.32470703125,201.2939453125
7.19226598739624,-146992729,1,1.843932867050171,1.0246738195419312,1.6445960998535156,486.4501953125,-412.59765625,255.92041015625
7.217095136642456,-146992723,0,-0.7129361629486084,0.39669930934906006,0.6468616724014282,-217.59033203125,-101.98974609375,-204.52880859375
7.223088026046753,-146992710,1,1.819274663925171,1.3481601476669312,1.6665687561035156,529.78515625,-345.0927734375,283.75244140625
7.2372190952301025,-146992704,0,-0.8044888973236084,0.47580087184906006,0.6458851099014282,-169.189453125,-157.470703125,-246.09375
7.237323045730591,-146992685,0,-1.0137174129486084,0.5214551687240601,0.5260120630264282,-153.62548828125,-217.59033203125,-264.5263671875
7.264057159423828,-146992691,1,1.811462163925171,1.5036777257919312,1.5401039123535156,539.00146484375,-270.99609375,297.42431640625
7.264064073562622,-146992672,1,1.736266851425171,1.7724765539169312,1.2571449279785156,544.12841796875,-170.7763671875,335.693359375
7.26879096031189,-146992666,0,-1.4170377254486084,0.5939649343490601,0.4063831567764282,-120.91064453125,-241.8212890625,-290.22216796875
7.282856225967407,-146992653,1,1.675231695175171,2.1906895637512207,0.9631996154785156,473.69384765625,14.09912109375,311.03515625
7.2829430103302,-146992634,1,1.570007085800171,2.3430333137512207,0.354312926530838,300.29296875,234.4970703125,236.02294921875
7.298024892807007,-146992647,0,-1.7024381160736084,0.9345411062240601,0.5133167505264282,-65.12451171875,-259.33837890625,-289.1845703125
7.298120975494385,-146992628,0,-1.8411099910736084,1.26999032497406,0.4906116724014282,-4.69970703125,-273.193359375,-224.12109375
7.327997922897339,-146992609,0,-1.7595670223236084,1.15646493434906,0.3892933130264282,13.73291015625,-263.12255859375,-95.5810546875
7.328113079071045,-146992590,0,-1.6201627254486084,0.7653516530990601,0.2784534692764282,-15.31982421875,-233.58154296875,-50.59814453125
7.341788053512573,-146992598,1,1.945739507675171,1.8361972570419312,-0.8507652282714844,27.28271484375,331.6650390625,328.7353515625
7.3419411182403564,-146992579,1,2.004821538925171,2.0334630012512207,-1.1461753845214844,16.4794921875,216.6748046875,354.18701171875
7.367910146713257,-146992571,0,-1.5886685848236084,0.7529004812240601,0.2784534692764282,12.451171875,-241.455078125,-75.0732421875
7.375150203704834,-146992560,1,2.195495367050171,2.4863438606262207,-0.5497398376464844,-36.2548828125,85.38818359375,288.330078125
7.388318061828613,-146992552,0,-1.7427213191986084,1.04293954372406,0.16395151615142822,39.73388671875,-294.0673828125,-63.4765625
7.414547920227051,-146992541,1,1.853698492050171,2.4409337043762207,0.10480120033025742,-140.5029296875,151.30615234375,140.7470703125
7.414557933807373,-146992522,1,1.478698492050171,2.1552891731262207,0.217105895280838,-208.1298828125,226.1962890625,83.3740234375
7.420199155807495,-146992516,0,-1.6487271785736084,0.6933301687240601,-0.14806020259857178,-8.6669921875,-312.8662109375,44.37255859375
7.431464910507202,-146992503,1,1.246520757675171,2.2854161262512207,0.246158629655838,-186.8896484375,172.66845703125,43.88427734375
7.431554079055786,-146992484,1,0.8290402889251709,2.6594395637512207,0.6777992248535156,-160.400390625,60.302734375,-76.11083984375
7.446361064910889,-146992497,0,-1.4106900691986084,0.41671884059906006,-0.07750356197357178,25.7568359375,-215.39306640625,35.21728515625
7.446471214294434,-146992478,0,-1.5129849910736084,0.5575879812240601,-0.08897817134857178,72.265625,-184.814453125,8.30078125
7.47029709815979,-146992465,1,-0.1965944617986679,2.5300450325012207,0.9382972717285156,-167.3583984375,16.357421875,-193.9697265625
7.478062152862549,-146992459,0,-1.4890592098236084,0.7553418874740601,-0.13756215572357178,52.24609375,-200.3173828125,46.9970703125
7.478119134902954,-146992440,0,-1.0994107723236084,0.5812696218490601,-0.12974965572357178,86.36474609375,-130.0048828125,51.69677734375
7.492948055267334,-146992446,1,-1.034485101699829,2.3654942512512207,1.2063636779785156,-160.58349609375,-73.486328125,-243.71337890625
7.493066072463989,-146992427,1,-1.519592523574829,2.1535801887512207,1.4580726623535156,-145.6298828125,-142.63916015625,-294.86083984375
7.516416072845459,-146992421,0,-0.8816373348236084,0.35958993434906006,-0.05235707759857178,161.19384765625,-48.33984375,-31.6162109375
7.522878885269165,-146992408,1,-1.821350336074829,0.48097267746925354,1.9758949279785156,-232.84912109375,-108.70361328125,-397.15576171875
7.538153886795044,-146992402,0,-0.7046353816986084,0.47653329372406006,0.3944202661514282,223.20556640625,-36.0107421875,-92.8955078125
7.538247108459473,-146992383,0,-0.9497525691986084,0.9147657155990601,0.6241565942764282,189.02587890625,-128.7841796875,-0.3662109375
7.551421165466309,-146992389,1,-1.509582757949829,-1.4980312585830688,2.0650062561035156,-282.1044921875,39.9169921875,-467.6513671875
7.551563024520874,-146992370,1,-1.358703851699829,-2.0693202018737793,1.3899574279785156,-162.53662109375,242.49267578125,-490.17333984375
7.56820011138916,-146992364,0,-1.1643521785736084,0.8185743093490601,0.2972522974014282,84.9609375,-190.61279296875,97.2900390625
7.582891941070557,-146992334,1,-0.08892844617366791,-2.0243983268737793,0.407047301530838,30.6396484375,125.732421875,-293.0908203125
7.598065137863159,-146992345,0,-1.0176236629486084,0.5654004812240601,0.04847300052642822,67.0166015625,-152.40478515625,104.30908203125
7.598165988922119,-146992326,0,-1.1367642879486084,0.48410165309906006,0.04944956302642822,88.68408203125,-90.39306640625,82.6416015625
7.616901159286499,-146992315,1,0.8302609920501709,-2.1047205924987793,0.08551409095525742,87.34130859375,32.2265625,-261.71875
7.628023147583008,-146992307,0,-1.1699674129486084,0.5356153249740601,0.07532846927642822,61.46240234375,-99.4873046875,99.365234375
7.628129959106445,-146992288,0,-1.1350553035736084,0.38791024684906006,0.11585581302642822,31.18896484375,-122.0703125,146.05712890625
7.643220901489258,-146992296,1,1.270690679550171,-2.3993983268737793,-0.186214417219162,176.26953125,-158.63037109375,-121.27685546875
7.6433351039886475,-146992277,1,1.362487554550171,-1.2658535242080688,0.252994567155838,403.1982421875,-322.20458984375,59.326171875
7.675068140029907,-146992258,1,1.317809820175171,-1.1318203210830688,0.260318785905838,633.36181640625,-343.32275390625,201.0498046875
7.688239097595215,-146992252,0,-1.2056119441986084,0.21334969997406006,0.17225229740142822,0.8544921875,-81.84814453125,128.2958984375
7.688392162322998,-146992233,0,-1.4187467098236084,0.5475782155990601,0.2791858911514282,-0.54931640625,-56.57958984375,139.83154296875
7.715206146240234,-146992239,1,1.445983648300171,-1.1301113367080688,0.440494567155838,748.4130859375,-340.087890625,290.1611328125
7.715214014053345,-146992220,1,1.712829351425171,-1.0336757898330688,0.7178382873535156,721.6796875,-263.97705078125,291.68701171875
7.72036600112915,-146992214,0,-1.5745084285736084,0.7231153249740601,0.19593393802642822,-13.671875,-67.56591796875,184.50927734375
7.733061075210571,-146992201,1,2.020202398300171,-0.9980312585830688,0.7241859436035156,632.62939453125,-92.4072265625,278.62548828125
7.748226165771484,-146992195,0,-1.8992154598236084,0.7907422780990601,0.04163706302642822,7.38525390625,-66.89453125,227.05078125
7.7482991218566895,-146992176,0,-1.9687955379486084,0.9499219655990601,-0.18272817134857178,-69.2138671875,-32.16552734375,274.59716796875
7.77024507522583,-146992182,1,2.352477788925171,-1.0527187585830688,0.5798988342285156,575.01220703125,65.24658203125,274.35302734375
7.770251989364624,-146992163,1,2.490661382675171,-1.1950527429580688,0.482486754655838,569.091796875,154.541015625,266.78466796875
7.776524066925049,-146992157,0,-1.7502896785736084,0.8346875905990601,-0.2977184057235718,-112.85400390625,55.48095703125,336.97509765625
7.776605129241943,-146992138,0,-1.5478971004486084,0.7006543874740601,-0.17784535884857178,-101.50146484375,136.3525390625,398.25439453125
7.791520118713379,-146992144,1,2.511413335800171,-1.3141933679580688,0.452701598405838,571.4111328125,175.10986328125,235.9619140625
7.791537046432495,-146992125,1,2.511169195175171,-1.5522304773330688,0.388492614030838,556.94580078125,162.41455078125,178.8330078125
7.8201751708984375,-146992119,0,-1.3640592098236084,0.6513379812240601,0.06580698490142822,-94.482421875,202.5146484375,498.291015625
7.824080228805542,-146992106,1,2.383239507675171,-1.7878261804580688,0.314273864030838,520.6298828125,120.05615234375,141.11328125
7.836766004562378,-146992100,0,-1.3291471004486084,0.43966805934906006,0.3236194849014282,-78.9794921875,249.45068359375,586.3037109375
7.836854934692383,-146992081,0,-1.2615201473236084,0.30441415309906006,0.5037952661514282,-3.60107421875,326.96533203125,596.6796875
7.867638111114502,-146992070,1,2.171081304550171,-2.0978846549987793,0.132144957780838,477.783203125,1.28173828125,187.43896484375
7.872506141662598,-146992062,0,-1.0076138973236084,0.5863965749740601,0.5443226099014282,75.5615234375,460.99853515625,564.51416015625
7.881525039672852,-146992051,1,2.021911382675171,-2.1979823112487793,0.148502379655838,490.41748046875,-79.58984375,189.697265625
7.896735906600952,-146992043,0,-1.1599576473236084,0.6757520437240601,0.7616077661514282,55.48095703125,577.94189453125,464.7216796875
7.89686918258667,-146992024,0,-1.1018521785736084,1.00827157497406,1.0907093286514282,-33.14208984375,600.76904296875,335.5712890625
7.918335914611816,-146992032,1,1.789001226425171,-2.2136073112487793,0.10602190345525742,486.6943359375,-127.25830078125,156.005859375
7.9183430671691895,-146992013,1,1.417419195175171,-2.3046717643737793,0.136051207780838,455.74951171875,-144.6533203125,92.59033203125
7.926280975341797,-146991988,0,-0.9756314754486084,1.24655282497406,1.7030140161514282,-212.646484375,435.546875,460.51025390625
7.941733121871948,-146991994,1,1.221618413925171,-2.4462733268737793,0.06280901283025742,433.89892578125,-122.00927734375,15.9912109375
7.941848039627075,-146991975,1,0.7428586483001709,-2.7101893424987793,-0.09783551841974258,417.54150390625,-111.99951171875,-0.67138671875
7.967897176742554,-146991969,0,-0.8577115535736084,0.6139844655990601,1.5680042505264282,-158.8134765625,386.65771484375,396.728515625
7.973060131072998,-146991956,1,0.6581418514251709,-2.2888026237487793,-0.09368512779474258,407.71484375,-108.70361328125,-38.2080078125
7.986980199813843,-146991950,0,-0.9932096004486084,0.5326856374740601,1.5130726099014282,-178.28369140625,309.08203125,390.380859375
7.9870970249176025,-146991931,0,-0.9932096004486084,0.07492197304964066,1.2628284692764282,-250.0,264.16015625,436.4013671875
8.016165018081665,-146991937,1,0.3480832576751709,-2.1855311393737793,0.10895159095525742,413.26904296875,-149.7802734375,-21.05712890625
8.016173124313354,-146991918,1,0.1683957725763321,-1.8742519617080688,0.375309020280838,322.44873046875,-146.3623046875,-9.3994140625
8.022669076919556,-146991912,0,-1.0500943660736084,-0.44143545627593994,1.1202503442764282,-222.22900390625,249.8779296875,435.11962890625
8.033188104629517,-146991899,1,-0.030578836798667908,-1.2226406335830688,0.315006285905838,258.544921875,-140.2587890625,-57.373046875
8.048401117324829,-146991893,0,-1.0186002254486084,-0.5959764719009399,1.1109730005264282,-138.48876953125,161.43798828125,404.6630859375
8.048470973968506,-146991874,0,-0.9082486629486084,-0.6567674875259399,0.8717151880264282,-19.59228515625,46.0205078125,351.5625
8.069966077804565,-146991880,1,0.03216530382633209,-0.8427578210830688,0.274967223405838,260.3759765625,-147.88818359375,-148.49853515625
8.0699782371521,-146991861,1,0.05511452257633209,-1.0991054773330688,0.09650041908025742,177.001953125,-174.98779296875,-205.810546875
8.078142881393433,-146991855,0,-0.8982388973236084,-0.9653612375259399,0.6690784692764282,132.50732421875,41.748046875,282.89794921875
8.092801094055176,-146991842,1,-0.021301493048667908,-1.0348964929580688,0.196109801530838,146.78955078125,-265.869140625,-128.2958984375
8.11820101737976,-146991836,0,-0.6470181941986084,-0.9194628000259399,0.7916370630264282,251.77001953125,40.1611328125,205.13916015625
8.118207931518555,-146991817,0,-0.5261685848236084,-0.41775381565093994,0.7391468286514282,339.05029296875,-2.74658203125,126.89208984375
8.124658107757568,-146991806,1,0.1408078819513321,-0.06028708815574646,0.195621520280838,98.5107421875,-361.4501953125,-135.19287109375
8.138039112091064,-146991798,0,-0.4536588490009308,-0.0034471675753593445,0.3421741724014282,382.87353515625,-29.11376953125,83.06884765625
8.13810396194458,-146991779,0,-0.4297330677509308,0.062226660549640656,-0.10411489009857178,425.35400390625,3.35693359375,41.015625
8.15436601638794,-146991787,1,0.3700559139251709,-0.13499411940574646,0.468326598405838,27.52685546875,-401.2451171875,-168.5791015625
8.154376983642578,-146991768,1,0.2638547420501709,-0.05223044753074646,0.5332679748535156,-48.76708984375,-352.35595703125,-170.47119140625
8.174286127090454,-146991760,0,-0.3860318958759308,0.021699316799640656,-0.20640981197357178,469.42138671875,33.14208984375,-26.06201171875
8.182926177978516,-146991749,1,0.1696164757013321,0.34010353684425354,0.425113707780838,-75.5615234375,-289.9169921875,-178.466796875
8.196299076080322,-146991724,0,-0.5933072566986084,0.28219735622406006,-0.2650035619735718,627.685546875,22.5830078125,-160.400390625
8.217447280883789,-146991730,1,0.2953488826751709,0.5586093664169312,0.232730895280838,-104.8583984375,-236.328125,-204.28466796875
8.2174551486969,-146991711,1,0.4108273983001709,0.5261386632919312,-0.029964424669742584,-143.310546875,-214.7216796875,-266.6015625
8.227853059768677,-146991705,0,-0.8936002254486084,0.45919930934906006,-0.4056285619735718,632.26318359375,9.94873046875,-213.19580078125
8.242938041687012,-146991692,1,0.5592648983001709,0.28468361496925354,-0.052913643419742584,-179.0771484375,-219.90966796875,-288.75732421875
8.243054151535034,-146991673,1,0.5465695858001709,0.24415627121925354,-0.014827705919742584,-207.09228515625,-184.08203125,-284.7900390625
8.266042232513428,-146991686,0,-1.0801236629486084,0.7487500905990601,-0.4056285619735718,500.8544921875,-13.97705078125,-246.64306640625
8.266050100326538,-146991667,0,-1.0859830379486084,0.8146680593490601,-0.6116832494735718,409.97314453125,-47.05810546875,-291.8701171875
8.272901058197021,-146991654,1,0.4762570858001709,0.31666603684425354,-0.06365583091974258,-245.4833984375,-129.638671875,-278.25927734375
8.288285970687866,-146991648,0,-1.1531217098236084,0.8800977468490601,-0.8594859838485718,446.2890625,-80.078125,-338.80615234375
8.288372993469238,-146991629,0,-1.2549283504486084,0.9242871999740601,-1.0218394994735718,481.26220703125,-110.9619140625,-344.78759765625
8.313622951507568,-146991635,1,0.3978879451751709,0.32447853684425354,-0.210872620344162,-302.24609375,-97.71728515625,-267.333984375
8.313631057739258,-146991616,1,0.2218625694513321,0.41041603684425354,-0.142757385969162,-337.95166015625,-64.75830078125,-238.76953125
8.318708896636963,-146991610,0,-1.4426724910736084,0.9687207937240601,-1.0916637182235718,471.435546875,-171.630859375,-314.63623046875
8.333104133605957,-146991597,1,0.2567746639251709,0.40187111496925354,-0.06780622154474258,-351.806640625,-30.8837890625,-152.587890625
8.347975254058838,-146991591,0,-1.6804654598236084,0.7453321218490601,-1.3917125463485718,398.37646484375,-237.24365234375,-337.2802734375
8.348079204559326,-146991572,0,-1.9033658504486084,0.6654981374740601,-1.6077769994735718,300.537109375,-285.400390625,-424.8046875
8.36852502822876,-146991578,1,0.3361203670501709,0.6030429601669312,0.060123465955257416,-354.91943359375,-5.859375,-46.0205078125
8.37776517868042,-146991553,0,-2.0442349910736084,0.6735547780990601,-1.8026012182235718,230.40771484375,-306.884765625,-477.6611328125
8.392967224121094,-146991542,1,0.4454953670501709,0.9448398351669312,0.243717223405838,-404.35791015625,36.19384765625,-10.07080078125
8.393042087554932,-146991523,1,0.5592648983001709,0.9223788976669312,0.427310973405838,-448.486328125,37.353515625,-22.216796875
8.418078899383545,-146991534,0,-2.3188931941986084,0.6816114187240601,-1.8685191869735718,212.58544921875,-318.84765625,-477.05078125
8.41808819770813,-146991515,0,-2.9231412410736084,0.5651563405990601,-1.9380992650985718,252.13623046875,-311.279296875,-468.1396484375
8.423257112503052,-146991504,1,0.4935910701751709,0.9402011632919312,0.432926207780838,-443.2373046875,36.7431640625,2.5634765625
8.438131093978882,-146991496,0,-3.1692349910736084,0.39474618434906006,-2.3336071968078613,286.07177734375,-286.43798828125,-523.49853515625
8.46862006187439,-146991485,1,0.4645383358001709,0.9133456945419312,0.6997718811035156,-422.91259765625,5.43212890625,53.03955078125
8.4686279296875,-146991466,1,0.4274289608001709,1.0168613195419312,1.1638832092285156,-434.02099609375,39.97802734375,83.43505859375
8.480874061584473,-146991447,1,0.2037961632013321,1.3339999914169312,1.3425941467285156,-621.76513671875,279.4189453125,-0.3662109375
8.501628160476685,-146991460,0,-3.5601041316986084,0.25094735622406006,-2.4119763374328613,179.38232421875,-167.236328125,-592.041015625
8.52112889289856,-146991428,1,-0.05499289929866791,0.9865878820419312,0.9141273498535156,-692.3828125,406.25,-26.30615234375
8.52114200592041,-146991409,1,-0.2393190711736679,0.19679298996925354,0.7537269592285156,-501.52587890625,268.24951171875,152.03857421875
8.527477979660034,-146991441,0,-3.6487271785736084,0.39865243434906006,-2.3104138374328613,58.349609375,-95.88623046875,-526.0009765625
8.527634143829346,-146991422,0,-3.5657193660736084,0.5817579030990601,-2.2505993843078613,-6.65283203125,10.009765625,-437.31689453125
8.527647972106934,-146991403,0,-3.4829556941986084,0.9616407155990601,-1.7701305150985718,-65.49072265625,168.0908203125,-326.11083984375
8.543613910675049,-146991390,1,0.04534889757633209,-0.14842185378074646,0.7781410217285156,-160.94970703125,-15.2587890625,326.2939453125
8.565431118011475,-146991384,0,-3.1667935848236084,1.52853524684906,-0.7208141088485718,-107.84912109375,252.3193359375,-253.23486328125
8.565438032150269,-146991365,0,-2.8984830379486084,2.1352248191833496,-0.10045278072357178,-74.27978515625,214.17236328125,-250.8544921875
8.571470022201538,-146991371,1,-0.1616823524236679,-0.06590232253074646,1.3887367248535156,-43.3349609375,-85.51025390625,341.30859375
8.571552991867065,-146991352,1,-0.2761843204498291,-0.12644919753074646,1.6658363342285156,-55.72509765625,17.88330078125,361.572265625
8.588058233261108,-146991346,0,-2.6238248348236084,2.4269728660583496,-0.21739614009857178,-1.708984375,213.37890625,-210.87646484375
8.614381074905396,-146991333,1,-0.1782839149236679,0.16310158371925354,1.4221839904785156,-23.74267578125,111.14501953125,349.79248046875
8.61438798904419,-146991314,1,-0.10162375867366791,0.5454257726669312,1.0899085998535156,92.529296875,59.26513671875,272.4609375
8.619287014007568,-146991327,0,-2.3616178035736084,2.1667189598083496,0.009898781776428223,27.587890625,292.54150390625,-99.609375
8.619293928146362,-146991308,0,-1.7898404598236084,1.20407235622406,0.9676624536514282,93.44482421875,344.6044921875,-90.14892578125
8.646201133728027,-146991289,0,-1.3088834285736084,1.12790048122406,1.3280140161514282,202.1484375,340.75927734375,-153.1982421875
8.64766001701355,-146991270,0,-1.0676724910736084,1.23776376247406,1.6812855005264282,213.37890625,293.5791015625,-121.15478515625
8.67026400566101,-146991278,1,0.03826881945133209,0.32228127121925354,1.4876136779785156,175.35400390625,72.1435546875,275.69580078125
8.6702721118927,-146991259,1,0.09197975695133209,1.1062167882919312,1.6563148498535156,168.15185546875,252.9296875,96.0693359375
8.679448127746582,-146991251,0,-0.8848111629486084,0.7780469655990601,1.7779651880264282,200.13427734375,212.21923828125,-75.01220703125
8.693250179290771,-146991240,1,0.1923215538263321,0.27491798996925354,1.7315101623535156,216.61376953125,259.58251953125,31.31103515625
8.71787691116333,-146991232,0,-1.0254361629486084,0.24606454372406006,1.5194202661514282,184.08203125,210.51025390625,-72.75390625
8.723432302474976,-146991221,1,0.7335813045501709,0.6279453039169312,1.9666175842285156,385.009765625,201.7822265625,87.646484375
8.723453283309937,-146991202,1,1.026305913925171,0.6330722570419312,1.8440589904785156,516.6015625,91.24755859375,174.62158203125
8.738152265548706,-146991196,0,-1.4646451473236084,-0.08914052695035934,1.1229358911514282,52.6123046875,269.10400390625,-58.77685546875
8.765490293502808,-146991183,1,1.054137945175171,0.48292580246925354,1.6214027404785156,696.044921875,-79.40673828125,230.46875
8.766376972198486,-146991164,1,1.111022710800171,0.5937656164169312,1.8782386779785156,673.15673828125,-30.21240234375,198.974609375
8.771843194961548,-146991177,0,-1.7612760066986084,-0.22830069065093994,1.2242542505264282,0.244140625,299.31640625,-12.39013671875
8.771848917007446,-146991158,0,-1.8389127254486084,-0.5469042062759399,1.2867542505264282,10.1318359375,310.60791015625,16.2353515625
8.782880067825317,-146991145,1,0.8097531795501709,0.9763339757919312,0.447818785905838,324.52392578125,123.046875,-1.953125
8.79786205291748,-146991139,0,-1.8440396785736084,-0.7695604562759399,1.4288440942764282,32.16552734375,324.0966796875,7.32421875
8.797899961471558,-146991120,0,-1.7769010066986084,-0.7922655344009399,1.3822132349014282,44.25048828125,324.951171875,0.91552734375
8.820415019989014,-146991126,1,0.5084836483001709,0.5669101476669312,-0.150325745344162,164.794921875,-99.42626953125,-112.4267578125
8.820424318313599,-146991107,1,0.4721066951751709,0.48512306809425354,0.6126136779785156,150.08544921875,-289.48974609375,-108.7646484375
8.827775001525879,-146991101,0,-1.7241666316986084,-0.7690721750259399,1.4132190942764282,36.376953125,362.6708984375,28.1982421875
8.845745086669922,-146991088,1,0.4086301326751709,0.6416171789169312,0.9194984436035156,145.3857421875,-304.38232421875,-144.4091796875
8.86527419090271,-146991082,0,-1.7578580379486084,-0.8906542062759399,1.4796253442764282,24.7802734375,389.83154296875,48.4619140625
8.865281105041504,-146991063,0,-1.7422330379486084,-1.09109365940094,1.5086780786514282,45.34912109375,395.56884765625,42.66357421875
8.873062133789062,-146991069,1,0.4628293514251709,0.8813632726669312,1.1257972717285156,140.56396484375,-299.560546875,-245.91064453125
8.873135089874268,-146991050,1,0.5014035701751709,0.9812167882919312,1.4160804748535156,150.5126953125,-266.05224609375,-413.4521484375
8.888813018798828,-146991044,0,-1.7031705379486084,-1.25027334690094,1.4486194849014282,91.49169921875,389.5263671875,26.2451171875
8.917064189910889,-146991014,1,0.6310422420501709,0.6618808507919312,1.2947425842285156,166.259765625,-224.12109375,-632.38525390625
8.922781229019165,-146991025,0,-1.6645963191986084,-0.9172655344009399,1.4420276880264282,101.1962890625,400.93994140625,28.62548828125
8.922789096832275,-146991006,0,-1.7214810848236084,-1.65164053440094,1.5086780786514282,-2.74658203125,366.943359375,96.8017578125
8.935705184936523,-146990995,1,0.6071164608001709,-0.15135154128074646,1.1138343811035156,129.21142578125,-246.7041015625,-607.84912109375
8.948171138763428,-146990987,0,-1.7917935848236084,-1.84426748752594,1.3665882349014282,3.23486328125,384.765625,63.3544921875
8.948339223861694,-146990968,0,-1.7144010066986084,-1.69119131565094,1.4102894067764282,-44.00634765625,387.6953125,80.62744140625
8.970299243927002,-146990976,1,0.2128293663263321,-0.29808005690574646,0.9473304748535156,120.42236328125,-302.55126953125,-485.2294921875
8.970307111740112,-146990957,1,-0.12408469617366791,-1.3093105554580688,-0.327815979719162,119.93408203125,-537.65869140625,-260.43701171875
8.991047143936157,-146990938,1,0.5775754451751709,-0.8566738367080688,0.6536293029785156,249.8779296875,-880.859375,-78.125
9.016108989715576,-146990932,0,-1.7429654598236084,-2.4272751808166504,1.3409534692764282,-98.0224609375,308.9599609375,260.009765625
9.016119956970215,-146990913,0,-1.6926724910736084,-2.3804001808166504,1.0257679224014282,-105.95703125,304.26025390625,235.7177734375
9.0246741771698,-146990919,1,0.4833371639251709,0.32618752121925354,1.8120765686035156,10.31494140625,-826.2939453125,-153.1982421875
9.024682998657227,-146990900,1,0.012634053826332092,0.5534824132919312,2.3977699279785156,-232.72705078125,-545.7763671875,-298.2177734375
9.038191080093384,-146990894,0,-1.3555142879486084,-2.3283982276916504,1.3949085474014282,-71.96044921875,378.7841796875,130.06591796875
9.06542420387268,-146990881,1,-0.6616823673248291,0.28614845871925354,2.5303382873535156,-282.8369140625,-138.427734375,-450.8056640625
9.071830987930298,-146990875,0,-0.9351041316986084,-1.96999990940094,1.6204944849014282,-61.58447265625,340.75927734375,100.09765625
9.071837902069092,-146990856,0,-0.6113736629486084,-1.93948233127594,1.5160022974014282,-119.07958984375,280.6396484375,134.765625
9.081477165222168,-146990862,1,-0.9099733829498291,-0.6633144617080688,1.5979652404785156,-74.5849609375,20.6298828125,-408.69140625
