sync_time,timestamp_ms,device_id,ax,ay,az,gx,gy,gz
0.006822109222412109,-1357115383,0,0.3545217514038086,-0.8697715997695923,-0.3090466856956482,-1.64794921875,0.1220703125,-3.47900390625
0.006831169128417969,-1357115364,0,0.3662405014038086,-0.9037071466445923,-0.3105115294456482,-0.3662109375,-1.8310546875,-6.65283203125
0.015590190887451172,-1357115388,1,0.01937112584710121,-1.0258772373199463,0.07414041459560394,6.16455078125,-1.220703125,-9.765625
0.015696287155151367,-1357115369,1,0.01668557897210121,-1.0290510654449463,0.06388650834560394,6.4697265625,-3.35693359375,-8.60595703125
0.015766143798828125,-1357115350,1,0.0042344070971012115,-1.0351545810699463,0.05582987144589424,8.544921875,-7.99560546875,-7.32421875
0.030848979949951172,-1357115345,0,0.3569631576538086,-0.8971153497695923,-0.3146619200706482,1.77001953125,-4.5166015625,-9.765625
0.05135512351989746,-1357115331,1,8.401647210121155e-05,-1.0371077060699463,0.02897440269589424,11.29150390625,-10.986328125,-6.28662109375
0.061118364334106445,-1357115326,0,0.3286428451538086,-0.9300743341445923,-0.2904919981956482,4.0283203125,-6.77490234375,-13.18359375
0.06118512153625488,-1357115307,0,0.3132619857788086,-0.9505821466445923,-0.2953748106956482,6.04248046875,-9.82666015625,-14.83154296875
0.07445120811462402,-1357115312,1,-0.0008925460278987885,-1.0617659091949463,-0.0020314566791057587,14.09912109375,-15.2587890625,-6.28662109375
0.07451415061950684,-1357115293,1,-0.0013808272778987885,-1.0703108310699463,-0.01863301917910576,17.333984375,-23.86474609375,-2.99072265625
0.09704422950744629,-1357115288,0,0.2825002670288086,-0.9644981622695923,-0.3105115294456482,10.80322265625,-13.916015625,-20.01953125
0.10595297813415527,-1357115274,1,0.008873078972101212,-1.0605452060699463,-0.02205098792910576,19.6533203125,-30.09033203125,-0.3662109375
0.1211090087890625,-1357115269,0,0.2622365951538086,-0.9832969903945923,-0.2914685606956482,17.39501953125,-20.08056640625,-24.658203125
0.12121224403381348,-1357115250,0,0.2825002670288086,-0.9769493341445923,-0.2824353575706482,24.169921875,-29.23583984375,-30.33447265625
0.13442039489746094,-1357115255,1,-0.014564421027898788,-1.0490705966949463,-0.01667989417910576,22.03369140625,-42.1142578125,4.08935546875
0.1344771385192871,-1357115236,1,-0.02603903040289879,-1.0351545810699463,0.010175574570894241,24.4140625,-51.45263671875,7.6904296875
0.15250301361083984,-1357115231,0,0.2856740951538086,-0.9598594903945923,-0.2594861388206482,29.23583984375,-33.02001953125,-34.97314453125
0.1525113582611084,-1357115212,0,0.2834768295288086,-0.9354454278945923,-0.2477673888206482,34.66796875,-36.9873046875,-39.9169921875
0.1642911434173584,-1357115217,1,-0.03385153040289879,-1.0114729404449463,0.013105262070894241,27.77099609375,-58.77685546875,9.58251953125
0.1794753074645996,-1357115193,0,0.2790822982788086,-0.9166465997695923,-0.2509412169456482,38.0859375,-45.59326171875,-44.25048828125
0.20948123931884766,-1357115157,0,0.3652639389038086,-0.9061485528945923,-0.2929334044456482,44.7998046875,-58.65478515625,-53.40576171875
0.22430634498596191,-1357115198,1,-0.01920309290289879,-1.0214827060699463,0.01749979332089424,29.052734375,-66.0400390625,11.962890625
0.22572731971740723,-1357115179,1,-0.008460905402898788,-1.0161116123199463,0.05192362144589424,27.89306640625,-77.69775390625,12.8173828125
0.24672222137451172,-1357115138,0,0.3950490951538086,-0.8819786310195923,-0.2836560606956482,48.828125,-60.302734375,-55.2978515625
0.2686481475830078,-1357115119,0,0.3930959701538086,-0.8573204278945923,-0.2858533263206482,52.30712890625,-64.3310546875,-58.10546875
0.2695772647857666,-1357115100,0,0.4231252670288086,-0.8548790216445923,-0.2983044981956482,55.48095703125,-70.73974609375,-62.56103515625
0.286257266998291,-1357115143,1,0.0005722977221012115,-1.0285627841949463,0.11564432084560394,28.25927734375,-89.17236328125,18.98193359375
0.299511194229126,-1357115081,0,0.4941701889038086,-0.8099571466445923,-0.2936658263206482,59.99755859375,-71.22802734375,-62.92724609375
0.29958033561706543,-1357115062,0,0.4687795639038086,-0.7809044122695923,-0.3109998106956482,59.87548828125,-67.9931640625,-62.68310546875
0.31449007987976074,-1357115124,1,0.02156839147210121,-1.0205061435699463,0.12174783647060394,29.9072265625,-94.482421875,21.05712890625
0.3145930767059326,-1357115105,1,0.02986917272210121,-1.0148909091949463,0.14127908647060394,28.6865234375,-102.96630859375,24.169921875
0.32929515838623047,-1357115043,0,0.4638967514038086,-0.7669883966445923,-0.3124646544456482,58.53271484375,-69.76318359375,-57.9833984375
0.3510892391204834,-1357115086,1,0.013755891472101212,-1.0017073154449463,0.17790018022060394,27.28271484375,-107.91015625,24.7802734375
0.35109710693359375,-1357115067,1,0.0066758133471012115,-0.9953597187995911,0.19596658647060394,25.2685546875,-111.14501953125,27.64892578125
0.351102352142334,-1357115048,1,0.04744729772210121,-0.9860823750495911,0.18717752397060394,22.4609375,-108.09326171875,30.2734375
0.351107120513916,-1357115029,1,0.05721292272210121,-0.9797347187995911,0.17521463334560394,20.8740234375,-106.75048828125,29.052734375
0.3596153259277344,-1357115024,0,0.4624319076538086,-0.7589317560195923,-0.3224744200706482,58.2275390625,-69.15283203125,-53.955078125
0.35968518257141113,-1357115005,0,0.4607229232788086,-0.7787071466445923,-0.3437146544456482,60.36376953125,-70.4345703125,-51.45263671875
0.3769233226776123,-1357115010,1,0.07259377837181091,-0.9792464375495911,0.17326150834560394,17.02880859375,-106.87255859375,29.96826171875
0.37693309783935547,-1357114991,1,0.08553323149681091,-0.9777815937995911,0.17765603959560394,13.427734375,-111.572265625,32.470703125
0.3971292972564697,-1357114986,0,0.4604787826538086,-0.7791954278945923,-0.3510388731956482,63.96484375,-69.580078125,-52.30712890625
0.40429115295410156,-1357114972,1,0.09676370024681091,-0.9560530781745911,0.17155252397060394,14.70947265625,-112.24365234375,36.68212890625
0.41955018043518066,-1357114967,0,0.4590139389038086,-0.7533165216445923,-0.3532361388206482,67.19970703125,-71.2890625,-54.50439453125
0.4196510314941406,-1357114948,0,0.4499807357788086,-0.7296348810195923,-0.3363904356956482,69.03076171875,-72.8759765625,-54.50439453125
0.4443662166595459,-1357114953,1,0.07991799712181091,-0.9472640156745911,0.17985330522060394,14.95361328125,-111.99951171875,38.02490234375
0.44437313079833984,-1357114934,1,0.10115823149681091,-0.9555647969245911,0.18082986772060394,13.5498046875,-115.234375,37.65869140625
0.4500131607055664,-1357114929,0,0.4487600326538086,-0.7430626153945923,-0.3466443419456482,70.556640625,-73.91357421875,-56.21337890625
0.464277982711792,-1357114915,1,0.10652932524681091,-0.9641097187995911,0.19206033647060394,13.00048828125,-121.58203125,32.5927734375
0.4793829917907715,-1357114893,0,0.4988088607788086,-0.7379356622695923,-0.3224744200706482,76.5380859375,-77.45361328125,-56.21337890625
0.49887728691101074,-1357114879,1,0.04915628209710121,-0.9433577656745911,0.22233377397060394,18.06640625,-122.25341796875,37.9638671875
0.5122833251953125,-1357114874,0,0.5036916732788086,-0.7425743341445923,-0.3124646544456482,77.69775390625,-74.89013671875,-56.21337890625
0.5122921466827393,-1357114855,0,0.5034475326538086,-0.7340294122695923,-0.2997693419456482,79.2236328125,-74.52392578125,-59.02099609375
0.5244622230529785,-1357114860,1,0.04207620397210121,-0.9274886250495911,0.21696268022060394,23.0712890625,-121.337890625,42.90771484375
0.524550199508667,-1357114841,1,0.06111917272210121,-0.9426253437995911,0.20622049272060394,22.52197265625,-120.849609375,47.91259765625
0.5471570491790771,-1357114836,0,0.5163869857788086,-0.7184044122695923,-0.3026990294456482,80.9326171875,-76.416015625,-61.767578125
0.5552892684936523,-1357114822,1,0.5098496675491333,-1.3261702060699463,1.0765818357467651,19.1650390625,-135.55908203125,30.21240234375
0.5697500705718994,-1357114817,0,0.5488576889038086,-0.7245079278945923,-0.3129529356956482,84.16748046875,-87.46337890625,-56.45751953125
0.5699021816253662,-1357114798,0,0.6560354232788086,-0.5562950372695923,-0.2804822325706482,93.8720703125,-96.19140625,-63.232421875
0.5959270000457764,-1357114803,1,0.07210549712181091,-0.9770491719245911,0.19791971147060394,195.1904296875,-28.9306640625,-98.2666015625
0.5959343910217285,-1357114784,1,0.05696878209710121,-0.8757308125495911,0.40299785137176514,234.55810546875,-51.6357421875,-97.83935546875
0.6004302501678467,-1357114779,0,0.6250295639038086,-0.6256309747695923,-0.3393201231956482,86.7919921875,-75.62255859375,-64.453125
0.6159951686859131,-1357114765,1,-0.02384176477789879,-0.6232894062995911,0.18107400834560394,185.546875,-58.16650390625,-56.884765625
0.630974292755127,-1357114760,0,0.7029104232788086,-0.6676231622695923,-0.1728162169456482,81.54296875,-98.876953125,-38.26904296875
0.6310632228851318,-1357114741,0,0.6040334701538086,-0.5326133966445923,-0.2714490294456482,77.45361328125,-109.06982421875,-46.7529296875
0.6515991687774658,-1357114746,1,-0.6756972074508667,-0.19750814139842987,-0.49495136737823486,132.75146484375,-43.88427734375,-13.48876953125
0.6516070365905762,-1357114727,1,0.06893166899681091,-0.7629378437995911,0.5279978513717651,34.85107421875,-102.4169921875,25.5126953125
0.6602873802185059,-1357114722,0,0.7248830795288086,-0.6729942560195923,-0.2533826231956482,72.44873046875,-74.40185546875,-50.23193359375
0.6603882312774658,-1357114703,0,0.5884084701538086,-0.7372032403945923,-0.2587537169456482,73.91357421875,-66.0400390625,-10.31494140625
0.6972711086273193,-1357114684,0,1.0110158920288086,-0.8006798028945923,-0.2292127013206482,62.01171875,-68.603515625,-4.21142578125
0.7052931785583496,-1357114708,1,-0.009193327277898788,-1.0039045810699463,0.33439433574676514,21.3623046875,-40.283203125,35.58349609375
0.7054152488708496,-1357114689,1,-0.2247695028781891,-0.9694808125495911,0.6525095701217651,-7.62939453125,-34.7900390625,64.75830078125
0.7054851055145264,-1357114670,1,-0.0026015304028987885,-0.8779280781745911,0.6185740232467651,-10.55908203125,-2.685546875,88.134765625
0.7333691120147705,-1357114651,1,-0.03556051477789879,-0.8649886250495911,0.6007517576217651,-4.69970703125,15.07568359375,78.2470703125
0.7512052059173584,-1357114665,0,0.8074026107788086,-0.6405235528945923,-0.1203259825706482,50.4150390625,-52.3681640625,-5.67626953125
0.7512142658233643,-1357114629,0,0.6543264389038086,-0.7345176935195923,-0.1874646544456482,54.74853515625,-64.75830078125,4.150390625
0.7512192726135254,-1357114610,0,0.6609182357788086,-0.7508751153945923,-0.1938123106956482,55.419921875,-84.41162109375,10.31494140625
0.7642972469329834,-1357114615,1,0.1917344033718109,-0.8737776875495911,0.6593455076217651,23.37646484375,-25.69580078125,15.2587890625
0.7795813083648682,-1357114591,0,0.6762990951538086,-0.7025352716445923,-0.1508435606956482,65.4296875,-95.0927734375,12.939453125
0.7990400791168213,-1357114596,1,-0.008949186652898788,-0.8549788594245911,0.6510447263717651,-0.42724609375,-89.90478515625,23.13232421875
0.7990472316741943,-1357114577,1,0.0047226883471012115,-0.8652327656745911,0.6542185544967651,-10.43701171875,-120.54443359375,15.44189453125
0.811596155166626,-1357114572,0,0.6972951889038086,-0.7137657403945923,-0.1635388731956482,61.34033203125,-107.666015625,19.8974609375
0.8116061687469482,-1357114553,0,0.7024221420288086,-0.6725059747695923,-0.2223767638206482,63.720703125,-114.07470703125,29.11376953125
0.8262143135070801,-1357114558,1,-0.06900778412818909,-0.8815901875495911,0.5773142576217651,-1.0986328125,-139.46533203125,3.7841796875
0.8470473289489746,-1357114534,0,0.8098440170288086,-0.6988731622695923,-0.019740041345357895,71.71630859375,-137.26806640625,61.4013671875
0.854572057723999,-1357114539,1,-0.1918105185031891,-0.9692366719245911,0.45573222637176514,19.59228515625,-164.36767578125,-14.95361328125
0.854694128036499,-1357114520,1,-0.10880270600318909,-0.9299300312995911,0.46940410137176514,13.671875,-128.47900390625,13.73291015625
0.8695371150970459,-1357114515,0,0.5427541732788086,-0.6229454278945923,-0.1842908263206482,61.4013671875,-138.97705078125,96.3134765625
0.8696601390838623,-1357114496,0,0.3711233139038086,-0.5643516778945923,-0.1352185606956482,58.349609375,-124.81689453125,130.06591796875
0.8950650691986084,-1357114501,1,0.2884140908718109,-0.8837874531745911,0.21964822709560394,57.2509765625,-151.123046875,78.369140625
0.8992741107940674,-1357114477,0,0.5605764389038086,-0.6844688653945923,-0.047083791345357895,34.11865234375,-141.2353515625,200.01220703125
0.9153401851654053,-1357114482,1,-0.008460905402898788,-1.0205061435699463,0.5228708982467651,76.0498046875,-79.2236328125,163.75732421875
0.9154272079467773,-1357114463,1,-0.2496718466281891,-0.9431136250495911,0.5460642576217651,34.912109375,-64.27001953125,160.64453125
0.931037187576294,-1357114458,0,0.5530080795288086,-0.8001915216445923,-0.057825978845357895,7.8125,-135.6201171875,221.74072265625
0.9311151504516602,-1357114439,0,0.3664846420288086,-0.8724571466445923,-0.2494763731956482,-21.17919921875,-130.37109375,206.0546875
0.9514801502227783,-1357114444,1,-0.3736952841281891,-0.8774397969245911,0.5018748044967651,28.6865234375,-109.619140625,100.4638671875
0.9514880180358887,-1357114425,1,-0.2347792685031891,-0.9321272969245911,0.48698222637176514,27.16064453125,-116.39404296875,53.3447265625
0.9601931571960449,-1357114420,0,0.2951955795288086,-1.0011192560195923,-0.3390759825706482,-11.23046875,-140.5029296875,173.88916015625
0.9743452072143555,-1357114406,1,-0.2071913778781891,-0.9484847187995911,0.40812480449676514,27.40478515625,-107.84912109375,59.26513671875
0.9966609477996826,-1357114401,0,0.3386526107788086,-1.0514122247695923,-0.2799939513206482,10.25390625,-147.8271484375,147.03369140625
1.0051581859588623,-1357114387,1,-0.2557753622531891,-0.9050276875495911,0.41935527324676514,26.55029296875,-113.525390625,58.837890625
1.0196223258972168,-1357114365,0,0.3933401107788086,-1.1366173028945923,-0.054163869470357895,7.75146484375,-79.77294921875,72.32666015625
1.0196442604064941,-1357114346,0,0.2478323131799698,-1.2101036310195923,-0.1811169981956482,-1.220703125,-59.814453125,62.01171875
1.046363115310669,-1357114351,1,-0.2193984091281891,-0.8706038594245911,0.5336130857467651,13.7939453125,-140.19775390625,44.5556640625
1.046370029449463,-1357114332,1,-0.2606581747531891,-0.9011214375495911,0.5560740232467651,14.70947265625,-145.32470703125,48.03466796875
1.0521903038024902,-1357114327,0,0.1894827038049698,-1.1275840997695923,-0.1947888731956482,9.21630859375,-79.28466796875,78.2470703125
1.065068006515503,-1357114313,1,-0.3014296591281891,-0.9150374531745911,0.5211619138717651,22.8271484375,-160.64453125,57.18994140625
1.0803451538085938,-1357114308,0,0.2263479381799698,-1.0748497247695923,-0.0678357481956482,22.76611328125,-102.1728515625,81.72607421875
1.080402135848999,-1357114289,0,0.1889944225549698,-1.0643516778945923,0.055211130529642105,30.57861328125,-93.75,63.96484375
1.1000771522521973,-1357114294,1,-0.3026503622531891,-0.9184554219245911,0.49772441387176514,16.9677734375,-169.25048828125,58.7158203125
1.100083351135254,-1357114275,1,-0.2643202841281891,-0.8764632344245911,0.5345896482467651,12.87841796875,-171.08154296875,47.30224609375
1.11244797706604,-1357114270,0,0.06497098505496979,-1.0758262872695923,0.006627146154642105,17.39501953125,-82.33642578125,74.40185546875
1.1262712478637695,-1357114256,1,-0.2626112997531891,-0.9179671406745911,0.5756052732467651,4.7607421875,-173.2177734375,49.1943359375
1.1479213237762451,-1357114251,0,-0.1469430774450302,-1.3324180841445923,-0.1962537169456482,32.5927734375,-129.33349609375,106.0791015625
1.1485650539398193,-1357114232,0,-0.2048044055700302,-1.3438926935195923,-0.2675427794456482,75.5615234375,-247.61962890625,169.73876953125
1.156233310699463,-1357114237,1,-0.1766737997531891,-1.0251448154449463,0.6713083982467651,11.04736328125,-171.2646484375,72.509765625
1.1563613414764404,-1357114218,1,-0.1998671591281891,-0.9548323750495911,0.6293162107467651,23.86474609375,-152.9541015625,98.6328125
1.1702630519866943,-1357114213,0,0.1872854381799698,-1.2130333185195923,0.048619333654642105,100.76904296875,-258.97216796875,231.0791015625
1.170370101928711,-1357114194,0,-0.05514620244503021,-0.9730430841445923,0.1682482361793518,70.37353515625,-84.77783203125,213.5009765625
1.1846923828125,-1357114199,1,-0.1639784872531891,-0.9096663594245911,0.5809763669967651,40.283203125,-160.400390625,100.09765625
1.2007102966308594,-1357114175,0,-0.3019723892211914,-0.9935508966445923,0.1597033143043518,41.68701171875,-48.7060546875,150.32958984375
1.2155210971832275,-1357114180,1,-0.1793593466281891,-0.9147933125495911,0.5155466794967651,35.400390625,-163.75732421875,85.63232421875
1.215651035308838,-1357114161,1,-0.05020895227789879,-0.8859847187995911,0.5751169919967651,30.6396484375,-165.0390625,62.80517578125
1.2294621467590332,-1357114156,0,-0.2907419204711914,-0.9854942560195923,0.1062365174293518,34.7900390625,-66.7724609375,122.55859375
1.229534387588501,-1357114137,0,-0.3945016860961914,-0.9478965997695923,0.1587267518043518,8.36181640625,-67.87109375,138.24462890625
1.2734692096710205,-1357114142,1,0.08577737212181091,-0.8520491719245911,0.5909861326217651,33.14208984375,-142.333984375,54.62646484375
1.2747483253479004,-1357114123,1,0.10384377837181091,-0.7958968281745911,0.5716990232467651,37.78076171875,-89.17236328125,63.1103515625
1.2962062358856201,-1357114101,0,-0.8852243423461914,-0.8648887872695923,0.0647326111793518,8.9111328125,-13.48876953125,27.587890625
1.2962141036987305,-1357114082,0,-0.1435251086950302,-0.9305626153945923,-0.027308400720357895,49.98779296875,2.0751953125,-127.197265625
1.3048770427703857,-1357114087,1,0.07112893462181091,-0.6987288594245911,0.5529001951217651,20.3857421875,-90.8203125,53.466796875
1.3049170970916748,-1357114068,1,0.1368027627468109,-0.7192366719245911,0.5641306638717651,11.90185546875,-95.458984375,36.43798828125
1.31986403465271,-1357114063,0,-0.3891305923461914,-0.7201133966445923,-0.043665822595357895,85.693359375,42.41943359375,-162.29248046875
1.3199872970581055,-1357114044,0,-0.4784860610961914,-0.5833946466445923,0.2195177674293518,101.50146484375,43.212890625,-128.23486328125
1.345635175704956,-1357114049,1,0.2547226846218109,-0.7629378437995911,0.5550974607467651,15.93017578125,-80.87158203125,33.8134765625
1.34564208984375,-1357114030,1,0.2742539346218109,-0.7314437031745911,0.5228708982467651,24.10888671875,-44.25048828125,43.45703125
1.3518610000610352,-1357114025,0,-0.6469430923461914,-0.5152794122695923,0.2993517518043518,36.4990234375,-31.6162109375,-81.72607421875
1.364319086074829,-1357114011,1,0.1753769814968109,-0.6611312031745911,0.5641306638717651,15.9912109375,-29.296875,42.6025390625
1.3795320987701416,-1357114006,0,-0.5290231704711914,-0.7318321466445923,0.0730333924293518,-45.59326171875,-95.88623046875,-57.12890625
1.3796353340148926,-1357113987,0,-0.3390817642211914,-0.9979454278945923,0.0947619080543518,-33.38623046875,-86.36474609375,-80.4443359375
1.399092197418213,-1357113992,1,0.1839219033718109,-0.7402327656745911,0.5963572263717651,-4.45556640625,-45.47119140625,27.03857421875
1.3990991115570068,-1357113973,1,0.2376328408718109,-0.9143050312995911,0.5980662107467651,-2.99072265625,-35.70556640625,27.34375
1.409961223602295,-1357113968,0,-0.2414254993200302,-1.0956016778945923,0.0715685486793518,5.126953125,-68.54248046875,-94.6044921875
1.4246351718902588,-1357113954,1,0.2083359658718109,-0.9182112812995911,0.6486033201217651,28.4423828125,-11.962890625,28.13720703125
1.448486328125,-1357113949,0,-0.3344430923461914,-0.9447227716445923,0.1640978455543518,5.4931640625,-30.33447265625,-69.88525390625
1.4484941959381104,-1357113930,0,-0.3630075454711914,-0.8365684747695923,0.3130236268043518,-10.43701171875,-49.62158203125,-21.42333984375
1.4560530185699463,-1357113935,1,0.1678086221218109,-0.7853987812995911,0.6825388669967651,57.861328125,2.8076171875,5.2490234375
1.4561700820922852,-1357113916,1,0.1377793252468109,-0.7668440937995911,0.7113474607467651,52.3681640625,3.35693359375,-12.3291015625
1.471095085144043,-1357113911,0,-0.3459177017211914,-0.8631798028945923,0.2739611268043518,-39.6728515625,-88.68408203125,4.0283203125
1.4711673259735107,-1357113892,0,-0.2367868274450302,-0.9647423028945923,0.1238146424293518,-66.162109375,-98.5107421875,15.869140625
1.4844951629638672,-1357113897,1,0.10945901274681091,-0.8039534687995911,0.6166208982467651,43.51806640625,1.5869140625,-19.04296875
1.5005221366882324,-1357113873,0,-1.3486032485961914,-0.7650352716445923,0.6785021424293518,-84.41162109375,-146.97265625,37.7197265625
1.5161001682281494,-1357113878,1,0.2251816689968109,-0.7111800312995911,0.5590037107467651,59.38720703125,21.3623046875,-3.0517578125
1.5162432193756104,-1357113859,1,0.1770859658718109,-0.7763655781745911,0.5612009763717651,49.37744140625,58.9599609375,19.1650390625
1.5304572582244873,-1357113837,0,-0.4233102798461914,-0.8526817560195923,0.061558786779642105,-35.70556640625,-87.34130859375,-74.462890625
1.5518882274627686,-1357113823,1,-0.02848043665289879,-0.7590315937995911,0.6764353513717651,33.38623046875,42.3583984375,15.13671875
1.5609872341156006,-1357113818,0,-0.2651071548461914,-0.9474083185195923,0.1887560486793518,-1.03759765625,-71.044921875,-84.3505859375
1.5778002738952637,-1357113804,1,-0.1361464560031891,-0.6987288594245911,0.7455271482467651,35.64453125,15.68603515625,20.32470703125
1.5975711345672607,-1357113799,0,-0.2983102798461914,-0.9232383966445923,0.1186876893043518,33.0810546875,-72.509765625,-69.03076171875
1.597579002380371,-1357113780,0,-0.1752633899450302,-0.9696251153945923,0.0932970643043518,65.4296875,-51.08642578125,-58.28857421875
1.6061220169067383,-1357113785,1,0.08797463774681091,-0.7407210469245911,0.8226755857467651,30.1513671875,13.7939453125,11.474609375
1.6062021255493164,-1357113766,1,-0.1271132528781891,-0.8371565937995911,0.5726755857467651,29.9072265625,51.69677734375,17.9443359375
1.6205041408538818,-1357113761,0,-0.2436227649450302,-0.8827110528945923,0.2175646424293518,72.32666015625,-57.861328125,-60.11962890625
1.6205761432647705,-1357113742,0,-0.3258981704711914,-0.8978477716445923,0.1960802674293518,59.326171875,-94.54345703125,-73.486328125
1.6343190670013428,-1357113747,1,0.12166604399681091,-0.6950667500495911,0.6451853513717651,39.794921875,17.578125,30.82275390625
1.6515352725982666,-1357113723,0,-0.3266305923461914,-0.8495079278945923,0.2380724549293518,27.34375,-92.10205078125,-92.28515625
1.6660261154174805,-1357113728,1,0.0066758133471012115,-0.8544905781745911,0.5919626951217651,42.6025390625,31.1279296875,62.92724609375
1.681152105331421,-1357113704,0,-0.2306833118200302,-0.6468712091445923,0.1894884705543518,-8.4228515625,-69.7021484375,-59.50927734375
1.6811692714691162,-1357113685,0,-0.0036325305700302124,-0.7113243341445923,0.0906115174293518,-44.7998046875,-10.009765625,-18.12744140625
1.6996221542358398,-1357113709,1,-0.12223044037818909,-0.7980940937995911,0.6661814451217651,56.15234375,30.8837890625,105.1025390625
1.6996290683746338,-1357113690,1,-0.2840956747531891,-0.6972640156745911,0.6876658201217651,64.3310546875,9.58251953125,134.3994140625
1.699634313583374,-1357113671,1,-0.1620253622531891,-0.5082991719245911,0.7057322263717651,73.66943359375,-49.072265625,118.896484375
1.712839126586914,-1357113666,0,0.1496877819299698,-0.8109337091445923,-0.050745900720357895,-89.4775390625,15.31982421875,-36.7431640625
1.7247700691223145,-1357113652,1,-0.1781386435031891,-0.44238120317459106,0.6798533201217651,63.4765625,-89.599609375,69.64111328125
1.7483282089233398,-1357113647,0,0.1748342663049698,-0.8272911310195923,-0.0644177794456482,-131.89697265625,23.13232421875,-95.39794921875
1.748340368270874,-1357113628,0,-0.03659151494503021,-0.9662071466445923,0.048863474279642105,-170.0439453125,6.16455078125,-120.78857421875
1.7548820972442627,-1357113633,1,-0.09146872162818909,-0.46655112504959106,0.6791208982467651,38.57421875,-138.427734375,48.76708984375
1.7549622058868408,-1357113614,1,0.1687851846218109,-0.5610335469245911,0.7247751951217651,-4.45556640625,-158.75244140625,28.50341796875
1.7835612297058105,-1357113595,1,0.3035508096218109,-0.7499983906745911,0.8070505857467651,-13.48876953125,-124.755859375,-0.30517578125
1.7995970249176025,-1357113609,0,0.05813504755496979,-1.1622520685195923,0.1262560486793518,-140.625,2.86865234375,-30.57861328125
1.7996940612792969,-1357113573,0,0.2732229232788086,-1.0880333185195923,0.031529489904642105,-38.818359375,43.15185546875,162.4755859375
1.8144283294677734,-1357113559,1,0.03450784459710121,-0.6706526875495911,0.8636912107467651,-10.43701171875,-78.9794921875,-1.64794921875
1.8295402526855469,-1357113554,0,0.4441213607788086,-1.2638145685195923,-0.010218556970357895,7.32421875,-15.07568359375,178.466796875
1.829632043838501,-1357113535,0,0.2649221420288086,-1.1124473810195923,-0.2914685606956482,24.96337890625,-16.4794921875,77.2705078125
1.8507442474365234,-1357113540,1,0.1783066689968109,-0.6303694844245911,0.9257029294967651,-13.3056640625,-104.3701171875,50.048828125
1.8507530689239502,-1357113521,1,0.3640976846218109,-0.6140120625495911,0.9115427732467651,-10.55908203125,-88.8671875,57.18994140625
1.8610811233520508,-1357113516,0,-0.007050499320030212,-0.8778282403945923,0.024937693029642105,23.0712890625,8.11767578125,61.21826171875
1.8758482933044434,-1357113502,1,0.4417344033718109,-0.5642073750495911,0.8514841794967651,-10.986328125,-48.7060546875,33.8134765625
1.8965413570404053,-1357113497,0,0.019316688179969788,-0.7481895685195923,-0.1010388731956482,13.85498046875,9.033203125,70.00732421875
1.8965492248535156,-1357113478,0,0.08157254755496979,-1.0299278497695923,-0.044642385095357895,-7.50732421875,13.00048828125,49.8046875
1.9045321941375732,-1357113483,1,0.3494492471218109,-0.5290511250495911,0.9293650388717651,-28.13720703125,-29.541015625,-21.1181640625
1.9046320915222168,-1357113464,1,0.2815781533718109,-0.5734847187995911,0.8971384763717651,-37.17041015625,-57.80029296875,-64.0869140625
1.9197633266448975,-1357113459,0,-0.03903292119503021,-1.3055626153945923,0.058629099279642105,-16.2353515625,15.0146484375,39.794921875
1.9342610836029053,-1357113445,1,0.2930527627468109,-0.5397933125495911,0.8280466794967651,-42.1142578125,-68.2373046875,-62.80517578125
1.9524900913238525,-1357113440,0,-0.014374718070030212,-1.2838340997695923,-0.048792775720357895,14.16015625,18.6767578125,44.86083984375
1.9525671005249023,-1357113421,0,-0.12033174932003021,-1.4727989435195923,0.4492540955543518,51.81884765625,39.4287109375,3.23486328125
1.96608304977417,-1357113426,1,0.5679551362991333,-0.5993636250495911,1.0499705076217651,-27.03857421875,-46.93603515625,-46.875
1.9661571979522705,-1357113407,1,0.3594590127468109,-0.6479476094245911,0.7616404294967651,7.38525390625,29.1748046875,-36.2548828125
1.981053352355957,-1357113402,0,-0.3459177017211914,-1.1927696466445923,0.1689806580543518,227.4169921875,5.2490234375,-12.26806640625
1.9811503887176514,-1357113383,0,-0.2272653430700302,-1.0814415216445923,0.1975451111793518,298.2177734375,-106.26220703125,-34.912109375
1.9994771480560303,-1357113388,1,0.10018166899681091,-0.5539534687995911,0.8487986326217651,1.89208984375,70.3125,-14.6484375
1.9994852542877197,-1357113369,1,-0.07022848725318909,-0.5878890156745911,0.8407419919967651,-23.01025390625,58.28857421875,1.77001953125
2.0104403495788574,-1357113364,0,-0.06857393682003021,-0.9593712091445923,0.1921740174293518,266.2353515625,-119.62890625,-79.833984375
2.0261430740356445,-1357113350,1,0.05330667272210121,-0.5624983906745911,0.9767283201217651,-55.23681640625,78.55224609375,30.029296875
2.0469810962677,-1357113345,0,0.09182645380496979,-0.8375450372695923,0.6323595643043518,216.00341796875,118.7744140625,-149.96337890625
2.0559632778167725,-1357113331,1,0.2525254189968109,-0.5622542500495911,1.1222361326217651,-40.95458984375,129.82177734375,10.498046875
2.071000099182129,-1357113309,0,-0.3434762954711914,-0.9271446466445923,0.4958849549293518,62.5,204.52880859375,-127.197265625
2.0973002910614014,-1357113295,1,-0.1808241903781891,-0.7927230000495911,1.0599802732467651,8.9111328125,59.50927734375,-17.76123046875
2.101518154144287,-1357113290,0,-0.2387399524450302,-0.7206016778945923,0.6304064393043518,28.62548828125,246.4599609375,-144.1650390625
2.1015260219573975,-1357113271,0,-0.11618135869503021,-0.9706016778945923,0.5544787049293518,35.64453125,360.29052734375,-283.0810546875
2.114682197570801,-1357113276,1,-0.06436911225318909,-0.8139632344245911,1.0160349607467651,21.6064453125,38.14697265625,-37.65869140625
2.1147241592407227,-1357113257,1,0.04256448522210121,-0.8906233906745911,1.0028513669967651,28.74755859375,36.62109375,-50.048828125
2.1298251152038574,-1357113252,0,-0.1379098743200302,-0.8316856622695923,0.4648790955543518,5.79833984375,145.01953125,-340.576171875
2.1299221515655518,-1357113233,0,-0.10153292119503021,-0.6937462091445923,0.3318224549293518,14.6484375,103.45458984375,-429.0771484375
2.1500253677368164,-1357113238,1,-0.05362692102789879,-0.7463362812995911,0.9383982419967651,40.83251953125,45.22705078125,-54.26025390625
2.1597931385040283,-1357113214,0,-0.11471651494503021,-0.6402794122695923,0.2351427674293518,32.958984375,34.97314453125,-446.71630859375
2.174408197402954,-1357113219,1,-0.1302870810031891,-0.6696761250495911,0.9078806638717651,41.3818359375,46.142578125,-57.6171875
2.17450213432312,-1357113200,1,-0.03433981165289879,-0.6577132344245911,0.9159373044967651,35.5224609375,49.31640625,-33.50830078125
2.1971282958984375,-1357113195,0,0.2029104381799698,-0.8477989435195923,0.3977404236793518,44.677734375,-30.94482421875,-403.564453125
2.197136163711548,-1357113176,0,0.4826955795288086,-0.6231895685195923,0.4700060486793518,38.26904296875,-102.11181640625,-318.54248046875
2.204524040222168,-1357113181,1,-0.09757223725318909,-0.6442855000495911,0.8531931638717651,38.4521484375,61.767578125,-19.775390625
2.204604148864746,-1357113162,1,-0.1417616903781891,-0.6398909687995911,0.7909373044967651,43.02978515625,56.0302734375,-24.90234375
2.219839334487915,-1357113157,0,0.8242483139038086,-0.3966270685195923,0.3469591736793518,33.203125,-74.21875,-226.01318359375
2.2344162464141846,-1357113143,1,-0.12345114350318909,-0.5551741719245911,0.7819041013717651,49.37744140625,50.78125,-24.59716796875
2.2514421939849854,-1357113138,0,0.6496877670288086,-0.3675743341445923,0.4023790955543518,24.169921875,54.87060546875,-150.7568359375
2.2514491081237793,-1357113119,0,0.2624807357788086,-0.5174766778945923,0.5105333924293518,22.705078125,89.78271484375,-37.4755859375
2.2644920349121094,-1357113124,1,-0.1254042685031891,-0.5097640156745911,0.7408884763717651,43.9453125,45.0439453125,-13.00048828125
2.2645931243896484,-1357113105,1,0.02889261022210121,-0.5266097187995911,0.6925486326217651,41.748046875,29.296875,-4.150390625
2.2793593406677246,-1357113100,0,0.3479299545288086,-0.6322227716445923,0.6645861268043518,43.8232421875,14.70947265625,85.38818359375
2.309765100479126,-1357113081,0,0.5359182357788086,-0.6927696466445923,0.7554064393043518,72.57080078125,-10.19287109375,135.80322265625
2.324620008468628,-1357113086,1,0.2871933877468109,-0.5285628437995911,0.6776560544967651,42.236328125,39.55078125,3.11279296875
2.3247132301330566,-1357113067,1,0.3155137002468109,-0.6040022969245911,0.6586130857467651,39.9169921875,79.1015625,6.40869140625
2.3472771644592285,-1357113045,0,0.2043752819299698,-0.7518516778945923,0.9722033143043518,34.85107421875,198.6083984375,233.7646484375
2.347285032272339,-1357113026,0,0.5188283920288086,-0.9061485528945923,1.0054064989089966,-30.6396484375,-19.04296875,163.57421875
2.3546621799468994,-1357113031,1,-0.2237929403781891,-0.6657698750495911,0.6988962888717651,28.3203125,96.19140625,-18.00537109375
2.3547770977020264,-1357113012,1,-0.4772109091281891,-0.5656722187995911,0.8558787107467651,30.1513671875,78.06396484375,6.04248046875
2.3693082332611084,-1357113007,0,0.6704397201538086,-0.8519493341445923,0.7156115174293518,-3.60107421875,118.34716796875,-49.072265625
2.384298086166382,-1357112993,1,-0.4911269247531891,-0.5617659687995911,1.0453318357467651,13.427734375,91.61376953125,51.6357421875
2.3998520374298096,-1357112988,0,0.7995901107788086,-0.8040977716445923,0.4744005799293518,50.84228515625,62.01171875,-195.37353515625
2.399860382080078,-1357112969,0,0.8203420639038086,-0.7994590997695923,0.7952013611793518,100.89111328125,37.109375,-242.12646484375
2.4145121574401855,-1357112974,1,-0.6075819730758667,-0.7080062031745911,0.9318064451217651,11.29150390625,88.43994140625,78.0029296875
2.4146130084991455,-1357112955,1,-0.6576308012008667,-0.7216780781745911,0.8780955076217651,37.04833984375,44.61669921875,63.4765625
2.4292831420898438,-1357112950,0,0.8938283920288086,-0.8807579278945923,0.9267931580543518,138.85498046875,75.25634765625,-207.45849609375
2.451364278793335,-1357112936,1,-0.5741347074508667,-0.6352522969245911,0.9039744138717651,47.4853515625,52.1240234375,18.73779296875
2.4597790241241455,-1357112931,0,0.8762502670288086,-0.6776329278945923,0.9949083924293518,140.5029296875,109.68017578125,-118.0419921875
2.459882974624634,-1357112912,0,0.9502248764038086,-0.5565391778945923,0.8537951111793518,109.375,101.98974609375,-58.65478515625
2.4745023250579834,-1357112917,1,-0.6393202543258667,-0.5935042500495911,0.8321970701217651,67.5048828125,71.1669921875,31.06689453125
2.4745280742645264,-1357112898,1,-0.5336073637008667,-0.5429671406745911,0.8063181638717651,86.97509765625,65.85693359375,59.14306640625
2.498218059539795,-1357112893,0,0.7422170639038086,-0.5235801935195923,0.7546740174293518,53.89404296875,102.4169921875,-17.333984375
2.498225212097168,-1357112874,0,0.6360158920288086,-0.8231407403945923,0.8786974549293518,70.49560546875,72.75390625,-11.1083984375
2.5045671463012695,-1357112879,1,-0.2401503622531891,-0.5305159687995911,0.9071482419967651,115.3564453125,122.0703125,37.41455078125
2.5046451091766357,-1357112860,1,-0.3937148153781891,-0.6093733906745911,0.7264841794967651,139.2822265625,177.30712890625,52.978515625
2.5194201469421387,-1357112855,0,0.6777639389038086,-0.7931114435195923,0.8511095643043518,97.59521484375,96.13037109375,-75.439453125
2.5458731651306152,-1357112841,1,-0.5001600980758667,-0.36083823442459106,0.7628611326217651,138.97705078125,161.56005859375,48.40087890625
2.5502102375030518,-1357112836,0,0.5930471420288086,-0.5294395685195923,0.9153185486793518,99.30419921875,170.34912109375,-134.09423828125
2.550217390060425,-1357112817,0,0.7680959701538086,0.006693258881568909,0.5410509705543518,103.57666015625,220.39794921875,-301.81884765625
2.5662362575531006,-1357112822,1,-0.6224745512008667,-0.26977378129959106,0.7526072263717651,111.2060546875,117.919921875,38.57421875
2.566340208053589,-1357112803,1,-0.4159316122531891,-0.24804525077342987,0.9051951169967651,79.04052734375,68.2373046875,48.76708984375
2.6105761528015137,-1357112781,0,-0.12374971807003021,0.08017958700656891,0.6465197205543518,50.84228515625,168.9453125,-105.28564453125
2.6105852127075195,-1357112762,0,0.1767873913049698,0.10679091513156891,0.8918810486793518,26.123046875,108.7646484375,5.18798828125
2.6245951652526855,-1357112767,1,-0.4095839560031891,-0.40405112504959106,0.8204783201217651,104.00390625,137.87841796875,86.3037109375
2.6246540546417236,-1357112748,1,-0.5753554105758667,-0.13989095389842987,0.6749705076217651,115.05126953125,168.3349609375,108.33740234375
2.6478431224823,-1357112743,0,0.1567678600549698,-0.1886192411184311,0.9993029236793518,3.90625,116.51611328125,-34.72900390625
2.648482084274292,-1357112724,0,0.1604299694299698,-0.3321739435195923,0.9162951111793518,-0.79345703125,202.20947265625,-110.41259765625
2.656163215637207,-1357112729,1,-0.5939100980758667,-0.16235189139842987,0.7518748044967651,115.05126953125,118.2861328125,89.53857421875
2.6562442779541016,-1357112710,1,-0.6002577543258667,-0.20751790702342987,0.7545603513717651,106.62841796875,107.2998046875,85.3271484375
2.670924186706543,-1357112705,0,0.04226590692996979,-0.08510361611843109,0.8164415955543518,21.240234375,169.00634765625,-112.60986328125
2.6978962421417236,-1357112691,1,-0.6771620512008667,-0.08227376639842987,0.6661814451217651,107.72705078125,93.07861328125,95.21484375
2.7019922733306885,-1357112686,0,0.1855764538049698,-0.2845665216445923,0.7270861268043518,65.00244140625,66.46728515625,-8.36181640625
2.7019991874694824,-1357112667,0,-0.08590792119503021,-0.3929649591445923,0.9421740174293518,103.1494140625,23.25439453125,59.87548828125
2.7146172523498535,-1357112672,1,-0.7176893949508667,0.05078287050127983,0.6766794919967651,79.58984375,61.6455078125,92.59033203125
2.7146999835968018,-1357112653,1,-0.7311171293258667,-0.03271322324872017,0.6918162107467651,47.36328125,20.263671875,63.4765625
2.7293760776519775,-1357112648,0,-0.020234093070030212,-0.2503868341445923,1.1055041551589966,108.0322265625,-2.8076171875,66.71142578125
2.7500972747802734,-1357112634,1,-0.6468886137008667,-0.08178548514842987,0.6571482419967651,39.24560546875,7.9345703125,41.68701171875
2.7596981525421143,-1357112629,0,-0.05441378057003021,-0.2130333036184311,1.1836291551589966,87.2802734375,7.6904296875,50.6591796875
2.759718179702759,-1357112610,0,0.08059598505496979,-0.3060508966445923,1.0730334520339966,78.43017578125,7.9345703125,32.28759765625
2.7752702236175537,-1357112615,1,-0.6193007230758667,0.08007974922657013,0.5594919919967651,54.01611328125,26.3671875,61.95068359375
2.77537202835083,-1357112596,1,-0.7770155668258667,0.12915201485157013,0.6588572263717651,41.259765625,23.0712890625,69.03076171875
2.7972421646118164,-1357112591,0,0.10378934442996979,-0.08852158486843109,0.9634142518043518,91.36962890625,23.01025390625,15.31982421875
2.7972500324249268,-1357112572,0,0.1736135631799698,-0.04286728799343109,0.9907580018043518,102.35595703125,9.27734375,43.701171875
2.833543300628662,-1357112577,1,-0.7814100980758667,0.16211099922657013,0.6825388669967651,21.484375,2.44140625,45.654296875
2.84543514251709,-1357112558,1,-0.8153456449508667,0.16162271797657013,0.7379587888717651,-2.99072265625,-24.658203125,33.14208984375
2.845442056655884,-1357112539,1,-0.7401503324508667,0.13818521797657013,0.7154978513717651,-14.892578125,-33.3251953125,24.658203125
2.8512442111968994,-1357112553,0,0.03494168817996979,0.015238180756568909,1.1286975145339966,90.51513671875,10.92529296875,57.9833984375
2.851252317428589,-1357112517,0,-0.09542940557003021,0.04941786825656891,1.0871936082839966,89.29443359375,-35.64453125,60.4248046875
2.8643293380737305,-1357112503,1,-0.7638319730758667,0.09228678047657013,0.6876658201217651,7.50732421875,-38.330078125,17.02880859375
2.8799192905426025,-1357112498,0,0.07620145380496979,0.10337294638156891,1.0420275926589966,88.8671875,-60.1806640625,61.82861328125
2.8990252017974854,-1357112484,1,-0.7916640043258667,0.17260904610157013,0.8090037107467651,7.01904296875,-53.77197265625,28.74755859375
2.909661293029785,-1357112479,0,0.04861356317996979,0.1722206026315689,1.1243029832839966,85.205078125,-40.46630859375,51.513671875
2.9097511768341064,-1357112460,0,0.1328420788049698,0.2818397283554077,0.7529650330543518,72.20458984375,-10.25390625,50.1708984375
2.925408124923706,-1357112465,1,-0.8683241605758667,0.17553873360157013,0.7015818357467651,6.04248046875,-50.72021484375,85.5712890625
2.925506114959717,-1357112446,1,-0.4696425497531891,0.07495279610157013,0.6991404294967651,42.724609375,-71.044921875,28.62548828125
2.947017192840576,-1357112441,0,-0.0031442493200302124,0.1607459932565689,1.0071154832839966,50.1708984375,-28.74755859375,5.55419921875
2.9545180797576904,-1357112427,1,-0.8253554105758667,0.15820474922657013,0.7779978513717651,46.0205078125,-75.62255859375,-13.12255859375
2.9695422649383545,-1357112422,0,-0.021698936820030212,0.2256873995065689,1.2556506395339966,21.1181640625,-74.40185546875,14.70947265625
2.969663381576538,-1357112403,0,0.2554006576538086,0.2911170721054077,1.0881701707839966,-8.60595703125,-118.2861328125,56.396484375
2.995622158050537,-1357112408,1,-0.6171034574508667,0.28296059370040894,1.0065134763717651,9.09423828125,-62.5,-21.30126953125
2.9997191429138184,-1357112384,0,0.2385549694299698,0.08164443075656891,1.2512561082839966,-64.5751953125,0.30517578125,47.79052734375
2.9997823238372803,-1357112365,0,-0.09030245244503021,-0.09071885049343109,1.2458850145339966,-104.6142578125,-19.83642578125,110.65673828125
3.0154380798339844,-1357112389,1,-0.4261855185031891,0.06250162422657013,0.9259470701217651,-3.173828125,-52.30712890625,-27.587890625
3.015583038330078,-1357112370,1,-0.8275526762008667,0.20727701485157013,0.8373240232467651,9.09423828125,-89.4775390625,-36.1328125
3.0294442176818848,-1357112346,0,0.12429715692996979,-0.2733360528945923,0.9734240174293518,-109.06982421875,-17.333984375,146.05712890625
3.059439182281494,-1357112327,0,-0.023163780570030212,-0.2049766629934311,0.8872423768043518,-106.201171875,47.79052734375,99.18212890625
3.0610852241516113,-1357112308,0,-0.1515817493200302,-0.06337510049343109,0.7151232361793518,-59.87548828125,71.4111328125,-29.78515625
3.0751712322235107,-1357112351,1,-0.7579725980758667,0.20312662422657013,0.7865427732467651,-22.705078125,-138.5498046875,-43.51806640625
3.075228214263916,-1357112332,1,-0.2403945028781891,0.06176919862627983,0.8859080076217651,-55.23681640625,-172.30224609375,-73.54736328125
3.079916000366211,-1357112313,1,0.1824570596218109,0.19336099922657013,0.9647654294967651,-17.63916015625,-207.1533203125,-89.90478515625
3.0799243450164795,-1357112294,1,-1.0734022855758667,0.34936684370040894,0.20426736772060394,-48.27880859375,-126.46484375,-31.6162109375
3.096987247467041,-1357112289,0,0.0034475475549697876,-0.008931741118431091,0.8418322205543518,-3.41796875,-46.142578125,22.76611328125
3.1060242652893066,-1357112275,1,-0.2855605185031891,0.29248207807540894,0.8434275388717651,-98.7548828125,-229.98046875,-54.62646484375
3.1195552349090576,-1357112253,0,0.1462698131799698,0.03183974325656891,0.8835802674293518,2.50244140625,11.962890625,-56.0302734375
3.1344001293182373,-1357112239,1,0.02962503209710121,-0.011961270123720169,0.8575876951217651,-123.4130859375,-230.40771484375,-43.212890625
3.153682231903076,-1357112234,0,0.3225393295288086,-0.07167588174343109,0.7615099549293518,15.869140625,12.02392578125,-82.275390625
3.153691291809082,-1357112215,0,0.2829885482788086,0.11460341513156891,0.7502794861793518,25.93994140625,-18.61572265625,-72.20458984375
3.166269302368164,-1357112220,1,-0.0033339522778987885,-0.03784017637372017,1.0184763669967651,-115.966796875,-144.8974609375,-55.11474609375
3.1664633750915527,-1357112201,1,-0.5189589262008667,-0.45165854692459106,1.1857126951217651,-126.5869140625,-42.66357421875,-92.041015625
3.181119203567505,-1357112196,0,0.2739553451538086,-0.01625595986843109,0.8733263611793518,-15.68603515625,7.62939453125,-69.4580078125
3.2004411220550537,-1357112182,1,-0.2233046591281891,-0.5644515156745911,1.2775095701217651,-86.42578125,-105.3466796875,-91.6748046875
3.211240291595459,-1357112177,0,0.2348928600549698,-0.1253868192434311,0.8323107361793518,-56.5185546875,40.4052734375,-74.64599609375
3.211332082748413,-1357112158,0,0.2180471569299698,0.00010146200656890869,0.7024279236793518,-39.306640625,-28.50341796875,2.5634765625
3.2244930267333984,-1357112163,1,-0.2506484091281891,-0.35742026567459106,1.0819529294967651,-36.92626953125,-46.7529296875,7.26318359375
3.2245261669158936,-1357112144,1,0.1800156533718109,-0.20947103202342987,0.8387888669967651,57.6171875,-13.427734375,20.56884765625
3.2469701766967773,-1357112139,0,0.2002248913049698,0.2886756658554077,0.6897326111793518,-57.0068359375,-27.64892578125,3.662109375
3.2687571048736572,-1357112120,0,0.4497365951538086,-0.2931114435195923,0.7881212830543518,-140.68603515625,-64.63623046875,-66.2841796875
3.269685983657837,-1357112101,0,0.1745901256799698,-0.4022423028945923,1.3017932176589966,-200.62255859375,-31.18896484375,-53.03955078125
3.295058250427246,-1357112125,1,-0.08731833100318909,-0.04760580137372017,1.1041697263717651,77.69775390625,19.71435546875,1.28173828125
3.2995240688323975,-1357112082,0,0.3955373764038086,-0.1676231473684311,0.9582872986793518,-198.6083984375,9.94873046875,29.23583984375
3.299626111984253,-1357112063,0,0.4206838607788086,-0.2240196317434311,0.8467150330543518,-192.9931640625,6.40869140625,68.603515625
3.314516305923462,-1357112106,1,-0.3143691122531891,0.011232089251279831,1.0345896482467651,62.80517578125,-36.92626953125,-32.65380859375
3.3146872520446777,-1357112087,1,-0.5502089262008667,0.04199380800127983,0.9786814451217651,44.00634765625,-135.3759765625,-50.048828125
3.316235065460205,-1357112068,1,-0.3475722372531891,-0.44579917192459106,0.8807810544967651,69.15283203125,-246.76513671875,-74.3408203125
3.316305160522461,-1357112049,1,0.1419297158718109,0.29492348432540894,0.8143748044967651,81.6650390625,-128.7841796875,17.9443359375
3.329348087310791,-1357112044,0,0.4104299545288086,-0.2018028348684311,0.7412462830543518,-237.060546875,31.005859375,37.90283203125
3.3498141765594482,-1357112030,1,-0.2086562216281891,0.23608560860157013,0.9259470701217651,100.830078125,-97.16796875,77.20947265625
3.3595082759857178,-1357112025,0,0.2517385482788086,-0.4911094903945923,0.8904162049293518,-304.74853515625,102.47802734375,13.85498046875
3.374296188354492,-1357112011,1,-0.4313124716281891,-0.28051596879959106,0.9659861326217651,53.28369140625,-15.13671875,211.48681640625
3.3982062339782715,-1357111989,0,0.06326200067996979,-0.7059532403945923,0.6941271424293518,-384.33837890625,209.04541015625,159.85107421875
3.4047060012817383,-1357111975,1,0.2386094033718109,0.004152011126279831,1.0768259763717651,-90.9423828125,-59.99755859375,106.93359375
3.4196722507476807,-1357111970,0,-0.025605186820030212,-0.8346153497695923,0.6391955018043518,-406.31103515625,243.10302734375,172.607421875
3.419734001159668,-1357111951,0,-0.1833200305700302,-0.9288536310195923,0.5913439393043518,-324.3408203125,194.88525390625,94.6044921875
3.4344100952148438,-1357111956,1,0.07674416899681091,-0.20825032889842987,1.0348337888717651,-146.54541015625,-121.03271484375,27.7099609375
3.434483289718628,-1357111937,1,0.09481057524681091,-0.38036948442459106,1.0304392576217651,-185.48583984375,-187.92724609375,-15.380859375
3.4514522552490234,-1357111932,0,-0.3688669204711914,-1.1634727716445923,1.0171252489089966,-193.9697265625,155.1513671875,18.49365234375
3.4514622688293457,-1357111913,0,-0.4406442642211914,-1.1639610528945923,0.6533556580543518,-59.326171875,128.0517578125,-12.39013671875
3.4643242359161377,-1357111918,1,0.4461289346218109,-0.39379721879959106,0.9357126951217651,-165.8935546875,-183.89892578125,-8.60595703125
3.4800240993499756,-1357111894,0,-0.2770700454711914,-1.2420860528945923,0.5908556580543518,-11.16943359375,66.22314453125,0.79345703125
3.4997212886810303,-1357111899,1,0.3958359658718109,-0.41357260942459106,0.9840525388717651,-60.24169921875,-80.26123046875,21.54541015625
3.5008902549743652,-1357111880,1,0.3323594033718109,-0.47485190629959106,1.0211619138717651,-6.16455078125,-19.53125,23.0712890625
3.50968599319458,-1357111875,0,-0.2272653430700302,-1.0018516778945923,0.6042833924293518,4.45556640625,50.23193359375,23.49853515625
3.5097341537475586,-1357111856,0,-0.08859346807003021,-0.9518028497695923,0.6870470643043518,66.650390625,84.16748046875,85.9375
3.5250802040100098,-1357111861,1,0.2935410439968109,-0.5151351094245911,1.0338572263717651,39.4287109375,43.5791015625,41.56494140625
3.525177240371704,-1357111842,1,0.2935410439968109,-0.28784018754959106,1.0602244138717651,38.14697265625,62.80517578125,51.57470703125
3.547229290008545,-1357111837,0,-0.2653512954711914,-1.0433555841445923,0.8403673768043518,133.48388671875,7.62939453125,134.70458984375
3.5546040534973145,-1357111823,1,0.1463242471218109,-0.16772298514842987,1.1200388669967651,9.70458984375,35.5224609375,40.46630859375
3.5703060626983643,-1357111818,0,-0.06247042119503021,-0.7838340997695923,0.7873888611793518,215.33203125,-124.3896484375,138.12255859375
3.5704092979431152,-1357111799,0,-0.1872262805700302,-0.5938926935195923,0.8140001893043518,262.39013671875,-97.59521484375,67.7490234375
3.595571279525757,-1357111804,1,0.4619980752468109,0.13452310860157013,1.2008494138717651,-26.55029296875,0.48828125,18.85986328125
3.595578193664551,-1357111785,1,0.4895859658718109,0.01977701112627983,1.1029490232467651,-82.09228515625,66.22314453125,-20.01953125
3.6010212898254395,-1357111780,0,-0.1811227649450302,-0.3329063653945923,0.9927111268043518,232.48291015625,-143.1884765625,23.37646484375
3.6160802841186523,-1357111766,1,0.2749863564968109,-0.5668929219245911,0.9735544919967651,-81.97021484375,63.3544921875,-58.7158203125
3.629409074783325,-1357111761,0,-0.1332712024450302,-0.2103477567434311,1.0669299364089966,192.93212890625,-156.8603515625,15.44189453125
3.649428367614746,-1357111747,1,0.2683945596218109,-0.49291831254959106,0.7413767576217651,36.92626953125,62.43896484375,-53.28369140625
3.6612191200256348,-1357111725,0,0.06545926630496979,-0.10268174111843109,1.1438342332839966,62.80517578125,-54.26025390625,-61.21826171875
3.661302089691162,-1357111706,0,-0.1667184680700302,-0.3297325372695923,1.2224475145339966,16.66259765625,29.6630859375,-95.3369140625
3.676058292388916,-1357111711,1,0.2752304971218109,-0.18310384452342987,0.9618357419967651,71.77734375,24.7802734375,-53.28369140625
3.6761362552642822,-1357111692,1,0.3006211221218109,-0.29736167192459106,0.8907908201217651,49.49951171875,26.611328125,-72.6318359375
3.698698043823242,-1357111687,0,-0.05954073369503021,-0.6849571466445923,1.1575061082839966,-58.9599609375,55.6640625,-107.421875
3.705996036529541,-1357111673,1,0.2644883096218109,-0.26025229692459106,0.9508494138717651,55.17578125,41.3818359375,-78.43017578125
3.7213523387908936,-1357111668,0,-0.5441598892211914,-1.1522423028945923,0.9841662049293518,-36.80419921875,146.91162109375,-43.3349609375
3.7214510440826416,-1357111649,0,-0.2560739517211914,-0.3863731622695923,0.6343126893043518,70.6787109375,70.1904296875,23.92578125
3.7344491481781006,-1357111654,1,0.1802597939968109,-0.21850423514842987,1.0546091794967651,42.90771484375,41.8701171875,-75.439453125
3.734546184539795,-1357111635,1,0.1941758096218109,-0.18603353202342987,1.0929392576217651,5.43212890625,10.1318359375,-54.99267578125
3.7504892349243164,-1357111630,0,-0.4413766860961914,-0.2425743192434311,0.9587755799293518,126.46484375,44.3115234375,-37.90283203125
3.7662031650543213,-1357111616,1,0.2547226846218109,-0.27343589067459106,1.1178416013717651,-13.36669921875,-28.3203125,-28.9306640625
3.781158208847046,-1357111611,0,-0.2201852649450302,-0.3663536310195923,1.1169787645339966,89.599609375,-3.90625,-70.61767578125
3.7812070846557617,-1357111592,0,-0.3637399673461914,-0.4991661310195923,1.0737658739089966,37.41455078125,48.7060546875,-103.271484375
3.7989323139190674,-1357111597,1,0.3037949502468109,-0.33032065629959106,1.1044138669967651,-9.765625,-20.56884765625,-29.47998046875
3.799999952316284,-1357111578,1,0.2591172158718109,-0.36498862504959106,1.0641306638717651,8.9111328125,-2.44140625,-34.24072265625
3.8130130767822266,-1357111573,0,-0.1842965930700302,-0.5042930841445923,0.9416857361793518,5.859375,65.00244140625,-91.796875
3.813021183013916,-1357111554,0,-0.2382516711950302,-0.4513145685195923,0.9712267518043518,-12.63427734375,57.2509765625,-79.04052734375
3.8261592388153076,-1357111559,1,0.2461777627468109,-0.35815268754959106,1.0851267576217651,18.06640625,23.3154296875,-43.701171875
3.8262383937835693,-1357111540,1,0.2347031533718109,-0.36816245317459106,1.0558298826217651,19.34814453125,31.005859375,-52.42919921875
3.8476462364196777,-1357111535,0,-0.2577829360961914,-0.4698692560195923,0.9370470643043518,2.99072265625,23.5595703125,-87.09716796875
3.868821144104004,-1357111516,0,-0.1320504993200302,-0.5626426935195923,0.9480333924293518,19.83642578125,28.01513671875,-100.28076171875
3.869615077972412,-1357111497,0,-0.1279001086950302,-0.5941368341445923,0.9197130799293518,51.45263671875,74.0966796875,-117.7978515625
3.894639253616333,-1357111521,1,0.2718125283718109,-0.29223471879959106,1.0590037107467651,31.005859375,34.97314453125,-59.5703125
3.9148621559143066,-1357111502,1,0.2127304971218109,-0.24731282889842987,1.0555857419967651,43.15185546875,42.236328125,-72.75390625
3.9148762226104736,-1357111483,1,0.1695176064968109,-0.23193196952342987,1.0184763669967651,44.37255859375,42.6025390625,-73.974609375
3.9296982288360596,-1357111461,0,-0.1398629993200302,-0.7386680841445923,0.7478380799293518,86.9140625,-43.15185546875,-30.57861328125
3.9297451972961426,-1357111442,0,0.06790067255496979,-0.4425255060195923,0.8950548768043518,123.779296875,-100.03662109375,23.4375
3.950010299682617,-1357111447,1,0.1885605752468109,-0.20190267264842987,1.0157908201217651,52.79541015625,49.01123046875,-44.37255859375
3.95002818107605,-1357111428,1,0.1985703408718109,-0.18701009452342987,1.0199412107467651,61.46240234375,52.91748046875,-44.0673828125
3.9604883193969727,-1357111423,0,0.10476590692996979,-0.2076622098684311,1.0149279832839966,146.78955078125,-88.56201171875,31.67724609375
3.9605932235717773,-1357111404,0,0.1396780163049698,-0.2037559598684311,1.0683947801589966,132.2021484375,-62.68310546875,26.0009765625
3.9753572940826416,-1357111409,1,0.2010117471218109,-0.18774251639842987,1.0404490232467651,75.13427734375,51.8798828125,-45.59326171875
3.9753711223602295,-1357111390,1,0.1499863564968109,-0.14135579764842987,1.0145701169967651,100.64697265625,40.83251953125,-32.71484375
3.9959471225738525,-1357111385,0,0.2449026256799698,-0.2059532254934311,1.1260119676589966,96.6796875,-31.73828125,13.97705078125
4.004383087158203,-1357111371,1,0.12386330962181091,-0.14770345389842987,0.9747751951217651,129.8828125,34.1796875,-25.634765625
4.01963210105896,-1357111366,0,0.2724905014038086,-0.11171494424343109,1.1377307176589966,62.98828125,-14.83154296875,12.5732421875
4.019748210906982,-1357111347,0,0.2988576889038086,0.04209364950656891,1.1064807176589966,38.2080078125,-17.63916015625,23.5595703125
4.034492254257202,-1357111352,1,0.02327737584710121,-0.11669759452342987,1.0519236326217651,138.85498046875,25.634765625,-32.1044921875
4.034580230712891,-1357111333,1,0.008873078972101212,-0.04492025449872017,1.1019724607467651,124.0234375,23.4375,-48.095703125
4.049834966659546,-1357111328,0,0.2058401256799698,0.07700575888156891,1.0747424364089966,29.78515625,-14.404296875,11.29150390625
4.064540147781372,-1357111314,1,0.02083596959710121,0.03662271425127983,1.1285837888717651,84.716796875,3.47900390625,-71.8994140625
4.099653244018555,-1357111295,1,0.09261330962181091,0.04101724550127983,1.1056345701217651,64.27001953125,-24.47509765625,-70.49560546875
4.100696086883545,-1357111276,1,0.03450784459710121,0.02246255800127983,1.1512888669967651,54.931640625,-33.5693359375,-56.09130859375
4.110406160354614,-1357111309,0,0.07937528192996979,-0.03920517861843109,1.1443225145339966,18.24951171875,-38.330078125,-12.14599609375
4.110522270202637,-1357111290,0,0.1589651256799698,-0.2047325223684311,1.1213732957839966,27.587890625,-103.1494140625,-25.69580078125
4.126492261886597,-1357111257,1,0.02400979772210121,0.09619303047657013,1.1800974607467651,42.05322265625,-26.3671875,-65.49072265625
4.14745020866394,-1357111271,0,0.1880178600549698,-0.1737266629934311,1.1243029832839966,52.91748046875,-121.64306640625,-50.048828125
4.147459030151367,-1357111252,0,0.2304983288049698,-0.10121689736843109,1.2312365770339966,58.59375,-107.0556640625,-84.716796875
4.147465944290161,-1357111233,0,0.3684377670288086,-0.2025352567434311,1.2934924364089966,34.423828125,-52.91748046875,-102.6611328125
4.1546361446380615,-1357111238,1,0.0049668289721012115,0.14062662422657013,1.1539744138717651,26.611328125,-29.6630859375,-81.23779296875
4.1547532081604,-1357111219,1,0.08016213774681091,0.14648599922657013,1.1652048826217651,5.18798828125,-41.1376953125,-79.52880859375
4.170922040939331,-1357111197,0,0.08718778192996979,-0.1322227567434311,1.2077990770339966,34.3017578125,11.8408203125,-105.89599609375
4.1974053382873535,-1357111183,1,0.09114846587181091,0.12768717110157013,1.1586130857467651,0.6103515625,-30.76171875,-58.65478515625
4.201036214828491,-1357111178,0,0.028594031929969788,-0.02773056924343109,1.1899768114089966,50.29296875,-24.90234375,-107.36083984375
4.216001033782959,-1357111164,1,0.11531838774681091,0.13794107735157013,1.1964548826217651,8.36181640625,-41.015625,-49.74365234375
4.231058359146118,-1357111159,0,0.1387014538049698,-0.06557236611843109,1.2558947801589966,51.94091796875,-62.255859375,-117.00439453125
4.2311460971832275,-1357111140,0,0.10256864130496979,-0.07875595986843109,1.2656604051589966,51.3916015625,-64.27001953125,-110.7177734375
4.2499542236328125,-1357111145,1,0.1453476846218109,0.07812662422657013,1.2230662107467651,23.3154296875,-48.88916015625,-55.96923828125
4.249962091445923,-1357111126,1,0.06087503209710121,0.06469888985157013,1.2482126951217651,46.81396484375,-70.068359375,-71.6552734375
4.2611870765686035,-1357111121,0,0.10549832880496979,-0.05775986611843109,1.2739611864089966,47.607421875,-55.48095703125,-100.830078125
4.261304140090942,-1357111102,0,0.11624051630496979,0.0032752901315689087,1.3161975145339966,43.3349609375,-46.875,-86.7919921875
4.274418354034424,-1357111107,1,0.03841409459710121,0.09106607735157013,1.2594431638717651,80.87158203125,-105.77392578125,-79.1015625
4.29769229888916,-1357111083,0,0.1286916881799698,0.03550185263156891,1.3257189989089966,33.26416015625,-1.28173828125,-74.5849609375
4.306120157241821,-1357111088,1,0.1548691689968109,0.12109537422657013,1.1998728513717651,117.73681640625,-116.8212890625,-65.673828125
4.3062310218811035,-1357111069,1,0.1729355752468109,0.19824381172657013,1.1634958982467651,132.14111328125,-122.61962890625,-57.55615234375
4.31960129737854,-1357111064,0,0.05520536005496979,0.05576552450656891,1.2722522020339966,38.6962890625,15.93017578125,-75.3173828125
4.319739103317261,-1357111045,0,-0.10275362432003021,-0.04994736611843109,1.3044787645339966,50.10986328125,28.13720703125,-86.48681640625
4.346135139465332,-1357111050,1,0.1258164346218109,0.23022623360157013,1.1112498044967651,125.67138671875,-123.35205078125,-53.3447265625
4.346143960952759,-1357111031,1,0.08577737212181091,0.29834145307540894,1.0992869138717651,112.060546875,-139.6484375,-41.80908203125
4.350969076156616,-1357111026,0,-0.1620797961950302,-0.06459580361843109,1.2163439989089966,58.2275390625,18.06640625,-67.87109375
4.3645102977752686,-1357111012,1,0.1350937783718109,0.32397621870040894,1.0228708982467651,86.181640625,-167.41943359375,-18.24951171875
4.398428201675415,-1357110993,1,0.1890488564968109,0.27392739057540894,0.9205759763717651,63.65966796875,-172.54638671875,-13.916015625
4.399489164352417,-1357110974,1,0.2298203408718109,0.25073403120040894,0.8356150388717651,58.04443359375,-162.17041015625,-16.17431640625
4.411630153656006,-1357111007,0,-0.2001657336950302,-0.05385361611843109,1.1828967332839966,66.22314453125,3.60107421875,-46.38671875
4.411638021469116,-1357110988,0,-0.2170114368200302,0.014505758881568909,1.0840197801589966,73.54736328125,-10.498046875,-28.99169921875
4.411644220352173,-1357110969,0,-0.2367868274450302,0.02427138388156891,1.0168811082839966,68.90869140625,-22.705078125,-27.9541015625
4.42462420463562,-1357110955,1,0.1934433877468109,0.20166178047657013,0.7508982419967651,55.7861328125,-138.73291015625,-20.6298828125
4.447321176528931,-1357110933,0,-0.2050485461950302,0.008158102631568909,0.8469591736793518,68.2373046875,-20.263671875,-0.244140625
4.454536199569702,-1357110919,1,0.1800156533718109,0.26049965620040894,0.6442087888717651,58.53271484375,-113.28125,-3.173828125
4.469509124755859,-1357110914,0,-0.2597360610961914,0.07261122763156891,0.7671251893043518,79.89501953125,-20.44677734375,26.30615234375
4.469593048095703,-1357110895,0,-0.2792673110961914,0.10801161825656891,0.7329455018043518,76.59912109375,-26.85546875,39.6728515625
4.484673023223877,-1357110900,1,0.1931992471218109,0.27758949995040894,0.5892771482467651,48.03466796875,-95.64208984375,7.080078125
4.500457286834717,-1357110876,0,-0.2892770767211914,0.10923232138156891,0.6924181580543518,60.48583984375,-38.0859375,47.2412109375
4.514881134033203,-1357110881,1,0.2061387002468109,0.30078285932540894,0.5424021482467651,28.4423828125,-77.33154296875,13.5498046875
4.51488995552063,-1357110862,1,0.2288437783718109,0.33789223432540894,0.5052927732467651,11.77978515625,-59.87548828125,19.6533203125
4.529532194137573,-1357110857,0,-0.2294626086950302,0.09238661825656891,0.6160021424293518,50.23193359375,-61.70654296875,65.36865234375
4.529649257659912,-1357110838,0,-0.2189645618200302,0.1285194307565689,0.5918322205543518,45.41015625,-73.30322265625,72.265625
4.558585166931152,-1357110819,0,-0.1464547961950302,0.1565956026315689,0.6123400330543518,33.63037109375,-79.2236328125,72.57080078125
4.5749101638793945,-1357110843,1,0.1626816689968109,0.27246254682540894,0.48966777324676514,1.64794921875,-45.166015625,37.9638671875
4.5972981452941895,-1357110800,0,-0.1611032336950302,0.10508193075656891,0.6023302674293518,22.03369140625,-76.35498046875,64.75830078125
4.597306251525879,-1357110781,0,-0.1437692493200302,0.06724013388156891,0.5586290955543518,12.3291015625,-74.03564453125,68.4814453125
4.60462212562561,-1357110824,1,0.2452012002468109,0.25146645307540894,0.46159160137176514,0.54931640625,-41.50390625,49.4384765625
4.6047022342681885,-1357110805,1,0.2852402627468109,0.22461099922657013,0.43693339824676514,0.732421875,-21.240234375,49.31640625
4.606184244155884,-1357110786,1,0.3333359658718109,0.23120279610157013,0.42814433574676514,-2.38037109375,7.9345703125,44.0673828125
4.606257200241089,-1357110767,1,0.3284531533718109,0.24707193672657013,0.43620097637176514,-10.19287109375,27.83203125,42.6025390625
4.6198320388793945,-1357110762,0,-0.11886690557003021,0.06724013388156891,0.5520372986793518,6.2255859375,-77.45361328125,79.65087890625
4.619889259338379,-1357110743,0,-0.014862999320030212,0.10947646200656891,0.5334826111793518,6.9580078125,-76.7822265625,103.45458984375
4.634339094161987,-1357110748,1,0.2544785439968109,0.24926920235157013,0.47062480449676514,-15.68603515625,36.376953125,50.72021484375
4.65286922454834,-1357110724,0,0.09182645380496979,0.11631239950656891,0.5193224549293518,11.90185546875,-65.673828125,118.2861328125
4.664663076400757,-1357110729,1,0.3184433877468109,0.26977699995040894,0.5060251951217651,-25.93994140625,31.55517578125,73.2421875
4.664728164672852,-1357110710,1,0.3985215127468109,0.18506021797657013,0.6132029294967651,-38.75732421875,39.9169921875,97.0458984375
4.681349277496338,-1357110705,0,0.10842801630496979,0.11289443075656891,0.5264025330543518,11.65771484375,-57.6171875,122.61962890625
4.699751138687134,-1357110691,1,0.4756699502468109,0.13989420235157013,0.6779001951217651,-43.9453125,52.3681640625,108.642578125
4.7097861766815186,-1357110669,0,0.2317190319299698,0.05625380575656891,0.6106310486793518,19.71435546875,-54.0771484375,127.5634765625
4.724832057952881,-1357110655,1,0.4478379189968109,0.02221841737627983,0.7479685544967651,-47.607421875,68.2373046875,114.68505859375
4.747276067733765,-1357110650,0,0.3789358139038086,0.12412489950656891,0.6101427674293518,17.2119140625,-52.490234375,131.7138671875
4.748005151748657,-1357110631,0,0.5032033920288086,0.2339881807565689,0.6150255799293518,11.1083984375,-38.75732421875,129.57763671875
4.754836320877075,-1357110636,1,0.4038926064968109,0.02929849550127983,0.7057322263717651,-42.17529296875,63.720703125,110.3515625
4.754955053329468,-1357110617,1,0.3550644814968109,0.011476229876279831,0.7425974607467651,-21.66748046875,54.99267578125,115.29541015625
4.770484209060669,-1357110612,0,0.4585256576538086,0.2647498846054077,0.6753283143043518,-2.8076171875,-24.96337890625,113.8916015625
4.770492315292358,-1357110593,0,0.3135061264038086,0.1265663057565689,0.7478380799293518,-16.54052734375,-31.982421875,94.3603515625
4.795689344406128,-1357110598,1,0.3848496377468109,0.008302401751279831,0.8841990232467651,-13.7939453125,63.17138671875,128.11279296875
4.799825191497803,-1357110574,0,0.2915334701538086,-0.04530869424343109,0.7471056580543518,-14.58740234375,-49.01123046875,88.37890625
4.814598321914673,-1357110579,1,0.4912949502468109,0.03784341737627983,0.9706248044967651,-16.17431640625,65.24658203125,133.48388671875
4.814702033996582,-1357110560,1,0.4739609658718109,-0.014890957623720169,0.9767283201217651,-17.51708984375,66.95556640625,133.72802734375
4.829768180847168,-1357110555,0,0.3874807357788086,-0.11610947549343109,0.7204943299293518,5.126953125,-62.01171875,104.67529296875
4.829866170883179,-1357110536,0,0.5073537826538086,-0.04701767861843109,0.7829943299293518,25.45166015625,-58.53271484375,122.25341796875
4.84952712059021,-1357110541,1,0.4051133096218109,-0.010984707623720169,0.9982126951217651,-9.46044921875,59.814453125,121.64306640625
4.850710153579712,-1357110522,1,0.4009629189968109,0.04174966737627983,1.0743845701217651,-2.38037109375,63.29345703125,132.87353515625
4.859597206115723,-1357110517,0,0.5805959701538086,0.11142958700656891,0.9739122986793518,13.24462890625,-41.8701171875,112.24365234375
4.874404191970825,-1357110503,1,0.4568711221218109,0.011232089251279831,1.1410349607467651,-1.89208984375,71.1669921875,149.35302734375
4.898277282714844,-1357110498,0,0.6015920639038086,0.06601943075656891,0.9997912049293518,-8.60595703125,-28.25927734375,99.2431640625
4.898285150527954,-1357110479,0,0.6814260482788086,-0.05775986611843109,0.9448595643043518,-16.845703125,-18.00537109375,95.3369140625
4.918544292449951,-1357110460,0,0.7012014389038086,-0.04359970986843109,0.8525744080543518,8.544921875,-13.00048828125,109.4970703125
4.934898138046265,-1357110484,1,0.5213242769241333,-0.07641439139842987,1.2076853513717651,-9.6435546875,75.50048828125,159.97314453125
4.9350080490112305,-1357110465,1,0.4922715127468109,-0.15160970389842987,1.2010935544967651,-13.671875,67.68798828125,141.29638671875
4.935086250305176,-1357110446,1,0.4766465127468109,-0.07739095389842987,1.1437205076217651,-6.2255859375,50.10986328125,114.44091796875
4.947292327880859,-1357110427,1,0.4724961221218109,-0.02343587949872017,1.1193064451217651,2.197265625,54.443359375,122.13134765625
4.951873064041138,-1357110441,0,0.8308401107788086,0.05503310263156891,0.8948107361793518,34.423828125,-7.01904296875,117.37060546875
4.97881007194519,-1357110405,0,0.9260549545288086,0.2459510713815689,1.1528674364089966,3.84521484375,21.3623046875,109.55810546875
4.97967529296875,-1357110386,0,0.8032522201538086,0.08970107138156891,1.0749865770339966,7.4462890625,23.4375,118.34716796875
4.999781131744385,-1357110391,1,0.4590683877468109,-0.08373861014842987,1.0821970701217651,-14.2822265625,90.39306640625,157.1044921875
4.999789237976074,-1357110372,1,0.4351426064968109,-0.11425618827342987,1.0709666013717651,-34.36279296875,107.0556640625,144.775390625
5.014145135879517,-1357110367,0,0.7851858139038086,0.05185927450656891,1.0505725145339966,39.85595703125,25.634765625,129.82177734375
5.024811029434204,-1357110353,1,0.2915879189968109,-0.06005697324872017,1.1761912107467651,-42.17529296875,121.88720703125,142.63916015625
5.04748797416687,-1357110348,0,0.9460744857788086,0.12095107138156891,1.1694689989089966,48.583984375,47.30224609375,130.2490234375
5.048285245895386,-1357110329,0,1.0837697982788086,0.1807655245065689,1.2546740770339966,22.15576171875,61.58447265625,114.44091796875
5.054644346237183,-1357110334,1,0.1448594033718109,-0.14428548514842987,1.3500193357467651,-63.8427734375,114.8681640625,185.48583984375
5.054769277572632,-1357110315,1,0.2188340127468109,-0.36254721879959106,1.4403513669967651,-85.0830078125,81.9091796875,228.21044921875
5.069424152374268,-1357110310,0,1.0791311264038086,0.04722060263156891,1.2683459520339966,-5.43212890625,62.5,88.31787109375
5.084808349609375,-1357110296,1,0.5501328706741333,-0.6176741719245911,1.5345896482467651,-73.91357421875,53.955078125,210.3271484375
5.1026222705841064,-1357110291,0,1.0085744857788086,-0.09340439736843109,1.2471057176589966,17.15087890625,37.59765625,86.42578125
5.1026291847229,-1357110272,0,1.1921682357788086,-0.10439072549343109,1.2515002489089966,68.603515625,24.10888671875,89.05029296875
5.115754127502441,-1357110277,1,0.6985703706741333,-0.6103499531745911,1.5253123044967651,-7.50732421875,66.34521484375,129.638671875
5.115762233734131,-1357110258,1,0.4922715127468109,-0.47973471879959106,1.6161326169967651,55.84716796875,74.951171875,81.23779296875
5.149176120758057,-1357110239,1,0.3782578408718109,-0.42993003129959106,1.7953318357467651,59.6923828125,59.63134765625,103.21044921875
5.15053915977478,-1357110220,1,0.4224472939968109,-0.5935042500495911,1.8541697263717651,53.40576171875,44.98291015625,118.59130859375
5.1599884033203125,-1357110253,0,1.4199514389038086,-0.004537209868431091,1.3352404832839966,88.07373046875,36.07177734375,74.40185546875
5.160076141357422,-1357110234,0,1.6191701889038086,0.07139052450656891,1.3962756395339966,71.83837890625,59.326171875,36.07177734375
5.160181045532227,-1357110215,0,1.6491994857788086,-0.08754502236843109,1.3413439989089966,51.81884765625,72.44873046875,-1.89208984375
5.174435138702393,-1357110201,1,0.6082383394241333,-0.8522933125495911,1.8636912107467651,84.65576171875,25.69580078125,102.72216796875
5.197348117828369,-1357110196,0,1.6438283920288086,-0.2340293973684311,1.2849475145339966,63.41552734375,74.15771484375,-20.1416015625
5.1973559856414795,-1357110177,0,1.7497854232788086,-0.2840782403945923,1.2739611864089966,87.646484375,60.97412109375,-43.212890625
5.204599142074585,-1357110182,1,0.6775742769241333,-0.9353011250495911,1.8583201169967651,144.22607421875,16.9677734375,67.5048828125
5.204714059829712,-1357110163,1,0.6421738862991333,-1.0559065341949463,1.9620798826217651,175.537109375,21.42333984375,53.7109375
5.249871253967285,-1357110141,0,1.7683401107788086,-0.4530235528945923,1.2739611864089966,112.24365234375,37.17041015625,-113.09814453125
5.264567136764526,-1357110127,1,0.7498399019241333,-1.3007795810699463,1.9694041013717651,205.810546875,6.28662109375,29.84619140625
5.264693975448608,-1357110108,1,0.6592637300491333,-1.4177229404449463,1.8712595701217651,243.34716796875,-31.3720703125,-15.93017578125
5.280375003814697,-1357110122,0,1.6950979232788086,-0.5565391778945923,1.1509143114089966,127.50244140625,61.4013671875,-119.32373046875
5.280386209487915,-1357110103,0,1.5901174545288086,-0.5367637872695923,0.9695177674293518,147.3388671875,95.458984375,-119.20166015625
5.280503034591675,-1357110084,0,1.4924612045288086,-0.5182090997695923,0.8401232361793518,153.076171875,109.55810546875,-127.197265625
5.3097710609436035,-1357110065,0,1.3799123764038086,-0.5179649591445923,0.7407580018043518,134.94873046875,108.45947265625,-146.484375
5.324798345565796,-1357110089,1,0.5032578706741333,-1.4482405185699463,1.8068064451217651,256.8359375,-77.2705078125,-51.33056640625
5.324889183044434,-1357110070,1,0.5125352144241333,-1.5107405185699463,1.7797068357467651,258.9111328125,-103.6376953125,-58.349609375
5.347313165664673,-1357110046,0,1.1831350326538086,-0.5252891778945923,0.6692247986793518,111.38916015625,99.91455078125,-150.87890625
5.347320079803467,-1357110027,0,0.9592580795288086,-0.4698692560195923,0.5849962830543518,110.83984375,94.90966796875,-140.31982421875
5.355854034423828,-1357110051,1,0.4793320596218109,-1.5581037998199463,1.6459177732467651,295.5322265625,-112.12158203125,-81.35986328125
5.355863094329834,-1357110032,1,0.2974472939968109,-1.4628889560699463,1.4254587888717651,328.61328125,-123.6572265625,-116.5771484375
5.355869293212891,-1357110013,1,0.05501565709710121,-1.3024885654449463,1.2079294919967651,344.90966796875,-151.7333984375,-147.88818359375
5.370104074478149,-1357110008,0,0.8403615951538086,-0.4605919122695923,0.5271349549293518,115.234375,91.796875,-139.46533203125
5.395284175872803,-1357109994,1,-0.1464003622531891,-1.1411116123199463,0.9628123044967651,338.80615234375,-182.12890625,-171.9970703125
5.399704217910767,-1357109989,0,0.6948537826538086,-0.4051719903945923,0.4211779236793518,115.17333984375,81.0546875,-148.01025390625
5.399722099304199,-1357109970,0,0.4892873764038086,-0.4159141778945923,0.3840685486793518,105.89599609375,54.443359375,-171.875
5.4161810874938965,-1357109975,1,-0.2557753622531891,-0.9746077656745911,0.7120798826217651,320.4345703125,-198.54736328125,-189.39208984375
5.4162561893463135,-1357109956,1,-0.3197402060031891,-0.8554671406745911,0.5282419919967651,304.50439453125,-204.9560546875,-195.12939453125
5.447948217391968,-1357109937,1,-0.3944472372531891,-0.7514632344245911,0.33781230449676514,283.14208984375,-204.1015625,-198.1201171875
5.459601163864136,-1357109951,0,0.3276662826538086,-0.4124962091445923,0.3611193299293518,101.13525390625,25.5126953125,-174.86572265625
5.459694147109985,-1357109932,0,0.1919241100549698,-0.3551231622695923,0.3249865174293518,113.83056640625,9.033203125,-154.78515625
5.4604573249816895,-1357109913,0,0.09280301630496979,-0.1849571317434311,0.2182970643043518,119.20166015625,-7.99560546875,-140.0146484375
5.474485158920288,-1357109918,1,-0.4335097372531891,-0.6418440937995911,0.17594705522060394,264.6484375,-202.63671875,-199.27978515625
5.47449803352356,-1357109899,1,-0.4952773153781891,-0.5612776875495911,0.01774393394589424,249.08447265625,-186.8896484375,-206.72607421875
5.49933123588562,-1357109877,0,-0.11959932744503021,-0.07045517861843109,0.033482614904642105,95.8251953125,-67.9931640625,-162.4755859375
5.504540205001831,-1357109863,1,-0.4955214560031891,-0.34496909379959106,-0.25032246112823486,218.56689453125,-140.7470703125,-210.8154296875
5.519489049911499,-1357109858,0,-0.2074899524450302,-0.1427208036184311,0.0625353455543518,99.4873046875,-116.02783203125,-152.77099609375
5.547097206115723,-1357109844,1,-0.5799940824508667,-0.27905112504959106,-0.35408222675323486,221.37451171875,-81.298828125,-222.16796875
5.551621198654175,-1357109839,0,-0.2646188735961914,0.07065810263156891,0.036900583654642105,113.09814453125,-156.31103515625,-123.84033203125
5.551629066467285,-1357109820,0,-0.2712106704711914,0.1358436495065689,0.041295114904642105,108.21533203125,-189.0869140625,-130.9814453125
5.564539194107056,-1357109825,1,-0.6344374418258667,-0.09863118827342987,-0.37996113300323486,181.09130859375,-104.06494140625,-188.232421875
5.564651012420654,-1357109806,1,-0.6476210355758667,0.02441568300127983,-0.48005878925323486,134.3994140625,-99.30419921875,-175.96435546875
5.5796122550964355,-1357109801,0,-0.3339548110961914,0.12119521200656891,0.1047716736793518,102.1728515625,-219.482421875,-132.26318359375
5.579706192016602,-1357109782,0,-0.3796091079711914,0.2437538057565689,0.1269884705543518,78.2470703125,-239.31884765625,-121.76513671875
5.600226163864136,-1357109787,1,-0.6796034574508667,0.12036295235157013,-0.5039845705032349,72.08251953125,-99.30419921875,-171.142578125
5.612238168716431,-1357109763,0,-0.3634958267211914,0.2918494939804077,0.1736193299293518,37.109375,-242.67578125,-112.4267578125
5.6249001026153564,-1357109768,1,-0.7435683012008667,0.25024574995040894,-0.47395527362823486,26.4892578125,-107.23876953125,-175.048828125
5.624964237213135,-1357109749,1,-0.8419569730758667,0.36084145307540894,-0.41682636737823486,6.591796875,-107.5439453125,-167.724609375
5.647887229919434,-1357109744,0,-0.4076852798461914,0.3450721502304077,0.2351427674293518,-7.01904296875,-239.44091796875,-92.83447265625
5.647895097732544,-1357109725,0,-0.4404001235961914,0.4344276189804077,0.3196154236793518,-27.587890625,-244.81201171875,-85.75439453125
5.655730247497559,-1357109730,1,-0.9608534574508667,0.48706215620040894,-0.34285175800323486,-15.625,-109.9853515625,-148.01025390625
5.655745029449463,-1357109711,1,-0.9535292387008667,0.5024430155754089,-0.15852560102939606,-44.37255859375,-134.765625,-120.2392578125
5.669626235961914,-1357109706,0,-0.3569040298461914,0.4766639471054077,0.4121447205543518,-14.404296875,-283.3251953125,-98.2666015625
5.684491157531738,-1357109692,1,-0.8517225980758667,0.5373551249504089,-0.04646505042910576,-75.74462890625,-164.61181640625,-107.97119140625
5.701672315597534,-1357109687,0,-0.3256540298461914,0.5228065252304077,0.4531603455543518,1.40380859375,-338.43994140625,-118.5302734375
5.7016801834106445,-1357109668,0,-0.2548532485961914,0.5247596502304077,0.5801134705543518,9.8876953125,-407.1044921875,-104.8583984375
5.715313196182251,-1357109673,1,-0.8441542387008667,0.6223160624504089,0.02116190269589424,-109.31396484375,-180.2978515625,-105.28564453125
5.729414224624634,-1357109649,0,-0.06295870244503021,0.6329139471054077,0.7876330018043518,8.97216796875,-444.82421875,-74.15771484375
5.749550104141235,-1357109654,1,-0.9779433012008667,0.6611344218254089,0.20402322709560394,-152.587890625,-196.4111328125,-87.158203125
5.750786066055298,-1357109635,1,-0.9589003324508667,0.6574723124504089,0.39201152324676514,-179.443359375,-196.1669921875,-53.5888671875
5.75956130027771,-1357109613,0,0.1489553600549698,0.6968787908554077,0.8530626893043518,-10.68115234375,-394.287109375,-73.42529296875
5.774527311325073,-1357109599,1,-0.7611464262008667,0.7912613749504089,0.7020701169967651,-220.27587890625,-198.91357421875,-11.23046875
5.798786163330078,-1357109594,0,0.2075491100549698,0.7298377752304077,0.9429064393043518,-27.7099609375,-340.087890625,-44.49462890625
5.798794984817505,-1357109575,0,0.2839651107788086,0.8182166814804077,0.9819689393043518,-62.8662109375,-280.33447265625,8.97216796875
5.804657220840454,-1357109580,1,-0.7313612699508667,0.8227555155754089,0.9611033201217651,-241.8212890625,-206.11572265625,1.0986328125
5.804800033569336,-1357109561,1,-0.8434218168258667,0.9016129374504089,1.1368845701217651,-248.53515625,-217.95654296875,22.27783203125
5.819577217102051,-1357109556,0,0.2966604232788086,0.8616737127304077,0.9936876893043518,-139.7705078125,-189.88037109375,60.9130859375
5.834578275680542,-1357109542,1,-0.7948378324508667,0.9165055155754089,1.2814158201217651,-252.5634765625,-227.5390625,84.716796875
5.850563049316406,-1357109537,0,0.2090139538049698,0.7369178533554077,0.9963732361793518,-189.453125,-113.8916015625,87.158203125
5.850571155548096,-1357109518,0,0.2200002819299698,0.6348670721054077,1.0005236864089966,-171.2646484375,-102.84423828125,93.505859375
5.864650011062622,-1357109523,1,-0.6471327543258667,0.9064957499504089,1.3788279294967651,-279.96826171875,-251.03759765625,148.49853515625
5.864760160446167,-1357109504,1,-0.4305800497531891,0.8010269999504089,1.4586619138717651,-296.44775390625,-285.33935546875,211.181640625
5.881007194519043,-1357109499,0,0.4353322982788086,0.6771034002304077,1.0891467332839966,-140.68603515625,-115.78369140625,101.62353515625
5.899460077285767,-1357109485,1,-0.2469862997531891,0.6198746562004089,1.5060251951217651,-283.0810546875,-286.19384765625,240.90576171875
5.910228252410889,-1357109480,0,0.6643362045288086,0.6868690252304077,1.2961779832839966,-132.080078125,-105.3466796875,120.91064453125
5.910321235656738,-1357109461,0,0.6892385482788086,0.6314491033554077,1.4045764207839966,-135.1318359375,-63.65966796875,136.65771484375
5.924779176712036,-1357109466,1,-0.04190817102789879,0.46899574995040894,1.6305369138717651,-221.5576171875,-259.033203125,241.3330078125
5.924843072891235,-1357109447,1,0.08235940337181091,0.5478531718254089,1.7342966794967651,-123.84033203125,-187.255859375,224.9755859375
5.946962356567383,-1357109442,0,0.6513967514038086,0.4869178533554077,1.4177600145339966,-132.4462890625,-41.015625,142.02880859375
5.94697117805481,-1357109423,0,0.6325979232788086,0.3084510564804077,1.4250842332839966,-130.859375,-26.4892578125,153.74755859375
5.968740224838257,-1357109404,0,0.8237600326538086,0.11069716513156891,1.5183459520339966,-153.25927734375,7.080078125,207.1533203125
5.990729331970215,-1357109428,1,0.1648789346218109,0.6518570780754089,1.7919138669967651,-57.67822265625,-129.7607421875,218.56689453125
5.995167016983032,-1357109409,1,0.2207871377468109,0.5446793437004089,1.8058298826217651,-35.33935546875,-119.384765625,223.388671875
5.995174169540405,-1357109390,1,0.5137559175491333,0.35864418745040894,1.7650583982467651,-8.36181640625,-130.2490234375,224.42626953125
5.999876260757446,-1357109385,0,0.9363088607788086,-0.05898056924343109,1.5984240770339966,-159.48486328125,56.2744140625,280.2734375
6.014542102813721,-1357109371,1,0.8782578706741333,-0.16576986014842987,1.5685251951217651,44.00634765625,-103.94287109375,169.61669921875
6.029438257217407,-1357109349,0,1.2319631576538086,-0.2772423028945923,1.5671740770339966,-101.07421875,81.72607421875,396.17919921875
6.049528121948242,-1357109335,1,1.0721055269241333,-0.48486167192459106,0.8463572263717651,87.2802734375,16.41845703125,89.78271484375
6.059672117233276,-1357109330,0,1.3601369857788086,-0.4715782403945923,1.5832873582839966,-78.369140625,86.3037109375,422.79052734375
6.0746071338653564,-1357109316,1,1.0467149019241333,-0.47509604692459106,0.6500681638717651,87.82958984375,74.21875,80.810546875
6.074753046035767,-1357109297,1,0.9847031831741333,-0.38818198442459106,0.6302927732467651,73.73046875,94.90966796875,72.75390625
6.097994089126587,-1357109311,0,1.5591115951538086,-0.6124473810195923,1.5898791551589966,-55.48095703125,95.8251953125,461.60888671875
6.098002195358276,-1357109292,0,1.7302541732788086,-0.7564903497695923,1.5137072801589966,-13.61083984375,119.44580078125,495.60546875
6.0980072021484375,-1357109273,0,1.7878713607788086,-0.7381798028945923,1.3174182176589966,26.67236328125,144.8974609375,524.10888671875
6.104506254196167,-1357109278,1,0.9285508394241333,-0.25170737504959106,0.5790232419967651,48.4619140625,86.9140625,53.8330078125
6.119486331939697,-1357109254,0,1.8513479232788086,-0.7516075372695923,1.1606799364089966,44.73876953125,159.423828125,549.13330078125
6.134575128555298,-1357109259,1,0.8716660737991333,-0.09643392264842987,0.5118845701217651,36.62109375,107.23876953125,39.00146484375
6.134650230407715,-1357109240,1,0.7720566987991333,0.03540201112627983,0.47550761699676514,38.02490234375,186.5234375,43.45703125
6.152384996414185,-1357109235,0,2.0224905014038086,-0.6998497247695923,1.0957385301589966,48.33984375,176.3916015625,557.55615234375
6.152395009994507,-1357109216,0,1.9646291732788086,-0.6852012872695923,0.9658556580543518,55.0537109375,201.171875,532.1044921875
6.16460919380188,-1357109221,1,0.7178574800491333,-0.07470540702342987,0.7054880857467651,50.72021484375,251.40380859375,52.79541015625
6.16473126411438,-1357109202,1,0.6187363862991333,-0.06518392264842987,0.7753123044967651,79.7119140625,255.06591796875,38.818359375
6.179389238357544,-1357109197,0,1.8664846420288086,-0.6693321466445923,0.8325548768043518,88.68408203125,208.06884765625,497.55859375
6.199237108230591,-1357109183,1,0.4715195596218109,0.11352701485157013,0.7330759763717651,106.8115234375,232.97119140625,15.869140625
6.210128307342529,-1357109178,0,1.7851858139038086,-0.6278282403945923,0.7500353455543518,142.2119140625,200.74462890625,465.63720703125
6.210206985473633,-1357109159,0,1.5312795639038086,-0.5860801935195923,0.5954943299293518,215.576171875,169.25048828125,406.3720703125
6.225083112716675,-1357109164,1,0.3672715127468109,0.23388834297657013,0.7035349607467651,127.197265625,243.896484375,17.88330078125
6.225157260894775,-1357109145,1,0.1839219033718109,0.28589028120040894,0.7274607419967651,149.59716796875,304.6875,20.01953125
6.247218132019043,-1357109140,0,1.3547658920288086,-0.3880821466445923,0.3782091736793518,228.6376953125,119.140625,330.810546875
6.254558324813843,-1357109126,1,0.06893166899681091,0.25122231245040894,0.8993357419967651,163.330078125,330.4443359375,27.77099609375
6.269399166107178,-1357109121,0,1.2597951889038086,-0.1803184598684311,0.3296251893043518,204.2236328125,95.8251953125,274.169921875
6.284397125244141,-1357109107,1,-0.02066793665289879,0.35571449995040894,0.9623240232467651,200.37841796875,307.43408203125,18.49365234375
6.300113201141357,-1357109085,0,0.7751760482788086,0.05112685263156891,0.042515818029642105,189.0869140625,19.53125,44.43359375
6.300122261047363,-1357109066,0,0.4927053451538086,-0.2027793973684311,0.2410021424293518,218.26171875,-55.96923828125,1.40380859375
6.316426038742065,-1357109071,1,-0.1346816122531891,1.0046403408050537,0.5987986326217651,223.20556640625,173.583984375,5.18798828125
6.3164331912994385,-1357109052,1,-0.04581442102789879,0.44555824995040894,0.9598826169967651,127.99072265625,136.1083984375,16.54052734375
6.329467296600342,-1357109047,0,0.4353322982788086,-0.1915489286184311,0.6575060486793518,219.23828125,-72.57080078125,-27.52685546875
6.35010027885437,-1357109033,1,-0.3207167685031891,0.29492348432540894,0.8988474607467651,199.15771484375,170.71533203125,-11.474609375
6.3597731590271,-1357109028,0,0.3801565170288086,-0.1410118192434311,0.8694201111793518,218.07861328125,-81.9091796875,-108.33740234375
6.359900236129761,-1357109009,0,0.1726370006799698,-0.2340293973684311,0.8271837830543518,215.02685546875,-105.40771484375,-162.2314453125
6.374628067016602,-1357109014,1,-0.3092421591281891,0.46484535932540894,0.9899119138717651,229.55322265625,161.80419921875,-23.92578125
6.374743223190308,-1357108995,1,-0.4703749716281891,0.6494156718254089,0.8944529294967651,209.47265625,80.38330078125,-26.85546875
6.397442102432251,-1357108990,0,0.09573270380496979,-0.05971299111843109,0.7297716736793518,198.8525390625,-123.1689453125,-174.74365234375
6.404523134231567,-1357108976,1,-0.3819960653781891,0.5349137187004089,0.8358591794967651,108.94775390625,-78.61328125,-14.6484375
6.4197282791137695,-1357108971,0,0.014678016304969788,0.2254432588815689,0.6023302674293518,176.33056640625,-158.50830078125,-200.927734375
6.419831037521362,-1357108952,0,0.07986356317996979,0.3433631658554077,0.6572619080543518,171.08154296875,-245.4833984375,-275.93994140625
6.434539079666138,-1357108957,1,-0.1866835653781891,0.35400551557540894,0.7355173826217651,65.7958984375,-156.25,-23.62060546875
6.43461012840271,-1357108938,1,-0.2967909872531891,0.39038246870040894,0.45280253887176514,66.22314453125,-147.27783203125,-26.18408203125
6.450913190841675,-1357108933,0,0.1347952038049698,0.2371620088815689,0.7756701111793518,179.6875,-308.28857421875,-314.51416015625
6.450921297073364,-1357108914,0,0.2119436413049698,0.1839393526315689,0.8550158143043518,196.22802734375,-357.36083984375,-315.85693359375
6.4646852016448975,-1357108919,1,-0.3287734091281891,0.37475746870040894,0.38029277324676514,85.14404296875,-94.970703125,-4.69970703125
6.464784145355225,-1357108900,1,-0.4225234091281891,0.36377114057540894,0.32316386699676514,106.8115234375,-48.9501953125,-1.708984375
6.499222993850708,-1357108881,1,-0.4740370810031891,0.43676918745040894,0.30631816387176514,93.44482421875,-43.51806640625,-5.37109375
6.509878158569336,-1357108895,0,0.1792287975549698,0.2825721502304077,0.7890978455543518,194.580078125,-388.48876953125,-307.2509765625
6.509954214096069,-1357108876,0,0.1882620006799698,0.3226112127304077,0.7776232361793518,167.05322265625,-411.92626953125,-296.56982421875
6.511125087738037,-1357108857,0,0.1394338756799698,0.3689979314804077,0.7864122986793518,137.39013671875,-439.14794921875,-298.27880859375
6.5248332023620605,-1357108862,1,-0.5231093168258667,0.5441910624504089,0.33976542949676514,29.296875,-92.95654296875,-5.615234375
6.554579257965088,-1357108843,1,-0.4413222372531891,0.5449234843254089,0.28190410137176514,-73.18115234375,-172.36328125,6.7138671875
6.571310043334961,-1357108821,0,0.1557912975549698,0.2991737127304077,0.9294787049293518,17.76123046875,-404.6630859375,-274.2919921875
6.57131814956665,-1357108802,0,0.09011746942996979,0.2283729463815689,0.9267931580543518,-42.05322265625,-357.11669921875,-231.14013671875
6.586202144622803,-1357108807,1,-0.2638320028781891,0.42993324995040894,0.32609355449676514,-102.35595703125,-129.94384765625,33.14208984375
6.595506191253662,-1357108788,1,-0.2128066122531891,0.43261879682540894,0.45353496074676514,-101.07421875,-99.9755859375,11.474609375
6.599801063537598,-1357108783,0,0.028594031929969788,0.2161659151315689,0.9477892518043518,-79.28466796875,-304.8095703125,-185.9130859375
6.599868297576904,-1357108764,0,0.015410438179969788,0.2034706026315689,0.9375353455543518,-101.806640625,-257.99560546875,-155.82275390625
6.614684343338013,-1357108769,1,-0.1417616903781891,0.44629067182540894,0.5699900388717651,-117.00439453125,-122.37548828125,-14.58740234375
6.614782333374023,-1357108750,1,-0.0030898116528987885,0.45678871870040894,0.5087107419967651,-143.6767578125,-154.11376953125,-19.47021484375
6.62972617149353,-1357108745,0,0.008086219429969788,0.2098182588815689,0.9431505799293518,-121.4599609375,-200.8056640625,-121.03271484375
6.649099111557007,-1357108731,1,0.06258401274681091,0.35327309370040894,0.5116404294967651,-169.5556640625,-141.9677734375,-1.52587890625
6.659668207168579,-1357108726,0,-0.012177452445030212,0.2271522432565689,0.8735705018043518,-132.4462890625,-167.66357421875,-78.79638671875
6.659789085388184,-1357108707,0,-0.1305856555700302,0.3287147283554077,0.6904650330543518,-136.77978515625,-158.14208984375,-47.119140625
6.674558162689209,-1357108712,1,-0.1771620810031891,0.37256020307540894,0.7574900388717651,-189.94140625,-112.9150390625,15.56396484375
6.674576282501221,-1357108693,1,-0.4950331747531891,0.6628434062004089,1.0311716794967651,-235.7177734375,-136.962890625,71.22802734375
6.697817087173462,-1357108688,0,-0.06930635869503021,0.3663123846054077,0.6645861268043518,-155.2734375,-115.66162109375,-55.60302734375
6.704546213150024,-1357108674,1,-0.2872695028781891,0.43652504682540894,1.0485056638717651,-233.7646484375,-108.09326171875,104.98046875
6.719724178314209,-1357108669,0,-0.1850290149450302,0.2923377752304077,0.8642931580543518,-174.86572265625,-29.6630859375,-28.564453125
6.719768047332764,-1357108650,0,-0.015351280570030212,-0.1825157254934311,0.9377794861793518,-160.7666015625,-55.5419921875,136.474609375
6.74579930305481,-1357108655,1,-0.3636855185031891,0.37085121870040894,1.1620310544967651,-202.2705078125,-71.77734375,106.26220703125
6.7458062171936035,-1357108636,1,-0.3380507528781891,0.30005043745040894,1.5521677732467651,-176.20849609375,-77.880859375,105.16357421875
6.750216245651245,-1357108631,0,0.4187307357788086,0.3868201971054077,1.2912951707839966,-110.4736328125,-69.88525390625,280.2734375
6.750223159790039,-1357108612,0,0.4170217514038086,0.4151405096054077,1.2803088426589966,-120.849609375,-10.25390625,333.92333984375
6.76456618309021,-1357108617,1,-0.04581442102789879,0.26074379682540894,1.6962107419967651,-135.80322265625,-97.5341796875,84.89990234375
6.7794671058654785,-1357108593,0,0.5232229232788086,0.3440955877304077,1.2737170457839966,-195.9228515625,6.8359375,373.779296875
6.798878192901611,-1357108598,1,0.3345566689968109,0.07592935860157013,1.6361521482467651,-82.51953125,-74.64599609375,67.19970703125
6.810014963150024,-1357108557,0,0.9504690170288086,0.012552633881568909,1.5879260301589966,-272.64404296875,32.04345703125,479.67529296875
6.8251872062683105,-1357108579,1,0.2869492471218109,0.04150552675127983,1.3675974607467651,-89.9658203125,-51.20849609375,89.90478515625
6.825277328491211,-1357108543,1,0.4739609658718109,-0.10839681327342987,1.3778513669967651,-117.431640625,-96.923828125,129.150390625
6.846562147140503,-1357108538,0,1.3081350326538086,-0.07826767861843109,2.050328254699707,-243.2861328125,44.37255859375,490.966796875
6.854686975479126,-1357108524,1,0.7530137300491333,-0.19531087577342987,1.2284373044967651,-68.17626953125,-64.94140625,104.736328125
6.869718074798584,-1357108519,0,1.5659475326538086,-0.1458946317434311,2.209752082824707,-136.5966796875,72.8759765625,470.15380859375
6.869828224182129,-1357108500,0,1.6120901107788086,-0.12441025674343109,2.007603645324707,-41.07666015625,102.84423828125,456.23779296875
6.884620189666748,-1357108505,1,0.9121934175491333,-0.22656087577342987,1.1954783201217651,-34.1796875,-5.615234375,87.158203125
6.884664058685303,-1357108486,1,0.9759141206741333,-0.25341635942459106,1.2699412107467651,-6.8359375,29.72412109375,82.8857421875
6.901175022125244,-1357108481,0,1.5901174545288086,-0.04384385049343109,1.6648303270339966,46.38671875,121.9482421875,433.89892578125
6.901183366775513,-1357108462,0,1.0530080795288086,0.05600966513156891,0.8515978455543518,247.86376953125,230.3466796875,370.60546875
6.9165661334991455,-1357108467,1,0.2210312783718109,1.8476579189300537,2.2638375759124756,-31.982421875,37.78076171875,67.44384765625
6.92975115776062,-1357108443,0,1.6089162826538086,0.2532752752304077,1.1069689989089966,222.83935546875,62.6220703125,273.8037109375
6.949084281921387,-1357108448,1,1.1426621675491333,-0.5642073750495911,1.0741404294967651,-147.76611328125,-194.580078125,99.853515625
6.949091196060181,-1357108429,1,1.1985703706741333,-0.6088851094245911,1.7596873044967651,11.5966796875,-102.783203125,89.2333984375
6.959700345993042,-1357108424,0,1.3276662826538086,0.3377479314804077,0.4651232361793518,164.794921875,90.8203125,138.7939453125
6.959798097610474,-1357108405,0,1.1094045639038086,-0.09633408486843109,0.8198595643043518,93.3837890625,65.97900390625,13.427734375
6.99778413772583,-1357108386,0,0.9289846420288086,-0.5457969903945923,0.8271837830543518,91.97998046875,24.47509765625,-32.28759765625
7.01864218711853,-1357108367,0,0.7827444076538086,-0.4696251153945923,0.9551134705543518,138.12255859375,59.99755859375,-55.48095703125
7.01964807510376,-1357108348,0,0.7595510482788086,-0.4159141778945923,0.6465197205543518,156.67724609375,38.02490234375,-83.55712890625
7.044024229049683,-1357108410,1,1.0171738862991333,-0.7702620625495911,1.2003611326217651,93.68896484375,-16.2353515625,37.2314453125
7.044031381607056,-1357108391,1,1.2891465425491333,-0.8554671406745911,1.2418650388717651,200.86669921875,48.9501953125,-7.38525390625
7.044036149978638,-1357108372,1,0.7659531831741333,-0.6008284687995911,0.9120310544967651,240.478515625,123.59619140625,-71.2890625
7.044041395187378,-1357108353,1,0.5630723237991333,-0.6833480000495911,1.4115427732467651,208.251953125,53.8330078125,-90.2099609375
7.049704313278198,-1357108329,0,0.4348440170288086,-0.5362755060195923,0.8076525330543518,172.66845703125,27.40478515625,-116.76025390625
7.064584255218506,-1357108334,1,0.12191018462181091,-0.16088704764842987,1.0319041013717651,260.3759765625,-57.0068359375,-135.3759765625
7.0646812915802,-1357108315,1,0.2632676064968109,-0.38598471879959106,0.6622751951217651,196.10595703125,-32.5927734375,-54.5654296875
7.079514265060425,-1357108293,0,-0.08297823369503021,-0.7162071466445923,0.8179064393043518,254.08935546875,-85.205078125,-39.61181640625
7.0998711585998535,-1357108279,1,0.10384377837181091,-0.25146323442459106,0.9864939451217651,381.103515625,47.2412109375,-190.36865234375
7.109694242477417,-1357108274,0,-0.12252901494503021,-0.2713829278945923,0.8445177674293518,287.59765625,-96.86279296875,-56.57958984375
7.109797239303589,-1357108255,0,-0.2724313735961914,-0.10707627236843109,0.6457872986793518,265.625,-100.9521484375,-83.92333984375
7.125324010848999,-1357108260,1,-0.09049215912818909,0.05078287050127983,0.37785136699676514,300.9033203125,-6.04248046875,-206.1767578125
7.125421047210693,-1357108241,1,-0.2057265341281891,0.20800943672657013,0.26408183574676514,180.908203125,-33.203125,-173.64501953125
7.14824914932251,-1357108236,0,-0.2980661392211914,-0.11269150674343109,0.5520372986793518,260.498046875,-132.4462890625,-96.0693359375
7.154802322387695,-1357108222,1,-0.1368788778781891,0.13842935860157013,0.16886697709560394,148.98681640625,-53.7109375,-154.296875
7.169697999954224,-1357108217,0,-0.3307809829711914,0.11167372763156891,0.6521349549293518,295.7763671875,-232.177734375,-144.04296875
7.169830322265625,-1357108198,0,-0.2465524524450302,0.2579139471054077,0.7004747986793518,340.087890625,-341.4306640625,-150.390625
7.198056221008301,-1357108203,1,-0.1649550497531891,0.16870279610157013,-0.008867394179105759,160.09521484375,-22.3388671875,-156.25
7.198064088821411,-1357108184,1,-0.2701796591281891,0.25048989057540894,-0.0025197379291057587,164.794921875,11.8408203125,-146.728515625
7.202260971069336,-1357108179,0,-0.1298532336950302,0.4495643377304077,0.6682482361793518,368.65234375,-410.888671875,-133.23974609375
7.215656280517578,-1357108165,1,-0.3268202841281891,0.32568520307540894,-0.04329122230410576,139.09912109375,13.12255859375,-133.72802734375
7.229802131652832,-1357108160,0,0.04080106317996979,0.7540076971054077,0.3418322205543518,345.947265625,-463.19580078125,-130.0048828125
7.229820251464844,-1357108141,0,0.1433401256799698,0.7708534002304077,0.1448107361793518,253.11279296875,-477.72216796875,-157.28759765625
7.250239372253418,-1357108146,1,-0.4252089560031891,0.35864418745040894,-0.02571309730410576,71.59423828125,-10.43701171875,-127.8076171875
7.251604318618774,-1357108127,1,-0.4569472372531891,0.39404457807540894,0.13712869584560394,-7.14111328125,-69.03076171875,-115.72265625
7.259954214096069,-1357108122,0,-0.04025362432003021,0.5850623846054077,-0.007288869470357895,89.90478515625,-431.396484375,-116.8212890625
7.260072231292725,-1357108103,0,-0.2228708118200302,0.5374549627304077,0.1360216736793518,16.29638671875,-359.80224609375,-67.9931640625
7.274672269821167,-1357108108,1,-0.3531874716281891,0.39038246870040894,0.19474588334560394,-35.70556640625,-77.880859375,-102.783203125
7.2979230880737305,-1357108084,0,-0.09420870244503021,0.3067420721054077,0.051060739904642105,-62.5,-250.06103515625,-39.306640625
7.304624080657959,-1357108089,1,-0.5021132230758667,0.48022621870040894,0.22111307084560394,-49.1943359375,-59.50927734375,-66.2841796875
7.304736137390137,-1357108070,1,-0.6466444730758667,0.5114762187004089,0.26945292949676514,-105.1025390625,-26.2451171875,-10.8642578125
7.319921255111694,-1357108065,0,-0.010468468070030212,1.0315955877304077,0.2395372986793518,-167.41943359375,-170.41015625,-82.33642578125
7.33441424369812,-1357108051,1,-0.7650526762008667,0.5834977030754089,0.49381816387176514,-120.7275390625,-32.89794921875,-7.38525390625
7.3513102531433105,-1357108029,0,-0.1445016711950302,0.4253944158554077,0.2666369080543518,-315.00244140625,-129.57763671875,-109.2529296875
7.364578008651733,-1357108015,1,-0.6598280668258667,0.6875016093254089,0.8534373044967651,-105.8349609375,-2.0751953125,39.36767578125
7.379635334014893,-1357108010,0,-0.1835641711950302,0.4026893377304077,0.5019884705543518,-300.29296875,-170.654296875,-23.25439453125
7.379688262939453,-1357107991,0,0.06008817255496979,0.4856971502304077,0.7905626893043518,-263.5498046875,-187.07275390625,78.125
7.4001991748809814,-1357107996,1,-0.5924452543258667,0.7746598124504089,0.8766306638717651,-109.43603515625,10.7421875,59.5703125
7.400254249572754,-1357107977,1,-0.4034804403781891,0.7431656718254089,1.0060251951217651,-144.71435546875,3.41796875,83.92333984375
7.409515142440796,-1357107972,0,0.2893362045288086,0.5679725408554077,0.9880724549293518,-249.3896484375,-140.19775390625,142.27294921875
7.40964412689209,-1357107953,0,0.4665822982788086,0.5938514471054077,1.1101428270339966,-240.29541015625,-74.64599609375,158.50830078125
7.424840211868286,-1357107958,1,-0.1568984091281891,0.5725113749504089,1.0738962888717651,-161.0107421875,-6.65283203125,83.984375
7.447367191314697,-1357107934,0,0.6318655014038086,0.6514686346054077,1.1736193895339966,-235.41259765625,-21.8505859375,159.912109375
7.454686164855957,-1357107939,1,0.1507187783718109,0.41504067182540894,1.1959666013717651,-163.330078125,-1.5869140625,64.51416015625
7.469637155532837,-1357107915,0,0.8259572982788086,0.6834510564804077,1.2825061082839966,-250.48828125,39.73388671875,187.56103515625
7.469723224639893,-1357107896,0,0.9258108139038086,0.6673377752304077,1.3215686082839966,-248.1689453125,91.796875,207.8857421875
7.484863996505737,-1357107920,1,0.3416367471218109,0.41919106245040894,1.2477244138717651,-159.66796875,2.685546875,66.71142578125
7.484975099563599,-1357107901,1,0.6631699800491333,0.25708168745040894,1.3014353513717651,-156.1279296875,8.1787109375,47.2412109375
7.49793815612793,-1357107882,1,0.7466660737991333,0.21728678047657013,1.2247751951217651,-172.119140625,10.498046875,32.28759765625
7.502450227737427,-1357107877,0,0.8452444076538086,0.5723670721054077,1.3169299364089966,-206.23779296875,128.90625,230.65185546875
7.516563177108765,-1357107863,1,0.6524277925491333,0.30298012495040894,1.1705759763717651,-202.45361328125,0.67138671875,27.83203125
7.549781084060669,-1357107844,1,0.6145859956741333,0.35009926557540894,1.2125681638717651,-214.78271484375,-10.3759765625,24.658203125
7.5510642528533936,-1357107825,1,0.6358262300491333,0.28759926557540894,1.2269724607467651,-196.6552734375,-14.7705078125,40.283203125
7.5734710693359375,-1357107806,1,0.5718613862991333,0.26562660932540894,1.2362498044967651,-183.7158203125,-13.18359375,62.1337890625
7.596365213394165,-1357107858,0,0.8408498764038086,0.5137733221054077,1.2300158739089966,-170.7763671875,129.08935546875,255.31005859375
7.596372365951538,-1357107839,0,0.9035940170288086,0.5191444158554077,1.1921740770339966,-158.935546875,132.14111328125,305.84716796875
7.5963780879974365,-1357107820,0,0.9570608139038086,0.3853553533554077,1.2029162645339966,-173.52294921875,153.9306640625,356.99462890625
7.596383094787598,-1357107801,0,1.0503225326538086,0.09556044638156891,1.2605334520339966,-194.64111328125,181.70166015625,405.94482421875
7.604549169540405,-1357107787,1,0.5616074800491333,0.14795084297657013,1.3046091794967651,-175.4150390625,-11.5966796875,89.35546875
7.619769096374512,-1357107765,0,1.2698049545288086,-0.4078575372695923,1.2505236864089966,-173.64501953125,195.86181640625,461.85302734375
7.619828224182129,-1357107746,0,1.2380666732788086,-0.3897911310195923,1.1120959520339966,-51.45263671875,173.4619140625,474.54833984375
7.647161245346069,-1357107751,1,0.8890000581741333,-0.23388509452342987,1.3807810544967651,-76.904296875,64.27001953125,123.9013671875
7.647171258926392,-1357107732,1,0.7102891206741333,-0.46118003129959106,1.6813181638717651,25.32958984375,145.20263671875,96.25244140625
7.651682138442993,-1357107727,0,1.5754690170288086,-0.3224083185195923,1.1343127489089966,17.02880859375,142.63916015625,365.8447265625
7.664489269256592,-1357107713,1,0.3597031533718109,-0.42797690629959106,1.8688181638717651,101.13525390625,159.97314453125,122.74169921875
7.679571151733398,-1357107708,0,1.6504201889038086,0.1854041963815689,0.8979845643043518,91.6748046875,110.77880859375,205.26123046875
7.679708242416382,-1357107689,0,1.0859670639038086,0.6497596502304077,0.5351915955543518,205.87158203125,86.24267578125,77.1484375
7.700241327285767,-1357107694,1,-1.0821913480758667,-0.29174643754959106,3.2628610134124756,37.65869140625,127.74658203125,58.16650390625
7.7002482414245605,-1357107675,1,0.09310159087181091,-0.6848128437995911,1.5697458982467651,170.22705078125,45.2880859375,169.73876953125
7.709798097610474,-1357107670,0,0.8108205795288086,-0.4581505060195923,0.7522326111793518,195.556640625,-17.578125,-8.7890625
7.7248921394348145,-1357107656,1,-0.2220839560031891,-0.28661948442459106,1.1503123044967651,327.2705078125,190.91796875,123.291015625
7.747547149658203,-1357107651,0,0.6596975326538086,-0.4727989435195923,0.8594103455543518,159.36279296875,149.10888671875,72.93701171875
7.747555255889893,-1357107632,0,0.3362112045288086,-0.4527794122695923,0.6902208924293518,136.474609375,172.7294921875,88.19580078125
7.754963159561157,-1357107637,1,-0.1595839560031891,-0.21435384452342987,1.5143259763717651,371.27685546875,139.16015625,127.3193359375
7.755064249038696,-1357107618,1,-0.1827773153781891,-0.36157065629959106,1.3422068357467651,386.71875,94.05517578125,56.0302734375
7.769621133804321,-1357107613,0,-0.04806612432003021,-0.6039024591445923,0.5215197205543518,172.4853515625,71.71630859375,48.33984375
7.76972222328186,-1357107594,0,-0.06955049932003021,-0.2823692560195923,0.5901232361793518,269.287109375,-36.56005859375,-33.8134765625
7.795111179351807,-1357107599,1,-0.3810195028781891,0.01611490175127983,1.1039255857467651,383.056640625,41.68701171875,13.00048828125
7.799556255340576,-1357107575,0,-0.09933565557003021,-0.05995713174343109,0.4831896424293518,311.8896484375,-124.0234375,-86.60888671875
7.8146421909332275,-1357107580,1,-0.07022848725318909,-0.12426595389842987,1.0521677732467651,371.52099609375,-9.70458984375,-34.97314453125
7.8147571086883545,-1357107561,1,-0.4007948935031891,0.12133951485157013,0.36564433574676514,304.26025390625,-37.78076171875,-34.72900390625
7.829631328582764,-1357107556,0,-0.11178682744503021,0.02329482138156891,0.3620958924293518,328.43017578125,-189.75830078125,-108.88671875
7.829716205596924,-1357107537,0,-0.1962594836950302,0.1851600557565689,0.2024279236793518,321.2890625,-238.1591796875,-120.4833984375
7.849762201309204,-1357107542,1,-0.09366598725318909,0.15625162422657013,0.24332986772060394,263.5498046875,-28.6865234375,-55.35888671875
7.849768161773682,-1357107523,1,-0.06803122162818909,0.06494303047657013,0.21134744584560394,296.08154296875,16.845703125,-91.00341796875
7.895414113998413,-1357107501,0,-0.3290719985961914,0.2813514471054077,0.2661486268043518,194.4580078125,-304.74853515625,-152.34375
7.896157264709473,-1357107482,0,-0.2856149673461914,0.4114784002304077,0.3039904236793518,144.83642578125,-337.0361328125,-176.08642578125
7.9047112464904785,-1357107487,1,-0.1505507528781891,0.17651529610157013,-0.006914269179105759,308.10546875,41.44287109375,-125.91552734375
7.904766321182251,-1357107468,1,-0.1266249716281891,0.26147621870040894,-0.10139669477939606,243.1640625,11.53564453125,-130.55419921875
7.9197351932525635,-1357107463,0,-0.2680368423461914,0.3960975408554077,0.2580919861793518,130.615234375,-375.91552734375,-203.4912109375
7.919815301895142,-1357107444,0,-0.1733102649450302,0.3794959783554077,0.3035021424293518,138.24462890625,-428.8330078125,-210.44921875
7.934552192687988,-1357107449,1,-0.11099997162818909,0.25317543745040894,-0.13435567915439606,179.13818359375,-17.2119140625,-134.33837890625
7.936146259307861,-1357107430,1,-0.10343161225318909,0.25610512495040894,-0.10261739790439606,103.69873046875,-30.45654296875,-150.87890625
7.95078706741333,-1357107425,0,0.019560828804969788,0.4927772283554077,0.4355822205543518,141.6015625,-433.16650390625,-204.4677734375
7.964659214019775,-1357107411,1,-0.1664198935031891,0.25561684370040894,0.02897440269589424,65.3076171875,-22.27783203125,-176.69677734375
7.979804277420044,-1357107406,0,0.2007131725549698,0.5662635564804077,0.6094103455543518,77.20947265625,-361.6943359375,-176.7578125
7.979871988296509,-1357107387,0,0.1516409069299698,0.7166541814804077,0.5408068299293518,-34.48486328125,-264.16015625,-148.74267578125
8.00005316734314,-1357107392,1,-0.3339003622531891,0.32177895307540894,0.16325174272060394,56.70166015625,-1.220703125,-175.84228515625
8.000060319900513,-1357107373,1,-0.4056777060031891,0.41748207807540894,0.17033182084560394,47.7294921875,-8.48388671875,-160.82763671875
8.009811162948608,-1357107368,0,0.08572293817996979,0.6214393377304077,0.5283556580543518,-117.919921875,-204.9560546875,-125.1220703125
8.02484917640686,-1357107354,1,-0.4874648153781891,0.47021645307540894,0.18913064897060394,25.634765625,7.26318359375,-126.46484375
8.047307014465332,-1357107349,0,0.08523465692996979,0.5652869939804077,0.5347033143043518,-194.64111328125,-170.10498046875,-107.23876953125
8.047314167022705,-1357107330,0,0.1494436413049698,0.4668983221054077,0.6877794861793518,-261.41357421875,-167.96875,-64.02587890625
8.068862199783325,-1357107311,0,0.2126760631799698,0.4544471502304077,0.8703966736793518,-314.02587890625,-167.05322265625,10.009765625
8.069717168807983,-1357107292,0,0.2920217514038086,0.3480018377304077,1.0198107957839966,-348.20556640625,-162.29248046875,52.1240234375
8.086611270904541,-1357107335,1,-0.5882948637008667,0.5068375468254089,0.34757792949676514,-13.36669921875,13.97705078125,-110.77880859375
8.095515251159668,-1357107316,1,-0.6981581449508667,0.5073258280754089,0.48624980449676514,-41.19873046875,-8.11767578125,-118.7744140625
8.095522165298462,-1357107297,1,-0.7806776762008667,0.5903336405754089,0.46256816387176514,-55.35888671875,-32.1044921875,-126.28173828125
8.095527172088623,-1357107278,1,-0.8714979887008667,0.6979996562004089,0.35636699199676514,-80.01708984375,-45.71533203125,-108.21533203125
8.099419116973877,-1357107273,0,0.3193655014038086,0.2076209932565689,1.3371936082839966,-370.4833984375,-135.19287109375,79.04052734375
8.116973161697388,-1357107259,1,-0.9476698637008667,0.7067887187004089,0.27409160137176514,-95.5810546875,-32.16552734375,-75.62255859375
8.129587173461914,-1357107237,0,0.3464651107788086,-0.1700645536184311,1.8911486864089966,-331.9091796875,-110.107421875,179.01611328125
8.150278329849243,-1357107223,1,-0.9222792387008667,0.7084977030754089,0.45329082012176514,-63.1103515625,9.33837890625,-92.8955078125
8.15962529182434,-1357107218,0,0.7300100326538086,-0.4122520685195923,2.161412239074707,-263.12255859375,-65.4296875,246.58203125
8.17448616027832,-1357107204,1,-1.2076796293258667,0.8159195780754089,0.5704783201217651,-66.5283203125,5.67626953125,-121.4599609375
8.197524309158325,-1357107199,0,1.1719045639038086,-0.6366173028945923,2.316197395324707,-206.298828125,10.498046875,297.2412109375
8.197533369064331,-1357107180,0,1.4138479232788086,-0.8431602716445923,2.239781379699707,-141.41845703125,48.88916015625,312.56103515625
8.204759120941162,-1357107185,1,-1.2257460355758667,0.8002945780754089,0.5992869138717651,-89.17236328125,-13.5498046875,-90.576171875
8.204843997955322,-1357107166,1,-0.9896620512008667,0.6630875468254089,0.7086619138717651,-100.64697265625,-1.8310546875,-73.974609375
8.219756126403809,-1357107161,0,1.8345022201538086,-1.1571251153945923,2.270543098449707,-83.92333984375,73.1201171875,331.4208984375
8.219849348068237,-1357107142,0,2.2895803451538086,-1.4168907403945923,2.428502082824707,5.43212890625,122.802734375,335.99853515625
8.234435081481934,-1357107147,1,-0.8253554105758667,0.5756852030754089,0.7801951169967651,-78.4912109375,49.31640625,-79.40673828125
8.250757217407227,-1357107123,0,2.5442190170288086,-1.5677696466445923,2.461461067199707,104.1259765625,241.14990234375,325.0732421875
8.264734268188477,-1357107128,1,-0.6815565824508667,0.45092934370040894,0.8456248044967651,-55.11474609375,67.81005859375,-107.421875
8.264837265014648,-1357107109,1,-0.7086561918258667,0.40161293745040894,1.0233591794967651,-25.45166015625,72.3876953125,-115.41748046875
8.2795991897583,-1357107104,0,2.3945608139038086,-1.6966758966445923,2.057164192199707,173.76708984375,334.8388671875,312.5
8.279673099517822,-1357107085,0,2.1855764389038086,-1.8639122247695923,1.5373889207839966,243.59130859375,381.7138671875,348.5107421875
8.301076412200928,-1357107090,1,-0.5968397855758667,0.33935707807540894,1.1805857419967651,34.5458984375,102.11181640625,-96.86279296875
8.301084280014038,-1357107071,1,-0.7884901762008667,0.8881852030754089,0.5817087888717651,57.6171875,190.185546875,-96.0693359375
8.309820175170898,-1357107066,0,2.2712697982788086,-1.8187462091445923,1.3425647020339966,292.90771484375,404.052734375,400.634765625
8.324777364730835,-1357107052,1,-2.0587539672851562,1.4509294033050537,-0.5652638673782349,-102.5390625,122.6806640625,2.01416015625
8.347537279129028,-1357107047,0,2.3899221420288086,-1.7181602716445923,1.3061877489089966,298.40087890625,486.75537109375,455.078125
8.348342180252075,-1357107028,0,2.3432912826538086,-1.7181602716445923,1.0271350145339966,280.94482421875,565.85693359375,485.53466796875
8.356131076812744,-1357107033,1,-1.7269667387008667,0.46582192182540894,-0.13337911665439606,-270.32470703125,-19.775390625,144.34814453125
8.356139183044434,-1357107014,1,-1.2201308012008667,0.28003090620040894,0.29191386699676514,-197.32666015625,46.44775390625,141.9677734375
8.383504152297974,-1357106995,1,-1.1327284574508667,0.38183754682540894,0.6593455076217651,-139.22119140625,180.35888671875,129.94384765625
8.400068283081055,-1357107009,0,1.9665822982788086,-1.6163536310195923,0.5398302674293518,271.05712890625,588.7451171875,516.29638671875
8.400075197219849,-1357106973,0,1.5351858139038086,-1.4061485528945923,-0.019251760095357895,225.28076171875,431.640625,565.49072265625
8.414544105529785,-1357106959,1,-1.0773085355758667,0.13696451485157013,0.04923807457089424,-167.66357421875,342.6513671875,112.3046875
8.429660320281982,-1357106954,0,1.5437307357788086,-0.9984337091445923,-0.1147107481956482,186.6455078125,364.31884765625,602.294921875
8.429745197296143,-1357106935,0,1.5378713607788086,-0.6900840997695923,-0.2270154356956482,158.8134765625,295.95947265625,590.51513671875
8.450024366378784,-1357106940,1,-1.6771620512008667,-0.10961751639842987,-0.12605489790439606,-221.49658203125,418.02978515625,139.5263671875
8.450030088424683,-1357106921,1,-1.7477186918258667,0.06811685860157013,0.47599589824676514,-212.890625,340.27099609375,250.48828125
8.473577976226807,-1357106902,1,-1.5091933012008667,0.20581217110157013,0.5511912107467651,-267.02880859375,183.9599609375,259.27734375
8.497437238693237,-1357106916,0,1.4968557357788086,-0.4349571466445923,-0.3544568419456482,143.6767578125,195.068359375,553.5888671875
8.497444152832031,-1357106897,0,1.4001760482788086,-0.04164658486843109,-0.2411755919456482,124.81689453125,113.83056640625,496.7041015625
8.504692316055298,-1357106883,1,-1.2374647855758667,0.21338053047657013,0.42936503887176514,-296.9970703125,119.384765625,277.83203125
8.504780054092407,-1357106864,1,-1.0008925199508667,0.19140787422657013,0.12248025834560394,-233.33740234375,260.6201171875,293.8232421875
8.519816160202026,-1357106878,0,1.3147268295288086,0.1846717745065689,0.019810739904642105,106.689453125,64.208984375,437.56103515625
8.519938230514526,-1357106859,0,1.2055959701538086,0.1915077120065689,0.2727404236793518,107.97119140625,36.9873046875,404.052734375
8.521013021469116,-1357106840,0,1.0239553451538086,0.2315467745065689,0.4521837830543518,128.2958984375,16.845703125,388.427734375
8.534760236740112,-1357106845,1,-0.8732069730758667,0.25366371870040894,0.33170878887176514,-167.17529296875,437.6220703125,311.95068359375
8.564570188522339,-1357106826,1,-0.8192518949508667,0.22046060860157013,0.5707224607467651,-155.45654296875,475.2197265625,324.52392578125
8.565420150756836,-1357106807,1,-0.6969374418258667,-0.07617025077342987,0.9352244138717651,-163.63525390625,374.45068359375,320.49560546875
8.597050189971924,-1357106788,1,-0.4139784872531891,0.23559732735157013,0.9562205076217651,-156.55517578125,251.15966796875,269.4091796875
8.609574317932129,-1357106821,0,0.9880666732788086,0.2930701971054077,0.4111681580543518,105.3466796875,48.095703125,366.88232421875
8.624841213226318,-1357106769,1,-0.6752089262008667,0.29687660932540894,0.7977732419967651,-146.728515625,225.52490234375,246.76513671875
8.624954223632812,-1357106750,1,-0.8163222074508667,0.5915543437004089,0.6710642576217651,-112.73193359375,308.837890625,287.04833984375
8.648267984390259,-1357106802,0,1.0527639389038086,0.4288123846054077,0.3379259705543518,23.4375,85.51025390625,294.43359375
8.648275375366211,-1357106783,0,1.2373342514038086,0.5679725408554077,0.4140978455543518,-17.63916015625,96.6796875,192.138671875
8.64828109741211,-1357106764,0,1.3396291732788086,0.6382850408554077,0.5791369080543518,3.0517578125,106.4453125,60.36376953125
8.648935317993164,-1357106745,0,1.0813283920288086,0.5342811346054077,0.5600939393043518,-28.99169921875,147.705078125,63.720703125
8.656153202056885,-1357106731,1,-0.8866347074508667,0.5461441874504089,0.7843455076217651,-109.92431640625,375.54931640625,324.70703125
8.66965126991272,-1357106709,0,0.7160940170288086,0.5401405096054077,0.5959826111793518,-156.005859375,191.0400390625,185.05859375
8.69912600517273,-1357106695,1,-0.2325820028781891,0.46826332807540894,0.6810740232467651,-141.2353515625,210.38818359375,271.54541015625
8.70306921005249,-1357106690,0,0.6208791732788086,0.5879920721054077,0.6108751893043518,-143.5546875,106.3232421875,130.2490234375
8.703075170516968,-1357106671,0,0.5959768295288086,0.4522498846054077,0.7522326111793518,-140.0146484375,67.68798828125,104.8583984375
8.728881120681763,-1357106652,0,0.5276174545288086,0.3523963689804077,0.8088732361793518,-195.61767578125,96.6796875,138.97705078125
8.729767322540283,-1357106633,0,0.6916799545288086,0.5413612127304077,0.9597521424293518,-286.2548828125,175.29296875,168.45703125
8.750179052352905,-1357106676,1,-0.04947653040289879,0.49780434370040894,0.32829082012176514,-150.20751953125,168.27392578125,179.99267578125
8.750192165374756,-1357106657,1,0.01717386022210121,0.5397965312004089,0.27311503887176514,-171.69189453125,181.09130859375,135.6201171875
8.750200033187866,-1357106638,1,-0.06949606537818909,0.6018082499504089,0.27799785137176514,-216.552734375,159.3017578125,138.671875
8.75961422920227,-1357106614,0,0.7756643295288086,0.7662147283554077,1.0588732957839966,-344.23828125,267.2119140625,145.1416015625
8.774620294570923,-1357106619,1,0.07112893462181091,0.5068375468254089,0.27311503887176514,-253.662109375,129.69970703125,124.45068359375
8.774697303771973,-1357106600,1,0.1665879189968109,0.5087906718254089,0.25944316387176514,-276.4892578125,112.060546875,79.2236328125
8.797237157821655,-1357106595,0,0.5073537826538086,0.6189979314804077,1.2632189989089966,-354.6142578125,306.2744140625,75.25634765625
8.804661989212036,-1357106581,1,0.1343613564968109,0.6005875468254089,0.30485332012176514,-293.3349609375,106.87255859375,22.64404296875
8.804800033569336,-1357106562,1,0.09920510649681091,0.6057144999504089,0.38004863262176514,-327.94189453125,85.205078125,-27.40478515625
8.819796323776245,-1357106576,0,0.2893362045288086,0.5315955877304077,1.4763537645339966,-337.58544921875,270.751953125,31.25
8.819910287857056,-1357106557,0,0.0012502819299697876,0.3875526189804077,1.7981311082839966,-325.5615234375,268.06640625,-21.42333984375
8.845459222793579,-1357106543,1,0.06673440337181091,0.5590836405754089,0.47111308574676514,-369.7509765625,62.98828125,-60.60791015625
8.849839210510254,-1357106538,0,-0.2853708267211914,0.3353065252304077,1.9519397020339966,-323.54736328125,288.87939453125,-50.6591796875
8.853943109512329,-1357106519,0,-0.6635446548461914,0.03525771200656891,1.9736682176589966,-301.81884765625,288.14697265625,-105.5908203125
8.86475920677185,-1357106524,1,-0.05191793665289879,0.44482582807540894,0.7242869138717651,-413.2080078125,32.71484375,-114.44091796875
8.864820957183838,-1357106505,1,-0.1896132528781891,0.28149574995040894,1.0756052732467651,-463.5009765625,-22.0947265625,-188.5986328125
8.882021188735962,-1357106500,0,-1.1706247329711914,-0.4671837091445923,1.8064318895339966,-247.25341796875,190.97900390625,-115.29541015625
