sync_time,timestamp_ms,device_id,ax,ay,az,gx,gy,gz
0.005964040756225586,-1270339894,0,0.8929821252822876,0.3814937174320221,-0.4350089132785797,-25.146484375,-50.1708984375,-99.67041015625
0.00603795051574707,-1270339875,0,0.7696911096572876,0.2855464518070221,-0.4611319601535797,-17.02880859375,-46.93603515625,-72.93701171875
0.01839303970336914,-1270339890,1,-0.11802779138088226,0.7932032346725464,0.5451629161834717,74.52392578125,-9.765625,44.0673828125
0.0184938907623291,-1270339871,1,-0.15464888513088226,0.7407130002975464,0.47631528973579407,81.35986328125,40.58837890625,43.88427734375
0.044029951095581055,-1270339856,0,0.7001110315322876,0.2350093424320221,-0.4228018820285797,-8.056640625,-21.1181640625,-74.89013671875
0.04842805862426758,-1270339852,1,-0.19249068200588226,0.7787989377975464,0.42528989911079407,86.7919921875,51.69677734375,33.87451171875
0.06299686431884766,-1270339820,0,0.6979137659072876,0.1437007486820221,-0.4286612570285797,-14.95361328125,-18.798828125,-138.5498046875
0.07815194129943848,-1270339833,1,-0.11070357263088226,0.7460840940475464,0.48461607098579407,106.93359375,41.56494140625,38.9404296875
0.07828593254089355,-1270339814,1,0.013319868594408035,0.7216700315475464,0.5026824474334717,114.6240234375,49.13330078125,59.6923828125
0.09844493865966797,-1270339801,0,0.6300426721572876,0.2279292643070221,-0.5360831022262573,-10.68115234375,-32.53173828125,-127.50244140625
0.10833311080932617,-1270339795,1,-0.048935990780591965,0.7568262815475464,0.49023130536079407,106.87255859375,84.716796875,33.69140625
0.10846400260925293,-1270339776,1,-0.033310990780591965,0.7641505002975464,0.43920591473579407,92.22412109375,105.224609375,14.58740234375
0.12315583229064941,-1270339782,0,0.6048961877822876,0.2076655924320221,-0.5507315397262573,-10.68115234375,-8.85009765625,-119.0185546875
0.1232450008392334,-1270339763,0,0.5687633752822876,0.2630855143070221,-0.5983389616012573,1.77001953125,44.43359375,-143.98193359375
0.15240693092346191,-1270339744,0,0.6214977502822876,0.3814937174320221,-0.4674796164035797,22.15576171875,71.22802734375,-164.48974609375
0.15334391593933105,-1270339725,0,0.6500622034072876,0.4078609049320221,-0.5282706022262573,7.38525390625,63.17138671875,-156.494140625
0.16798782348632812,-1270339740,1,-0.031113725155591965,0.8723047971725464,0.30688169598579407,62.5,124.51171875,2.99072265625
0.16809701919555664,-1270339721,1,0.08827103674411774,0.7624415159225464,0.32250669598579407,45.2880859375,98.388671875,2.197265625
0.19538402557373047,-1270339706,0,0.6288219690322876,0.3321773111820221,-0.5094717741012573,-3.60107421875,72.08251953125,-139.95361328125
0.19990801811218262,-1270339702,1,0.10267533361911774,0.7946680784225464,0.37597349286079407,42.6025390625,86.48681640625,-6.16455078125
0.21323013305664062,-1270339687,0,0.6547008752822876,0.2054683268070221,-0.4132803976535797,-23.49853515625,63.96484375,-112.24365234375
0.21331405639648438,-1270339668,0,0.6612926721572876,0.2835933268070221,-0.2421378195285797,-36.31591796875,-25.7568359375,-99.79248046875
0.22793006896972656,-1270339683,1,0.050429243594408035,0.7050684690475464,0.30468443036079407,58.28857421875,57.43408203125,-20.56884765625
0.22803807258605957,-1270339664,1,0.006972212344408035,0.6186426877975464,0.25487974286079407,92.7734375,3.84521484375,3.35693359375
0.24792003631591797,-1270339649,0,0.4784313440322876,0.2572261393070221,-0.2711905539035797,-47.2412109375,-65.36865234375,-65.12451171875
0.2581050395965576,-1270339645,1,-0.11558638513088226,0.6660059690475464,0.17236019670963287,117.919921875,-16.357421875,-33.99658203125
0.25824785232543945,-1270339626,1,-0.07798872888088226,0.9316309690475464,0.12353207170963287,136.1083984375,-32.5927734375,-79.58984375
0.27309584617614746,-1270339630,0,0.4117809534072876,0.3353511393070221,-0.4057120382785797,-107.11669921875,-76.23291015625,-45.22705078125
0.27319908142089844,-1270339611,0,0.3981090784072876,0.4312984049320221,-0.6791495084762573,-166.50390625,-12.6953125,-68.9697265625
0.2958550453186035,-1270339607,1,0.09315384924411774,0.9885157346725464,0.12914730608463287,149.658203125,-25.390625,-133.97216796875
0.30274081230163574,-1270339592,0,0.3285290002822876,0.5965815782546997,-0.7680166959762573,-223.388671875,51.94091796875,-92.6513671875
0.3177509307861328,-1270339588,1,0.22523392736911774,1.0949610471725464,0.08056332170963287,158.75244140625,16.11328125,-147.216796875
0.3178391456604004,-1270339569,1,-0.13926802575588226,0.9689844846725464,0.013668794184923172,137.63427734375,15.13671875,-127.01416015625
0.3439610004425049,-1270339556,0,0.3624645471572876,0.6578608751296997,-0.5299795866012573,-142.7001953125,158.99658203125,-141.11328125
0.3501098155975342,-1270339550,1,0.08021439611911774,0.9716700315475464,0.029537934809923172,142.15087890625,51.57470703125,-145.263671875
0.3626868724822998,-1270339537,0,0.3634411096572876,0.7489253282546997,-0.4486807882785797,-109.375,127.01416015625,-140.0146484375
0.36275815963745117,-1270339518,0,0.5528942346572876,0.7137690782546997,-0.3659171164035797,-92.34619140625,115.1123046875,-157.2265625
0.3790261745452881,-1270339531,1,-0.043809037655591965,0.9880274534225464,0.012203950434923172,154.4189453125,78.125,-140.56396484375
0.37903404235839844,-1270339512,1,-0.16441451013088226,1.0060938596725464,0.16625668108463287,171.81396484375,101.62353515625,-122.37548828125
0.39784908294677734,-1270339499,0,0.6627575159072876,0.6012202501296997,-0.3178214132785797,-94.29931640625,101.74560546875,-166.32080078125
0.4077138900756836,-1270339476,1,-0.44151410460472107,1.0100001096725464,0.09057308733463287,190.49072265625,75.25634765625,-187.80517578125
0.4226369857788086,-1270339480,0,0.6879040002822876,0.6168452501296997,-0.1676749289035797,-129.08935546875,108.154296875,-189.8193359375
0.4227590560913086,-1270339461,0,0.6222301721572876,0.6178218126296997,-0.07050695270299911,-181.09130859375,112.12158203125,-188.96484375
0.45173192024230957,-1270339442,0,0.4772106409072876,0.5653315782546997,-0.10566320270299911,-241.14990234375,117.00439453125,-192.0166015625
0.4678168296813965,-1270339457,1,-0.28428754210472107,0.8747462034225464,0.004635591059923172,207.6416015625,51.6357421875,-227.11181640625
0.46791911125183105,-1270339438,1,-0.22691451013088226,0.8176172971725464,0.05956723168492317,229.98046875,50.23193359375,-236.4501953125
0.4687039852142334,-1270339419,1,-0.14439497888088226,0.8300684690475464,0.13988949358463287,231.38427734375,41.56494140625,-238.6474609375
0.4931480884552002,-1270339423,0,0.4496227502822876,0.6390620470046997,-0.1793936789035797,-251.953125,89.111328125,-193.84765625
0.49315595626831055,-1270339404,0,0.5238415002822876,0.6698237657546997,-0.2401846945285797,-222.16796875,21.91162109375,-157.1044921875
0.4975879192352295,-1270339400,1,0.019667524844408035,0.6684473752975464,0.28002622723579407,189.39208984375,32.77587890625,-208.3740234375
0.5126399993896484,-1270339385,0,0.6122204065322876,0.5291987657546997,-0.3222159445285797,-186.03515625,9.6435546875,-93.3837890625
0.512721061706543,-1270339366,0,0.6205211877822876,0.2049800455570221,-0.3737296164035797,-165.8935546875,65.673828125,-15.68603515625
0.527534008026123,-1270339381,1,-0.061143022030591965,0.6389063596725464,0.44970396161079407,128.173828125,22.216796875,-161.9873046875
0.5276248455047607,-1270339362,1,-0.051377397030591965,0.4113672971725464,0.5312469005584717,67.5048828125,-15.869140625,-153.38134765625
0.5474700927734375,-1270339347,0,0.5275036096572876,0.005517154932022095,-0.1925772726535797,-143.12744140625,87.46337890625,36.80419921875
0.5574378967285156,-1270339343,1,-0.09385786950588226,0.2267969697713852,0.46801450848579407,21.54541015625,-43.3349609375,-157.89794921875
0.5722999572753906,-1270339328,0,0.5087047815322876,-0.1087406575679779,-0.07319249957799911,-152.89306640625,88.623046875,76.66015625
0.5942151546478271,-1270339324,1,-0.20616255700588226,0.3022364377975464,0.37109068036079407,19.10400390625,-71.533203125,-179.931640625
0.5942230224609375,-1270339305,1,-0.18663130700588226,0.4179590940475464,0.29687193036079407,44.677734375,-96.19140625,-203.369140625
0.6023190021514893,-1270339292,0,0.5206676721572876,-0.0625980794429779,-0.032176874577999115,-224.609375,88.5009765625,63.53759765625
0.6181309223175049,-1270339286,1,-0.17369185388088226,0.3549708127975464,0.33886411786079407,82.21435546875,-100.2197265625,-203.30810546875
0.618196964263916,-1270339267,1,-0.34336957335472107,0.4145411252975464,0.47265318036079407,126.77001953125,-95.15380859375,-212.646484375
0.6423001289367676,-1270339273,0,0.5670543909072876,-0.0853031575679779,-0.017528437077999115,-235.77880859375,41.748046875,16.41845703125
0.6423079967498779,-1270339254,0,0.7948375940322876,0.059472233057022095,0.10161218792200089,-247.1923828125,15.7470703125,-4.638671875
0.648205041885376,-1270339248,1,-0.6199809312820435,0.5551661252975464,0.47387388348579407,141.66259765625,-120.4833984375,-223.388671875
0.6624810695648193,-1270339235,0,1.0245739221572876,0.2445308268070221,0.2581063210964203,-282.958984375,7.99560546875,1.708984375
0.6626009941101074,-1270339216,0,1.0758434534072876,0.3841792643070221,0.3057137429714203,-303.64990234375,-20.263671875,13.5498046875
0.6771130561828613,-1270339212,1,-0.7452250719070435,0.6379297971725464,0.42431333661079407,163.9404296875,-198.66943359375,-218.26171875
0.6972770690917969,-1270339197,0,1.1014782190322876,0.3084956705570221,0.3362313210964203,-316.46728515625,-49.74365234375,20.8740234375
0.707190990447998,-1270339193,1,-0.8013774156570435,0.5551661252975464,0.5815398693084717,178.03955078125,-210.63232421875,-195.556640625
0.7256801128387451,-1270339178,0,1.1686168909072876,0.1981441080570221,0.3582039773464203,-313.96484375,-76.2939453125,18.00537109375
0.7256910800933838,-1270339159,0,1.1644665002822876,0.012108951807022095,0.4905281960964203,-307.2509765625,-81.60400390625,29.1748046875
0.7451062202453613,-1270339174,1,-0.8135844469070435,0.4350489377975464,0.6750457286834717,189.75830078125,-223.20556640625,-181.640625
0.7451140880584717,-1270339155,1,-0.9307719469070435,0.2360743135213852,0.7072722911834717,190.5517578125,-230.46875,-162.4755859375
0.7523460388183594,-1270339140,0,1.1258922815322876,-0.1438969075679779,0.6885262727737427,-312.07275390625,-80.4443359375,30.82275390625
0.7679879665374756,-1270339136,1,-1.0833598375320435,0.02904306724667549,0.7138640880584717,215.576171875,-236.6943359375,-158.02001953125
0.7679998874664307,-1270339117,1,-1.2657328844070435,-0.05616201087832451,0.7121551036834717,252.25830078125,-235.16845703125,-154.84619140625
0.7927119731903076,-1270339121,0,1.1041637659072876,-0.2864750325679779,0.9805184602737427,-324.52392578125,-88.68408203125,8.48388671875
0.792722225189209,-1270339102,0,1.0922008752822876,-0.3067387044429779,1.1208993196487427,-337.58544921875,-103.3935546875,-39.85595703125
0.7975759506225586,-1270339098,1,-1.3216410875320435,-0.09131826460361481,0.7924773693084717,289.36767578125,-220.88623046875,-153.564453125
0.8122439384460449,-1270339083,0,1.1730114221572876,-0.3902347981929779,1.2197762727737427,-351.6845703125,-119.7509765625,-88.19580078125
0.8123869895935059,-1270339064,0,1.2606579065322876,-0.4097660481929779,1.2017098665237427,-359.43603515625,-136.04736328125,-109.31396484375
0.8272049427032471,-1270339079,1,-1.3191996812820435,-0.1418553739786148,0.9086883068084717,315.61279296875,-209.5947265625,-142.4560546875
0.8272490501403809,-1270339060,1,-1.3497172594070435,-0.08057607710361481,1.0519988536834717,340.14892578125,-195.73974609375,-121.2158203125
0.872204065322876,-1270339028,0,1.3314586877822876,-0.4178226888179779,1.0352059602737427,-348.08349609375,-130.67626953125,-136.16943359375
0.872305154800415,-1270339009,0,1.3346325159072876,-0.4405277669429779,1.0205575227737427,-333.06884765625,-119.44580078125,-172.119140625
0.8932139873504639,-1270339041,1,-1.4153910875320435,0.03368173912167549,1.0676238536834717,342.22412109375,-190.4296875,-101.9287109375
0.8932220935821533,-1270339022,1,-1.3846293687820435,0.09422861039638519,1.0971648693084717,343.56689453125,-177.734375,-98.7548828125
0.8938789367675781,-1270339003,1,-1.3863383531570435,0.1599024385213852,1.0910613536834717,356.01806640625,-155.09033203125,-91.9189453125
0.9021120071411133,-1270338990,0,1.4774547815322876,-0.4532230794429779,1.0071297883987427,-328.61328125,-124.93896484375,-226.806640625
0.9431259632110596,-1270338971,0,1.6981579065322876,-0.4556644856929779,0.9663583040237427,-320.3125,-137.87841796875,-256.7138671875
0.9431338310241699,-1270338952,0,1.8551403284072876,-0.3396976888179779,0.7424813508987427,-310.60791015625,-154.23583984375,-271.6064453125
0.949099063873291,-1270338984,1,-1.4256449937820435,0.2590235471725464,1.2409636974334717,393.1884765625,-117.431640625,-73.42529296875
0.9491069316864014,-1270338948,1,-1.4090434312820435,0.7421778440475464,1.4931609630584717,404.60205078125,-96.435546875,-24.4140625
0.9620559215545654,-1270338933,0,1.8522106409072876,-0.1854008138179779,0.4368172585964203,-283.0810546875,-154.6630859375,-262.51220703125
0.9621419906616211,-1270338914,0,1.8341442346572876,-0.3455570638179779,0.2615242898464203,-214.53857421875,-131.65283203125,-260.7421875
0.9771089553833008,-1270338929,1,-1.2330180406570435,0.7648829221725464,1.5119597911834717,346.74072265625,-86.12060546875,-9.46044921875
0.9772121906280518,-1270338910,1,-1.1480571031570435,0.5798243284225464,1.6115691661834717,309.6923828125,-18.6767578125,34.60693359375
0.9975979328155518,-1270338895,0,1.8780895471572876,-0.5918949842453003,0.4067879617214203,-137.6953125,-122.00927734375,-285.5224609375
1.0067100524902344,-1270338891,1,-1.3411723375320435,0.5063380002975464,1.7111785411834717,307.7392578125,34.7900390625,90.02685546875
1.0218889713287354,-1270338876,0,2.090247869491577,-0.7676762342453003,0.7495614290237427,-66.162109375,-151.30615234375,-333.67919921875
1.021955966949463,-1270338857,0,2.317786931991577,-0.8938969373703003,0.9346200227737427,-41.1376953125,-197.57080078125,-360.65673828125
1.0443840026855469,-1270338872,1,-1.6111918687820435,0.4201563596725464,1.8471648693084717,321.35009765625,77.08740234375,157.28759765625
1.045069932937622,-1270338853,1,-1.7974711656570435,0.4155176877975464,2.0090301036834717,335.75439453125,83.3740234375,205.26123046875
1.0519158840179443,-1270338838,0,2.329261541366577,-0.9397953748703003,0.9128915071487427,-38.02490234375,-213.2568359375,-359.19189453125
1.0673861503601074,-1270338834,1,-1.9317485094070435,0.4914454221725464,2.0024383068084717,326.35498046875,84.28955078125,220.88623046875
1.0675370693206787,-1270338815,1,-1.9376078844070435,0.4755762815475464,2.0131804943084717,320.86181640625,82.33642578125,208.43505859375
1.0919559001922607,-1270338819,0,2.334632635116577,-0.9478520154953003,0.8889657258987427,-32.958984375,-200.1953125,-360.04638671875
1.0919651985168457,-1270338800,0,2.336097478866577,-1.0452641248703003,0.8896981477737427,-30.8837890625,-191.34521484375,-379.638671875
1.0964760780334473,-1270338796,1,-1.8118754625320435,0.4577540159225464,2.1005828380584717,335.5712890625,93.1396484375,198.486328125
1.1137959957122803,-1270338764,0,2.366859197616577,-0.9588383436203003,0.6775399446487427,-20.56884765625,-196.4111328125,-364.501953125
1.1268179416656494,-1270338777,1,-1.7481547594070435,0.4995020627975464,2.1420867443084717,330.13916015625,99.365234375,206.9091796875
1.1269218921661377,-1270338758,1,-1.7232524156570435,0.6057032346725464,2.0771453380584717,306.57958984375,92.46826171875,189.51416015625
1.1450951099395752,-1270338745,0,2.239906072616577,-0.8475102186203003,0.6001473665237427,-33.75244140625,-162.841796875,-317.0166015625
1.1570532321929932,-1270338739,1,-1.6097270250320435,0.5654200315475464,1.9135711193084717,267.822265625,62.07275390625,159.85107421875
1.1717000007629395,-1270338726,0,1.9264293909072876,-0.6683109998703003,0.5088387727737427,-49.4384765625,-127.8076171875,-266.90673828125
1.171799898147583,-1270338707,0,1.6644665002822876,-0.5333012342453003,0.4490242898464203,-57.80029296875,-85.75439453125,-244.93408203125
1.1932849884033203,-1270338720,1,-1.4429789781570435,0.5380762815475464,1.5148894786834717,226.4404296875,36.92626953125,125.244140625
1.2014219760894775,-1270338688,0,1.4859997034072876,-0.5049809217453003,0.3601571023464203,-65.24658203125,-26.79443359375,-234.68017578125
1.2164199352264404,-1270338684,1,-1.1160746812820435,0.4274805784225464,1.2443816661834717,203.91845703125,59.02099609375,35.58349609375
1.2164909839630127,-1270338665,1,-0.9498149156570435,0.3405665159225464,1.1386687755584717,188.90380859375,57.373046875,-18.9208984375
1.2424869537353516,-1270338669,0,1.3160778284072876,-0.5147465467453003,0.3245125710964203,-84.16748046875,31.43310546875,-212.21923828125
1.242494821548462,-1270338650,0,1.0953747034072876,-0.4747074544429779,0.2539559304714203,-104.00390625,74.3408203125,-190.00244140625
1.2486178874969482,-1270338646,1,-0.7278910875320435,0.4418848752975464,0.8913543224334717,174.37744140625,57.2509765625,-75.3173828125
1.2614121437072754,-1270338631,0,0.9657360315322876,-0.2222660481929779,0.07378015667200089,-114.07470703125,104.6142578125,-185.72998046875
1.2763519287109375,-1270338627,1,-0.39122113585472107,0.6232813596725464,0.7136199474334717,174.072265625,66.162109375,-96.25244140625
1.2764451503753662,-1270338608,1,-0.00010786578059196472,0.8984278440475464,0.6030242443084717,167.8466796875,102.72216796875,-47.42431640625
1.298666000366211,-1270338612,0,0.9628063440322876,0.1256343424320221,-0.2978018820285797,-84.47265625,80.2001953125,-202.0263671875
1.2986748218536377,-1270338593,0,0.9711071252822876,0.3927241861820221,-0.5656241178512573,5.37109375,30.57861328125,-212.646484375
1.3062520027160645,-1270338589,1,0.045790571719408035,1.0363672971725464,0.5397918224334717,140.7470703125,162.65869140625,48.583984375
1.3214011192321777,-1270338574,0,0.9574352502822876,0.4181148111820221,-0.5685538053512573,86.12060546875,-4.39453125,-217.8955078125
1.3215110301971436,-1270338555,0,0.8412243127822876,0.3414546549320221,-0.3791007101535797,129.8828125,-5.92041015625,-207.51953125
1.3447389602661133,-1270338570,1,-0.18052779138088226,0.9931544065475464,0.42870786786079407,97.35107421875,196.22802734375,101.1962890625
1.3447468280792236,-1270338551,1,-0.28941449522972107,0.6940821409225464,0.29809263348579407,87.40234375,195.1904296875,88.5009765625
1.351762056350708,-1270338536,0,0.5882946252822876,0.1654292643070221,-0.2118643820285797,102.96630859375,26.123046875,-190.61279296875
1.366375207901001,-1270338532,1,-0.28160199522972107,0.5622462034225464,0.25146177411079407,88.19580078125,185.302734375,49.8046875
1.3928160667419434,-1270338500,0,0.2416149377822876,0.1017085611820221,-0.3703116476535797,14.83154296875,109.375,-183.9599609375
1.397256851196289,-1270338513,1,-0.08189497888088226,0.4963282346725464,0.14135433733463287,98.9990234375,164.00146484375,-7.14111328125
1.3972630500793457,-1270338494,1,0.25086870789527893,0.4059962034225464,0.12548519670963287,117.49267578125,169.921875,-37.59765625
1.4110329151153564,-1270338481,0,0.1173473671078682,0.1488277018070221,-0.4562491476535797,15.625,114.990234375,-206.97021484375
1.426239013671875,-1270338475,1,0.36488237977027893,0.5175684690475464,0.03783871605992317,129.638671875,200.37841796875,-11.962890625
1.4263479709625244,-1270338456,1,0.26283159852027893,0.5432032346725464,0.09643246233463287,133.544921875,219.6044921875,40.10009765625
1.4465630054473877,-1270338462,0,0.2323375940322876,0.2796870768070221,-0.4389151632785797,52.3681640625,80.01708984375,-238.22021484375
1.446570873260498,-1270338443,0,0.4549938440322876,0.4398433268070221,-0.3278311789035797,108.33740234375,3.72314453125,-239.19677734375
1.4709749221801758,-1270338424,0,0.4728161096572876,0.5521479845046997,-0.2438468039035797,135.1318359375,-27.34375,-180.60302734375
1.4717819690704346,-1270338405,0,0.1612926721572876,0.5187007188796997,-0.1791495382785797,141.90673828125,4.94384765625,-123.53515625
1.5031979084014893,-1270338386,0,-0.1106799766421318,0.4737788736820221,-0.2018546164035797,139.95361328125,43.9453125,-119.07958984375
1.5166599750518799,-1270338420,1,-0.16539107263088226,0.5602930784225464,0.009274262934923172,42.90771484375,173.583984375,117.73681640625
1.5168230533599854,-1270338401,1,-0.09874068200588226,0.3918360471725464,-0.23730777204036713,-24.23095703125,143.9208984375,99.06005859375
1.5168838500976562,-1270338382,1,0.059950727969408035,0.2507227659225464,-0.40283510088920593,-20.751953125,160.64453125,64.14794921875
1.5174050331115723,-1270338363,1,0.13880814611911774,0.1569727510213852,-0.38476869463920593,24.35302734375,215.14892578125,57.0068359375
1.5429139137268066,-1270338367,0,-0.2351917028427124,0.3241206705570221,-0.1549796164035797,144.6533203125,59.75341796875,-151.9775390625
1.5429270267486572,-1270338348,0,-0.2188342809677124,0.2335444986820221,-0.11396398395299911,153.4423828125,46.08154296875,-207.82470703125
1.5476248264312744,-1270338344,1,0.12635697424411774,0.1542872041463852,-0.30346986651420593,56.70166015625,253.72314453125,62.19482421875
1.5610318183898926,-1270338329,0,-0.1038440391421318,0.1954585611820221,-0.07905187457799911,140.68603515625,44.73876953125,-246.27685546875
1.5760018825531006,-1270338325,1,0.015028852969408035,0.1733301728963852,-0.24121402204036713,95.64208984375,269.04296875,58.53271484375
1.5760822296142578,-1270338306,1,-0.11509810388088226,0.3210352659225464,-0.21802066266536713,126.953125,259.765625,40.71044921875
1.5982520580291748,-1270338310,0,-0.007652632892131805,0.2596675455570221,-0.07612218707799911,105.28564453125,54.01611328125,-269.6533203125
1.5982608795166016,-1270338291,0,0.050696976482868195,0.3460933268070221,-0.11396398395299911,56.7626953125,79.7119140625,-274.47509765625
1.605837106704712,-1270338287,1,-0.10972701013088226,0.3779200315475464,-0.18286441266536713,153.62548828125,243.10302734375,1.46484375
1.6239349842071533,-1270338272,0,0.047523148357868195,0.3341304361820221,-0.2108878195285797,14.83154296875,113.4033203125,-270.32470703125
1.6437389850616455,-1270338268,1,-0.026475053280591965,0.4304102659225464,-0.11987613141536713,159.36279296875,232.72705078125,-32.28759765625
1.6443901062011719,-1270338249,1,0.09876908361911774,0.5024317502975464,-0.12353824079036713,157.16552734375,225.7080078125,-69.88525390625
1.6511330604553223,-1270338236,0,-0.030357711017131805,0.3941890299320221,-0.4042471945285797,-22.5830078125,168.02978515625,-272.705078125
1.6659209728240967,-1270338230,1,0.24720658361911774,0.5583399534225464,-0.13159488141536713,161.865234375,233.7646484375,-84.16748046875
1.6930689811706543,-1270338217,0,-0.012535445392131805,0.4410640299320221,-0.5023916959762573,-27.52685546875,172.05810546875,-277.587890625
1.6930768489837646,-1270338198,0,0.062415726482868195,0.5638667345046997,-0.5893057584762573,-32.3486328125,172.607421875,-278.99169921875
1.6972551345825195,-1270338211,1,0.23841752111911774,0.7258204221725464,-0.12475894391536713,171.875,249.08447265625,-94.29931640625
1.6972630023956299,-1270338192,1,0.27088823914527893,0.8159083127975464,-0.09472964704036713,169.25048828125,246.76513671875,-110.90087890625
1.7108080387115479,-1270338179,0,0.1349254846572876,0.6158686876296997,-0.7536123991012573,-44.43359375,183.2275390625,-255.06591796875
1.7257299423217773,-1270338156,1,0.5213764905929565,1.0551661252975464,-0.08056949079036713,131.16455078125,217.8955078125,-146.6064453125
1.7458479404449463,-1270338160,0,0.055579788982868195,0.6498042345046997,-0.9193838834762573,-53.77197265625,216.36962890625,-225.76904296875
1.7458570003509521,-1270338141,0,-0.022056929767131805,0.6695796251296997,-1.1417959928512573,-58.7158203125,260.8642578125,-220.458984375
1.7556347846984863,-1270338137,1,0.8836811780929565,1.1205958127975464,-0.16650699079036713,111.6943359375,215.02685546875,-140.93017578125
1.7706429958343506,-1270338122,0,-0.1873401403427124,0.6183100938796997,-1.4108389616012573,-43.3349609375,280.21240234375,-237.12158203125
1.7931439876556396,-1270338118,1,1.2718647718429565,1.1559962034225464,-0.14136050641536713,123.53515625,276.55029296875,-98.57177734375
1.79315185546875,-1270338099,1,1.3939350843429565,1.3290919065475464,-0.16772769391536713,142.333984375,348.2666015625,-53.40576171875
1.8007190227508545,-1270338103,0,-0.3035510778427124,0.5875483751296997,-1.6962393522262573,17.51708984375,260.92529296875,-280.21240234375
1.800849199295044,-1270338084,0,-0.2564319372177124,0.6449214220046997,-1.8078116178512573,65.61279296875,252.197265625,-352.47802734375
1.8155639171600342,-1270338080,1,1.5614155530929565,1.3723047971725464,-0.18457339704036713,174.86572265625,387.14599609375,-11.16943359375
1.841588020324707,-1270338065,0,-0.2452014684677124,0.6307612657546997,-1.8686026334762573,94.90966796875,220.458984375,-399.71923828125
1.8415961265563965,-1270338046,0,-0.0708850547671318,0.3214351236820221,-1.8280752897262573,149.84130859375,154.9072265625,-452.94189453125
1.8460829257965088,-1270338061,1,1.6988667249679565,1.2568262815475464,-0.019046049565076828,204.16259765625,419.7998046875,54.87060546875
1.8460898399353027,-1270338042,1,1.5445698499679565,1.0009669065475464,0.24902035295963287,242.7978515625,430.72509765625,150.5126953125
1.8606441020965576,-1270338027,0,-0.1421741247177124,-0.2725590169429779,-1.6674307584762573,166.44287109375,75.927734375,-471.0693359375
1.8754339218139648,-1270338023,1,1.5094135999679565,0.5974024534225464,0.49682310223579407,273.01025390625,389.16015625,180.2978515625
1.896956205368042,-1270338008,0,-0.2581409215927124,-0.9700688123703003,-1.3070791959762573,100.341796875,27.83203125,-501.46484375
1.9049708843231201,-1270338004,1,1.5821675062179565,0.09349618852138519,0.6879851818084717,372.00927734375,313.17138671875,181.57958984375
1.9063680171966553,-1270337985,1,1.6856831312179565,-0.05347646400332451,0.9997527599334717,495.42236328125,253.47900390625,162.353515625
1.9204421043395996,-1270337972,0,-0.2359241247177124,-1.4439457654953003,-1.0880850553512573,-107.84912109375,-89.41650390625,-571.8994140625
1.945923089981079,-1270337966,1,1.1600483655929565,0.2092188447713852,1.4328582286834717,578.30810546875,162.78076171875,182.9833984375
1.946770191192627,-1270337947,1,1.4671772718429565,0.4072169065475464,1.4841277599334717,547.30224609375,61.09619140625,196.35009765625
1.9511101245880127,-1270337953,0,0.0777965858578682,-1.1763676404953003,-1.3505362272262573,-167.3583984375,-183.77685546875,-540.6494140625
1.951225996017456,-1270337934,0,0.016761429607868195,-1.1973637342453003,-1.2780264616012573,-165.52734375,-247.86376953125,-464.90478515625
1.9657340049743652,-1270337928,1,1.6219624280929565,0.07079111039638519,1.3737761974334717,482.177734375,2.8076171875,237.3046875
1.9918320178985596,-1270337915,0,-0.5552600622177124,-1.2400883436203003,-1.0150870084762573,-136.77978515625,-220.3369140625,-418.701171875
1.99183988571167,-1270337896,0,-0.1924670934677124,-1.3912113904953003,-0.7238272428512573,-131.103515625,-289.1845703125,-413.6962890625
1.9959630966186523,-1270337892,1,0.8194721937179565,0.03783212974667549,0.7548797130584717,471.37451171875,-94.8486328125,271.05712890625
2.0244300365448,-1270337873,1,1.1839741468429565,-0.5857030153274536,0.7739226818084717,494.62890625,-3.90625,300.1708984375
2.0454041957855225,-1270337877,0,-0.5984729528427124,-1.0555180311203003,-0.4760245382785797,-161.1328125,-290.283203125,-414.4287109375
2.045412063598633,-1270337858,0,-0.9427112340927124,-1.2439945936203003,-0.5985831022262573,-104.30908203125,-304.13818359375,-370.849609375
2.0454189777374268,-1270337839,0,-0.5957874059677124,-0.7752445936203003,-0.3974112570285797,60.1806640625,-257.080078125,-390.19775390625
2.0556910037994385,-1270337854,1,0.08582963049411774,-0.6850682497024536,0.9560515880584717,385.1318359375,151.30615234375,365.53955078125
2.055698871612549,-1270337835,1,-0.26793012022972107,-0.4502049684524536,0.8933074474334717,247.86376953125,163.4521484375,305.60302734375
2.070262908935547,-1270337820,0,-0.1993030309677124,-1.1783207654953003,-0.10175695270299911,190.673828125,-205.50537109375,-403.80859375
2.092317819595337,-1270337816,1,-0.6671000719070435,-1.2932225465774536,1.1904265880584717,196.1669921875,157.40966796875,227.35595703125
2.0923287868499756,-1270337797,1,-0.7679301500320435,-1.2180272340774536,1.4660613536834717,218.20068359375,-34.5458984375,70.73974609375
2.100290060043335,-1270337801,0,0.053870804607868195,-1.4124516248703003,1.0625497102737427,114.6240234375,-96.74072265625,-359.2529296875
2.100356101989746,-1270337782,0,-0.1226428672671318,-1.1746586561203003,0.5925790071487427,-160.33935546875,-34.11865234375,-93.1396484375
2.1155340671539307,-1270337778,1,-0.16539107263088226,-0.6479588747024536,1.3381316661834717,105.8349609375,-153.01513671875,-60.24169921875
2.1401479244232178,-1270337763,0,0.2599254846572876,-0.9864262342453003,0.11357507854700089,-165.71044921875,22.4609375,-43.3349609375
2.1455421447753906,-1270337759,1,-0.17393599450588226,-0.9721776247024536,1.1203582286834717,35.94970703125,-121.03271484375,-70.25146484375
2.1456868648529053,-1270337740,1,-0.7051860094070435,-0.9524022340774536,1.1398894786834717,-42.48046875,-70.1904296875,-210.38818359375
2.1604421138763428,-1270337744,0,-0.2459338903427124,-1.2247074842453003,0.1309090554714203,-120.42236328125,92.041015625,62.1337890625
2.1753859519958496,-1270337721,1,-0.6690531969070435,-0.6894627809524536,0.9265105724334717,-132.62939453125,-125.1220703125,-353.57666015625
2.194648027420044,-1270337708,0,-0.0747913047671318,-0.5545414686203003,0.7246590852737427,-125.732421875,247.74169921875,248.10791015625
2.194659948348999,-1270337689,0,-0.3196643590927124,-0.2251957356929779,0.6819344758987427,-173.2177734375,296.630859375,339.17236328125
2.2052700519561768,-1270337702,1,-0.45616254210472107,-0.5883885622024536,0.14941097795963287,-255.7373046875,-212.95166015625,-411.4990234375
2.205383062362671,-1270337683,1,-0.5118266344070435,-0.2688084840774536,-0.5422394275665283,-247.55859375,-223.2666015625,-436.09619140625
2.2201619148254395,-1270337670,0,-0.3902209997177124,-0.0665043294429779,0.6470223665237427,-205.322265625,319.091796875,280.2734375
2.2446200847625732,-1270337664,1,-0.48521527647972107,-0.1416112333536148,-0.6359894275665283,-139.892578125,-150.2685546875,-453.18603515625
2.2501440048217773,-1270337651,0,-0.004722945392131805,0.1976558268070221,0.6929208040237427,-245.7275390625,315.91796875,193.78662109375
2.2502849102020264,-1270337632,0,0.2164684534072876,0.4457027018070221,0.6484872102737427,-280.57861328125,305.6640625,138.427734375
2.265377998352051,-1270337628,1,-0.6622172594070435,0.4755762815475464,-0.34326478838920593,-8.72802734375,-95.0927734375,-419.0673828125
2.2913739681243896,-1270337613,0,0.5028454065322876,0.3756343424320221,0.3938485085964203,-331.11572265625,291.1376953125,94.3603515625
2.2959868907928467,-1270337609,1,-0.7566996812820435,0.6435450315475464,-0.26343080401420593,34.1796875,-115.78369140625,-438.4765625
2.2959940433502197,-1270337590,1,-0.7742778062820435,1.0737208127975464,-0.21216128766536713,90.9423828125,-181.5185546875,-493.22509765625
2.310157060623169,-1270337594,0,0.8016735315322876,0.5157710313796997,0.4207039773464203,-384.8876953125,291.19873046875,87.890625
2.3102362155914307,-1270337575,0,1.1044079065322876,0.7474604845046997,0.4246102273464203,-454.9560546875,238.95263671875,82.8857421875
2.32489013671875,-1270337571,1,-0.7603617906570435,1.2988184690475464,-0.29834291338920593,139.46533203125,-261.23046875,-474.9755859375
2.3454530239105225,-1270337556,0,1.1493297815322876,1.0365229845046997,0.2478524148464203,-510.80322265625,189.697265625,79.16259765625
2.345460891723633,-1270337537,0,1.2574840784072876,1.3294917345046997,0.2058602273464203,-537.04833984375,153.62548828125,76.5380859375
2.3550310134887695,-1270337552,1,-0.8367778062820435,1.4899805784225464,-0.35376283526420593,180.48095703125,-297.30224609375,-464.29443359375
2.3551270961761475,-1270337533,1,-1.0150004625320435,1.6496485471725464,-0.33130189776420593,173.9501953125,-348.5107421875,-460.205078125
2.3699700832366943,-1270337518,0,1.5157848596572876,1.7013179063796997,0.4136238992214203,-549.01123046875,106.0791015625,144.775390625
2.392990827560425,-1270337514,1,-1.3919535875320435,1.6725977659225464,-0.38281556963920593,125.06103515625,-424.560546875,-461.9140625
2.3929991722106934,-1270337495,1,-1.7078715562820435,1.7458399534225464,-0.43530580401420593,32.3486328125,-506.53076171875,-469.6044921875
2.3998708724975586,-1270337499,0,1.6737438440322876,2.0238277912139893,0.5891610383987427,-568.2373046875,76.171875,255.37109375
2.399975061416626,-1270337480,0,1.7523571252822876,2.2020504474639893,0.5244637727737427,-577.33154296875,102.23388671875,400.634765625
2.4147579669952393,-1270337476,1,-1.9263774156570435,1.9506739377975464,-0.5158722400665283,-71.71630859375,-542.05322265625,-486.14501953125
2.4446840286254883,-1270337457,1,-2.061875343322754,2.030019521713257,-0.6743195056915283,-141.7236328125,-536.0107421875,-508.48388671875
2.444829225540161,-1270337438,1,-1.9510356187820435,1.8222559690475464,-0.5913116931915283,-139.46533203125,-505.18798828125,-503.47900390625
2.459901809692383,-1270337444,0,1.8119274377822876,2.0428707599639893,0.6553231477737427,-522.03369140625,181.15234375,498.1689453125
2.4599709510803223,-1270337425,0,1.7906872034072876,1.5196772813796997,0.9951668977737427,-499.69482421875,167.78564453125,472.7783203125
2.4747231006622314,-1270337419,1,-2.444199562072754,1.5060938596725464,-0.48071596026420593,-94.78759765625,-483.94775390625,-477.23388671875
2.4951889514923096,-1270337406,0,2.032142400741577,1.7098628282546997,1.6838876008987427,-496.09375,157.77587890625,435.05859375
2.495203971862793,-1270337387,0,1.7313610315322876,1.9381343126296997,1.6831551790237427,-557.06787109375,187.07275390625,406.31103515625
2.5047221183776855,-1270337400,1,-2.970566749572754,1.6611231565475464,-0.8234894275665283,-49.31640625,-484.2529296875,-470.52001953125
2.519805908203125,-1270337368,0,1.5577770471572876,1.8551265001296997,1.4829598665237427,-580.38330078125,217.95654296875,338.43994140625
2.5422351360321045,-1270337364,1,-2.527207374572754,1.4599512815475464,-1.1176788806915283,25.87890625,-406.18896484375,-576.904296875
2.542243003845215,-1270337345,1,-2.466904640197754,1.3200587034225464,-1.7070343494415283,60.6689453125,-273.62060546875,-537.841796875
2.5496978759765625,-1270337349,0,1.1412731409072876,2.0111324787139893,1.6409188508987427,-532.16552734375,251.46484375,231.0791015625
2.549773931503296,-1270337330,0,0.8121715784072876,2.4403316974639893,1.6807137727737427,-424.8046875,294.677734375,92.46826171875
2.5646939277648926,-1270337326,1,-2.247178077697754,1.3356837034225464,-1.8894073963165283,108.0322265625,-143.00537109375,-501.8310546875
2.590622901916504,-1270337311,0,0.6017223596572876,2.2416012287139893,1.3113290071487427,-372.314453125,341.6748046875,-0.91552734375
2.5965988636016846,-1270337307,1,-1.8572856187820435,1.0754297971725464,-1.4321320056915283,161.07177734375,23.4375,-463.7451171875
2.5966057777404785,-1270337288,1,-2.006943702697754,0.9977930784225464,-0.7773468494415283,213.7451171875,143.9208984375,-499.1455078125
2.6097068786621094,-1270337292,0,0.6058727502822876,1.3976069688796997,1.1292001008987427,-318.78662109375,442.44384765625,-107.0556640625
2.6257259845733643,-1270337269,1,-1.8343364000320435,1.2016505002975464,-0.33325502276420593,278.25927734375,88.80615234375,-611.99951171875
2.644995927810669,-1270337273,0,0.9274059534072876,0.9808589220046997,1.3813973665237427,-338.2568359375,520.1416015625,-164.97802734375
2.645004987716675,-1270337254,0,1.1459118127822876,1.2049800157546997,1.4539071321487427,-439.453125,503.96728515625,-207.03125
2.645010232925415,-1270337235,0,1.8151012659072876,1.2420893907546997,0.8259774446487427,-513.427734375,309.50927734375,-201.66015625
2.654653787612915,-1270337250,1,-1.2642680406570435,1.6415919065475464,-0.14013980329036713,335.63232421875,28.6865234375,-633.60595703125
2.6548027992248535,-1270337231,1,-0.5421000719070435,1.6259669065475464,0.38891294598579407,316.58935546875,-48.88916015625,-450.98876953125
2.6698379516601562,-1270337216,0,1.9786754846572876,0.8927241563796997,-0.3751944601535797,-392.51708984375,176.33056640625,-104.248046875
2.690972089767456,-1270337212,1,-0.7027446031570435,1.5449122190475464,0.6271941661834717,243.5302734375,-45.59326171875,-253.96728515625
2.6993730068206787,-1270337180,0,1.8038707971572876,-0.2491215169429779,0.6667977571487427,-287.2314453125,86.24267578125,-169.00634765625
2.7144501209259033,-1270337193,1,-1.0489360094070435,1.1000880002975464,0.7866179943084717,250.6103515625,-70.4345703125,-185.36376953125
2.714585065841675,-1270337174,1,-1.4576274156570435,1.4020899534225464,0.5642058849334717,340.63720703125,-90.4541015625,-183.2275390625
2.739691972732544,-1270337161,0,1.7359997034072876,0.7015620470046997,0.3098641335964203,-349.12109375,60.60791015625,-206.84814453125
2.7444798946380615,-1270337155,1,-1.3821879625320435,1.6364649534225464,0.40111997723579407,341.73583984375,-69.7021484375,-233.642578125
2.744540214538574,-1270337136,1,-0.9817973375320435,1.9169825315475464,0.44945982098579407,327.33154296875,7.99560546875,-280.2734375
2.7594640254974365,-1270337142,0,1.6595836877822876,0.7896968126296997,0.016895391047000885,-372.0703125,152.9541015625,-217.46826171875
2.759566068649292,-1270337123,0,1.9110485315322876,0.6576167345046997,-0.3009757101535797,-316.0400390625,211.60888671875,-259.33837890625
2.7935869693756104,-1270337104,0,1.9325329065322876,0.5374995470046997,-0.5983389616012573,-291.9921875,229.91943359375,-289.48974609375
2.794724941253662,-1270337085,0,1.8514782190322876,0.2638179361820221,0.06499109417200089,-251.77001953125,276.123046875,-306.15234375
2.8044490814208984,-1270337100,1,-1.0386821031570435,1.6098536252975464,0.8200652599334717,337.58544921875,94.970703125,-233.642578125
2.8045501708984375,-1270337081,1,-1.2454692125320435,1.9277247190475464,0.6711394786834717,377.86865234375,113.46435546875,-263.85498046875
2.8194360733032227,-1270337066,0,2.123695135116577,0.1065913736820221,0.2249031960964203,-296.08154296875,199.8291015625,-386.962890625
2.841707944869995,-1270337062,1,-0.6888285875320435,2.316640615463257,0.8413054943084717,504.94384765625,81.1767578125,-267.9443359375
2.849395990371704,-1270337047,0,2.318031072616577,0.6593257188796997,-0.5138663053512573,-389.70947265625,46.0205078125,-447.20458984375
2.8494949340820312,-1270337028,0,2.325599431991577,0.7630854845046997,-0.9694327116012573,-365.29541015625,43.8232421875,-423.88916015625
2.865025043487549,-1270337043,1,-0.6783305406570435,2.649160146713257,1.1345183849334717,576.66015625,82.45849609375,-205.13916015625
2.8650858402252197,-1270337024,1,-0.8680278062820435,2.390859365463257,1.1818816661834717,505.43212890625,91.61376953125,-163.75732421875
2.8898091316223145,-1270337009,0,2.140296697616577,0.5689936876296997,-0.6493643522262573,-276.3671875,110.53466796875,-366.63818359375
2.895538806915283,-1270337005,1,-1.0191508531570435,1.8508204221725464,1.1210906505584717,404.296875,103.3935546875,-160.70556640625
2.895922899246216,-1270336986,1,-1.0775004625320435,1.4189356565475464,0.8989226818084717,356.0791015625,71.8994140625,-198.30322265625
2.909385919570923,-1270336990,0,1.9496227502822876,0.1952144205570221,-0.3336905539035797,-252.8076171875,149.90234375,-309.2041015625
2.9094960689544678,-1270336971,0,1.5968395471572876,0.1168452799320221,-0.1376456320285797,-284.60693359375,206.23779296875,-266.41845703125
2.924175977706909,-1270336967,1,-1.0599223375320435,1.3871973752975464,0.5786101818084717,357.48291015625,58.77685546875,-248.53515625
2.944965124130249,-1270336952,0,1.4068981409072876,0.2467280924320221,-0.10932531207799911,-326.35498046875,289.61181640625,-276.91650390625
2.9543001651763916,-1270336948,1,-1.0159770250320435,1.4431055784225464,0.5517547130584717,388.3056640625,87.5244140625,-311.34033203125
2.954408884048462,-1270336929,1,-1.1578227281570435,1.5710352659225464,0.6899383068084717,384.6435546875,140.380859375,-321.044921875
2.9711971282958984,-1270336916,0,1.9625622034072876,0.5528804063796997,0.07158289104700089,-274.169921875,332.82470703125,-321.4111328125
2.991339921951294,-1270336910,1,-1.2994242906570435,1.7314356565475464,0.8994109630584717,334.3505859375,157.470703125,-280.82275390625
2.999192953109741,-1270336897,0,2.311683416366577,0.5467768907546997,0.000293828547000885,-228.45458984375,317.7490234375,-292.78564453125
2.999358892440796,-1270336878,0,2.647132635116577,0.2320796549320221,0.041309453547000885,-148.8037109375,339.4775390625,-231.8115234375
3.014314889907837,-1270336891,1,-1.4874125719070435,1.6838282346725464,1.2280242443084717,273.74267578125,181.09130859375,-231.93359375
3.0143229961395264,-1270336872,1,-1.9805766344070435,1.8068751096725464,1.4206511974334717,199.89013671875,220.458984375,-203.79638671875
3.0398309230804443,-1270336859,0,2.858314275741577,-0.034277766942977905,0.1787606179714203,-89.17236328125,378.23486328125,-186.6455078125
3.0446269512176514,-1270336836,1,-1.8213969469070435,1.4213770627975464,1.8288543224334717,131.7138671875,257.62939453125,-223.20556640625
3.0730741024017334,-1270336817,1,-1.8453227281570435,1.2390040159225464,2.2326629161834717,88.37890625,309.08203125,-179.6875
3.0931520462036133,-1270336840,0,2.814857244491577,-0.3804691731929779,0.3840828835964203,-48.64501953125,387.20703125,-161.19384765625
3.09316086769104,-1270336821,0,2.769935369491577,-0.7469242811203003,0.3091317117214203,-0.9765625,375.06103515625,-155.029296875
3.0931661128997803,-1270336802,0,2.647132635116577,-1.1434086561203003,0.2849617898464203,65.49072265625,391.90673828125,-129.150390625
3.0931718349456787,-1270336783,0,2.273353338241577,-1.5555180311203003,0.1870613992214203,125.54931640625,398.86474609375,-48.88916015625
3.104127883911133,-1270336798,1,-1.6761332750320435,0.7614649534225464,2.6149871349334717,14.5263671875,340.88134765625,-163.63525390625
3.1042258739471436,-1270336779,1,-1.2974711656570435,0.3764551877975464,2.8159148693084717,-77.392578125,332.33642578125,-160.5224609375
3.1405680179595947,-1270336760,1,-0.9642192125320435,-0.03321279212832451,2.6596648693084717,-168.701171875,368.1640625,-116.02783203125
3.149595022201538,-1270336764,0,1.7823864221572876,-1.8057621717453003,0.4546395242214203,217.28515625,411.376953125,54.19921875
3.149685859680176,-1270336745,0,1.4110485315322876,-1.8914555311203003,0.4634285867214203,261.53564453125,352.84423828125,135.1318359375
3.1498169898986816,-1270336726,0,0.8776012659072876,-1.6456059217453003,0.3760262429714203,300.59814453125,280.33447265625,167.6025390625
3.1638619899749756,-1270336741,1,-0.8907328844070435,-0.1489354521036148,2.2480437755584717,-254.39453125,317.07763671875,-71.47216796875
3.1639349460601807,-1270336722,1,-0.6844340562820435,-0.05323232337832451,1.6596648693084717,-297.119140625,302.6123046875,-75.86669921875
3.189234972000122,-1270336707,0,0.8224254846572876,-1.2813481092453003,0.2834969460964203,318.7255859375,226.318359375,164.9169921875
3.195189952850342,-1270336703,1,-0.40855512022972107,0.2341211885213852,1.3894011974334717,-284.85107421875,287.29248046875,-73.18115234375
3.2087719440460205,-1270336688,0,1.1024547815322876,-0.6802738904953003,-0.057079218327999115,306.15234375,162.17041015625,154.541015625
3.2238011360168457,-1270336684,1,-0.042100053280591965,0.9055079221725464,1.0573699474334717,-271.8505859375,260.55908203125,-26.0009765625
3.2238900661468506,-1270336665,1,-0.037705522030591965,1.5309962034225464,0.6513640880584717,-279.47998046875,271.42333984375,62.255859375
3.2453930377960205,-1270336652,0,1.4862438440322876,0.3116694986820221,-0.3893546164035797,383.48388671875,21.05712890625,87.0361328125
3.2538328170776367,-1270336646,1,-0.18370161950588226,1.8100489377975464,0.28124693036079407,-274.658203125,286.1328125,148.74267578125
3.253967046737671,-1270336627,1,-0.48838910460472107,1.9831446409225464,0.16283871233463287,-257.01904296875,274.0478515625,224.609375
3.269325017929077,-1270336633,0,1.8273082971572876,0.7943354845046997,-0.1649893820285797,437.43896484375,-49.01123046875,43.45703125
3.269394874572754,-1270336614,0,1.7782360315322876,0.9449702501296997,-0.09394445270299911,434.02099609375,-110.29052734375,42.48046875
3.291043996810913,-1270336608,1,-0.5684672594070435,1.9382227659225464,0.03149105980992317,-279.84619140625,213.9892578125,269.6533203125
3.2988431453704834,-1270336595,0,1.4291149377822876,0.9664546251296997,0.018848516047000885,421.20361328125,-161.80419921875,46.7529296875
3.298935890197754,-1270336576,0,1.2831188440322876,0.9117671251296997,-0.09296789020299911,422.119140625,-193.115234375,16.7236328125
3.3135621547698975,-1270336572,1,-0.27549847960472107,1.4096583127975464,-0.37207338213920593,-266.357421875,143.4326171875,350.89111328125
3.3392648696899414,-1270336557,0,1.0321422815322876,0.8968745470046997,-0.017772577702999115,432.12890625,-219.29931640625,-50.59814453125
3.3436851501464844,-1270336553,1,-0.35923871397972107,1.3754786252975464,-0.48364564776420593,-161.865234375,200.25634765625,392.02880859375
3.359415054321289,-1270336538,0,0.9173961877822876,0.9291011095046997,-0.027538202702999115,447.81494140625,-276.4892578125,-134.1552734375
3.359421968460083,-1270336519,0,1.0243297815322876,0.9527827501296997,-0.001659296452999115,438.5986328125,-264.2822265625,-214.53857421875
3.3737661838531494,-1270336534,1,-0.49473676085472107,1.3903712034225464,-0.5102570056915283,-86.24267578125,252.44140625,440.3076171875
3.3738150596618652,-1270336515,1,-0.6529399156570435,1.3967188596725464,-0.40234681963920593,-15.44189453125,296.0205078125,451.47705078125
3.3928189277648926,-1270336500,0,1.0209118127822876,0.9171382188796997,-0.06391515582799911,393.24951171875,-252.86865234375,-222.900390625
3.4036221504211426,-1270336496,1,-0.7066508531570435,1.3923243284225464,-0.26709291338920593,6.77490234375,274.4140625,407.1044921875
3.4036989212036133,-1270336477,1,-0.47105512022972107,1.1411036252975464,-0.10083316266536713,27.34375,253.47900390625,328.55224609375
3.418782949447632,-1270336481,0,0.9005504846572876,0.7303706407546997,-0.2704581320285797,317.3828125,-173.40087890625,-238.58642578125
3.4188919067382812,-1270336462,0,0.6818004846572876,0.4850093424320221,-0.4635733664035797,269.83642578125,-106.75048828125,-249.08447265625
3.440674066543579,-1270336458,1,-0.06480513513088226,0.9726465940475464,0.012448091059923172,56.94580078125,257.50732421875,268.12744140625
3.4489400386810303,-1270336443,0,0.4620739221572876,0.3470698893070221,-0.6127432584762573,242.73681640625,-62.01171875,-274.5361328125
3.463653087615967,-1270336439,1,0.30238237977027893,0.8222559690475464,0.06542660295963287,76.5380859375,269.1650390625,261.962890625
3.463715076446533,-1270336420,1,0.49793902039527893,0.7465723752975464,0.17919613420963287,104.18701171875,271.484375,287.2314453125
3.4890990257263184,-1270336424,0,0.3539196252822876,0.1766597330570221,-0.6813467741012573,251.46484375,-66.40625,-308.10546875
3.495352029800415,-1270336401,1,0.44959917664527893,0.6689356565475464,0.31005552411079407,161.0107421875,258.4228515625,321.35009765625
3.508686065673828,-1270336388,0,0.2938610315322876,-0.1038578450679779,-0.7543448209762573,210.693359375,-172.18017578125,-354.98046875
3.5087568759918213,-1270336369,0,0.006751663982868195,-0.3736332356929779,-0.9750479459762573,115.478515625,-132.50732421875,-356.5673828125
3.523437023162842,-1270336382,1,0.43495073914527893,0.5717676877975464,0.36254575848579407,195.98388671875,200.50048828125,287.7197265625
3.523528814315796,-1270336363,1,0.8563374280929565,0.3376368284225464,0.44750669598579407,260.986328125,156.1279296875,197.509765625
3.5456619262695312,-1270336350,0,-0.3450549840927124,-0.7171391248703003,-1.1959952116012573,12.6953125,-87.82958984375,-402.89306640625
3.553380012512207,-1270336344,1,1.2454975843429565,0.2180079072713852,0.5256316661834717,337.58544921875,151.18408203125,157.470703125
3.568532943725586,-1270336331,0,-0.4942249059677124,-0.8958500623703003,-1.3925284147262573,-36.68212890625,-72.57080078125,-494.20166015625
3.568626880645752,-1270336312,0,-0.4685901403427124,-0.9466313123703003,-1.2787588834762573,-56.70166015625,-85.75439453125,-571.6552734375
3.59726881980896,-1270336293,0,-0.1895374059677124,-1.2557133436203003,-1.0995596647262573,-88.43994140625,-144.8974609375,-595.39794921875
3.6133639812469482,-1270336308,1,1.3126362562179565,0.1655176728963852,1.0224578380584717,510.986328125,198.8525390625,157.77587890625
3.613480806350708,-1270336289,1,1.1358784437179565,0.006582129746675491,1.5864226818084717,527.34375,160.21728515625,176.3916015625
3.6386759281158447,-1270336274,0,-0.0767444297671318,-1.5779789686203003,-0.9413565397262573,-124.93896484375,-194.27490234375,-556.21337890625
3.6386852264404297,-1270336255,0,-0.2539905309677124,-1.8987797498703003,-0.7699698209762573,-183.10546875,-215.63720703125,-515.44189453125
3.643393039703369,-1270336270,1,0.9925678968429565,-0.3090916872024536,1.7712371349334717,513.12255859375,73.73046875,174.31640625
3.643480062484741,-1270336251,1,1.0990132093429565,-0.6562596559524536,1.6936004161834717,534.97314453125,-8.48388671875,163.02490234375
3.6583101749420166,-1270336236,0,-0.4856799840927124,-2.1902835369110107,-0.4850577414035797,-252.86865234375,-253.72314453125,-515.9912109375
3.6583900451660156,-1270336217,0,-0.4402698278427124,-1.9163578748703003,-0.2360343039035797,-333.0078125,-302.91748046875,-518.310546875
3.6732709407806396,-1270336232,1,1.0340718030929565,-0.7614842653274536,1.7189910411834717,600.15869140625,-39.36767578125,160.64453125
3.6733200550079346,-1270336213,1,0.8722065687179565,-0.6865330934524536,1.4643523693084717,673.03466796875,-89.111328125,144.6533203125
3.6922690868377686,-1270336198,0,-0.6641467809677124,-1.5804203748703003,0.1492196023464203,-372.314453125,-308.837890625,-476.9287109375
3.70558500289917,-1270336194,1,0.5294331312179565,-0.7575780153274536,1.2770965099334717,671.7529296875,-85.87646484375,159.912109375
3.7056009769439697,-1270336175,1,0.16297806799411774,-0.9543553590774536,0.8373992443084717,629.45556640625,-75.74462890625,194.15283203125
3.718369960784912,-1270336179,0,-1.0347522497177124,-1.3008793592453003,0.2375985085964203,-383.11767578125,-318.84765625,-442.7490234375
3.7185041904449463,-1270336160,0,-1.1299670934677124,-0.9510258436203003,0.2852059304714203,-314.8193359375,-314.208984375,-455.74951171875
3.740694046020508,-1270336156,1,0.25404253602027893,-1.0031834840774536,0.9626433849334717,519.83642578125,-58.9599609375,222.900390625
3.7626538276672363,-1270336137,1,-0.29258832335472107,-0.9997655153274536,0.8283660411834717,331.84814453125,60.97412109375,247.37548828125
3.763514995574951,-1270336118,1,-0.7825785875320435,-1.0612889528274536,0.7636687755584717,230.224609375,60.302734375,123.10791015625
3.7872281074523926,-1270336124,0,-0.3504260778427124,-0.7137211561203003,0.2390633523464203,-67.56591796875,-169.25048828125,-415.283203125
3.787235975265503,-1270336105,0,-0.1790393590927124,-0.8836430311203003,0.6267586946487427,-56.640625,-16.90673828125,-270.5078125
3.7931549549102783,-1270336099,1,-0.44810590147972107,-1.0515233278274536,0.9675261974334717,183.16650390625,-29.1748046875,-58.65478515625
3.808116912841797,-1270336086,0,-0.1299670934677124,-0.9996098279953003,0.5593758821487427,-145.263671875,53.7109375,-139.5263671875
3.8082170486450195,-1270336067,0,-0.2144397497177124,-1.0640629529953003,0.3218270242214203,-184.99755859375,93.07861328125,-47.30224609375
3.8229620456695557,-1270336080,1,-0.18858443200588226,-1.0608006715774536,0.9938933849334717,125.06103515625,-85.693359375,-132.38525390625
3.8442060947418213,-1270336048,0,-0.3926624059677124,-0.7464359998703003,0.3286629617214203,-145.20263671875,178.1005859375,61.6455078125
3.8530690670013428,-1270336044,1,-0.33140668272972107,-0.9668065309524536,0.5732390880584717,-40.771484375,-100.830078125,-280.82275390625
3.853173017501831,-1270336025,1,-0.16294966638088226,-0.8725682497024536,0.16283871233463287,-124.3896484375,-105.224609375,-382.568359375
3.8680880069732666,-1270336029,0,-0.5899280309677124,-0.7227543592453003,0.4551278054714203,-116.39404296875,276.06201171875,126.03759765625
3.86820387840271,-1270336010,0,-0.5652698278427124,-0.6282719373703003,0.5986825227737427,-131.16455078125,333.67919921875,140.44189453125
3.8901522159576416,-1270336006,1,-0.035996537655591965,-0.7790623903274536,-0.07202456891536713,-107.97119140625,-74.70703125,-426.7578125
3.898043155670166,-1270335991,0,-0.4222034215927124,-0.5408695936203003,0.6995126008987427,-175.35400390625,350.40283203125,129.33349609375
3.91306209564209,-1270335987,1,-0.25059613585472107,-0.5520116090774536,-0.21240542829036713,-28.38134765625,-43.701171875,-440.12451171875
3.9131429195404053,-1270335968,1,-0.49717816710472107,-0.1994725614786148,-0.21240542829036713,34.48486328125,-45.8984375,-475.03662109375
3.939352035522461,-1270335972,0,-0.2271350622177124,-0.2850101888179779,0.7214852571487427,-254.39453125,361.328125,102.35595703125
3.9402740001678467,-1270335953,0,0.0792614296078682,-0.0650394856929779,0.6562997102737427,-328.4912109375,367.37060546875,75.62255859375
3.9438350200653076,-1270335949,1,-0.5711528062820435,0.09129892289638519,-0.20556949079036713,76.66015625,-64.51416015625,-501.40380859375
3.9580259323120117,-1270335934,0,0.3285290002822876,0.1363765299320221,0.5835458040237427,-375.0,360.16845703125,57.43408203125
3.9581470489501953,-1270335915,0,0.6586071252822876,0.2486812174320221,0.4541512429714203,-424.1943359375,329.2236328125,23.92578125
3.9730610847473145,-1270335930,1,-0.6024028062820435,0.4904688596725464,-0.16797183454036713,133.36181640625,-81.72607421875,-511.8408203125
3.9731571674346924,-1270335911,1,-0.6458598375320435,0.8015040159225464,-0.05884097144007683,200.3173828125,-112.97607421875,-500.67138671875
3.992511034011841,-1270335896,0,0.9706188440322876,0.3917476236820221,0.4211922585964203,-483.82568359375,263.5498046875,-8.544921875
4.002875089645386,-1270335892,1,-0.9046489000320435,1.0612696409225464,-0.11645816266536713,266.05224609375,-171.875,-497.25341796875
4.0178961753845215,-1270335860,0,1.5331188440322876,1.1612788438796997,0.4399910867214203,-625.54931640625,219.482421875,25.2685546875
4.040103197097778,-1270335873,1,-1.0621196031570435,1.2978419065475464,-0.05591128394007683,308.77685546875,-226.1962890625,-533.5693359375
4.040110111236572,-1270335854,1,-1.2662211656570435,1.5781153440475464,0.024899262934923172,289.48974609375,-323.30322265625,-558.9599609375
4.051058769226074,-1270335841,0,1.9745250940322876,1.6966792345046997,0.3518563210964203,-664.36767578125,184.99755859375,141.9677734375
4.062892913818359,-1270335835,1,-1.5223246812820435,2.039785146713257,-0.23242495954036713,201.66015625,-432.9833984375,-539.55078125
4.063010931015015,-1270335816,1,-1.4759379625320435,2.236074209213257,-0.30005189776420593,57.55615234375,-511.71875,-475.5859375
4.089268922805786,-1270335822,0,2.131263494491577,2.3756344318389893,0.1511727273464203,-635.92529296875,157.16552734375,253.72314453125
4.089277029037476,-1270335803,0,2.037757635116577,2.3834469318389893,-0.1662100851535797,-572.1435546875,138.73291015625,424.6826171875
4.122355937957764,-1270335780,1,-1.8785258531570435,2.323720693588257,-0.6904327869415283,-143.49365234375,-549.8046875,-451.59912109375
4.123629093170166,-1270335761,1,-2.141221046447754,2.265859365463257,-0.9572784900665283,-129.33349609375,-538.63525390625,-445.37353515625
4.143834114074707,-1270335784,0,1.9269176721572876,2.2770016193389893,-0.019481562077999115,-498.1689453125,162.4755859375,514.7705078125
4.143844127655029,-1270335765,0,1.8766247034072876,2.2215816974639893,0.5520516633987427,-471.19140625,132.62939453125,519.287109375
4.1529881954193115,-1270335742,1,-1.8231059312820435,2.295644521713257,-1.3300812244415283,-58.59375,-518.310546875,-416.56494140625
4.167718172073364,-1270335746,0,1.7113415002822876,2.3644039630889893,0.6750985383987427,-487.12158203125,110.29052734375,452.57568359375
4.16781210899353,-1270335727,0,1.5143200159072876,2.3233883380889893,0.4805184304714203,-489.80712890625,71.77734375,329.04052734375
4.192353963851929,-1270335723,1,-1.6653910875320435,2.035634756088257,-1.1362335681915283,46.08154296875,-406.67724609375,-371.27685546875
4.192363023757935,-1270335704,1,-1.9327250719070435,1.6000880002975464,-0.9584991931915283,106.50634765625,-261.77978515625,-332.03125
4.197803974151611,-1270335708,0,1.2797008752822876,1.9159175157546997,0.6226083040237427,-441.650390625,107.666015625,177.18505859375
4.197886943817139,-1270335689,0,1.2960582971572876,1.7809077501296997,1.1194344758987427,-386.23046875,140.68603515625,61.8896484375
4.212609052658081,-1270335685,1,-2.140732765197754,1.3019922971725464,-0.8779327869415283,143.4326171875,-193.9697265625,-349.42626953125
4.2127110958099365,-1270335666,1,-1.9703227281570435,0.7846583127975464,-0.8215363025665283,162.53662109375,-157.65380859375,-404.47998046875
4.239236116409302,-1270335670,0,1.0553356409072876,1.5443354845046997,1.2739754915237427,-399.23095703125,189.14794921875,40.8935546875
4.239243984222412,-1270335651,0,0.4552379846572876,0.9129878282546997,1.3562508821487427,-431.57958984375,282.89794921875,17.51708984375
4.243680953979492,-1270335647,1,-1.7776957750320435,0.2433985322713852,-0.8830597400665283,191.22314453125,-103.69873046875,-491.5771484375
4.257573127746582,-1270335632,0,-0.046470992267131805,0.6634761095046997,1.4912606477737427,-451.904296875,374.20654296875,-51.69677734375
4.272599935531616,-1270335628,1,-1.5457621812820435,0.1501368135213852,-1.1193878650665283,256.04248046875,-44.7998046875,-591.1865234375
4.27268385887146,-1270335609,1,-1.3438578844070435,0.3427637815475464,-1.2158234119415283,313.96484375,6.53076171875,-647.64404296875
4.291547060012817,-1270335596,0,-0.022056929767131805,0.8358393907546997,1.6052743196487427,-518.9208984375,469.23828125,-216.1865234375
4.3025031089782715,-1270335590,1,-1.1334086656570435,0.4189356565475464,-0.9401886463165283,417.29736328125,62.31689453125,-652.28271484375
4.317651987075806,-1270335577,0,0.7191540002822876,0.8487788438796997,1.7407723665237427,-553.955078125,325.86669921875,-270.751953125
4.3177809715271,-1270335558,0,1.6754528284072876,1.2950679063796997,0.2561531960964203,-531.25,84.228515625,-195.12939453125
4.3402509689331055,-1270335571,1,-0.6168071031570435,1.1203516721725464,0.12670589983463287,468.68896484375,-38.39111328125,-531.494140625
4.340260028839111,-1270335552,1,-0.30552777647972107,1.4306544065475464,0.8725554943084717,326.72119140625,-82.763671875,-269.47021484375
4.34774112701416,-1270335539,0,1.7154918909072876,0.7013179063796997,-0.2550772726535797,-354.4921875,26.0009765625,-73.30322265625
4.362671136856079,-1270335516,1,-1.3604594469070435,0.6894434690475464,0.21825863420963287,200.74462890625,-108.58154296875,-142.76123046875
4.385123014450073,-1270335520,0,1.0279918909072876,-0.0801762044429779,0.10014734417200089,-254.39453125,26.2451171875,-19.71435546875
4.388560056686401,-1270335501,0,1.2657848596572876,0.3355952799320221,0.7861825227737427,-274.658203125,32.04345703125,-108.7646484375
4.392784118652344,-1270335497,1,-1.2779399156570435,0.9465235471725464,-0.10254214704036713,309.814453125,-82.1533203125,-160.70556640625
4.4074060916900635,-1270335482,0,1.2191540002822876,0.6681147813796997,0.4849129617214203,-303.8330078125,0.48828125,-168.212890625
4.422398805618286,-1270335478,1,-1.2479106187820435,1.0060938596725464,0.013912934809923172,334.716796875,-41.80908203125,-147.5830078125
4.422479152679443,-1270335459,1,-1.0206156969070435,1.2097071409225464,0.23608089983463287,314.63623046875,0.9765625,-157.2265625
4.441702127456665,-1270335463,0,1.2013317346572876,0.7333003282546997,0.2744637429714203,-291.1376953125,53.77197265625,-208.8623046875
4.4417500495910645,-1270335444,0,1.2872692346572876,0.6566401720046997,-0.1801261007785797,-271.1181640625,59.814453125,-204.9560546875
4.452383995056152,-1270335440,1,-0.5308696031570435,1.4631251096725464,0.25707700848579407,304.50439453125,13.427734375,-168.27392578125
4.467511892318726,-1270335425,0,1.1315075159072876,0.6297847032546997,-0.4442862570285797,-245.7275390625,118.10302734375,-218.505859375
4.467597961425781,-1270335406,0,0.8905407190322876,0.2359859049320221,0.2627449929714203,-124.267578125,221.98486328125,-230.712890625
4.491919994354248,-1270335421,1,-0.8436137437820435,0.9601954221725464,0.012692231684923172,214.78271484375,118.83544921875,-127.8076171875
4.4919281005859375,-1270335402,1,-1.1409770250320435,0.8264063596725464,0.03222348168492317,240.8447265625,170.10498046875,-152.40478515625
4.497213840484619,-1270335387,0,1.3251110315322876,-0.1331547200679779,0.9553719758987427,-186.82861328125,84.28955078125,-335.51025390625
4.5121660232543945,-1270335383,1,-1.0254985094070435,1.0497950315475464,0.22216488420963287,440.7958984375,101.50146484375,-135.19287109375
4.538690090179443,-1270335368,0,1.5155407190322876,0.4364253580570221,0.4060555398464203,-344.3603515625,-114.68505859375,-400.20751953125
4.543117046356201,-1270335364,1,-1.0198832750320435,1.5644434690475464,0.42602232098579407,581.35986328125,78.0029296875,-77.392578125
4.543123960494995,-1270335345,1,-1.1612406969070435,1.7402247190475464,0.44091489911079407,527.77099609375,119.68994140625,-57.0068359375
4.5572569370269775,-1270335332,0,1.7909313440322876,1.1458979845046997,-0.5875967741012573,-305.0537109375,-158.8134765625,-337.21923828125
4.572264194488525,-1270335326,1,-1.5408793687820435,1.7172755002975464,0.28588560223579407,431.70166015625,155.3955078125,-66.34521484375
4.572386980056763,-1270335307,1,-1.6705180406570435,1.4743555784225464,0.28637388348579407,366.76025390625,150.2685546875,-112.9150390625
4.591880798339844,-1270335313,0,1.8649059534072876,0.9039546251296997,-0.3463858664035797,-232.421875,35.400390625,-319.3359375
4.591894865036011,-1270335294,0,2.088050603866577,0.3893062174320221,0.1965828835964203,-252.99072265625,112.60986328125,-315.185546875
4.6022162437438965,-1270335288,1,-1.6985942125320435,1.3268946409225464,0.47436216473579407,387.3291015625,107.5439453125,-113.6474609375
4.6172778606414795,-1270335275,0,2.148841619491577,0.6607905626296997,-0.4413565695285797,-304.6875,145.6298828125,-286.31591796875
4.617398023605347,-1270335256,0,1.8761364221572876,0.9903804063796997,-0.4821280539035797,-283.8134765625,255.9814453125,-219.482421875
4.646342992782593,-1270335237,0,1.6483532190322876,0.5570307970046997,-0.1486319601535797,-228.759765625,349.365234375,-192.19970703125
4.662873983383179,-1270335252,1,-1.3826762437820435,1.9240626096725464,0.16650082170963287,237.24365234375,95.8251953125,-229.3701171875
4.663016080856323,-1270335233,1,-1.2325297594070435,1.4965723752975464,0.14648129045963287,272.64404296875,164.61181640625,-226.6845703125
4.663033962249756,-1270335214,1,-1.0574809312820435,1.5959376096725464,0.13305355608463287,323.3642578125,192.93212890625,-155.57861328125
4.687278985977173,-1270335218,0,1.6612926721572876,0.4430171549320221,0.12041101604700089,-208.1298828125,337.7685546875,-315.185546875
4.687291145324707,-1270335199,0,2.112952947616577,0.5995112657546997,0.2261238992214203,-204.40673828125,116.88232421875,-424.8046875
4.692026138305664,-1270335195,1,-1.3816996812820435,1.9909571409225464,0.47729185223579407,444.9462890625,254.7607421875,-5.9814453125
4.707419157028198,-1270335180,0,2.550452947616577,0.4898921549320221,-0.06830968707799911,-199.5849609375,-49.8046875,-485.77880859375
4.72220516204834,-1270335176,1,-1.9864360094070435,1.6525782346725464,1.0112273693084717,468.75,265.380859375,129.57763671875
4.722259998321533,-1270335157,1,-2.678818702697754,1.5334376096725464,0.9077117443084717,402.28271484375,282.958984375,98.08349609375
4.7417120933532715,-1270335161,0,2.734290838241577,0.3622066080570221,-0.06391515582799911,-197.75390625,-56.33544921875,-468.44482421875
4.741719961166382,-1270335142,0,2.405921697616577,0.7657710313796997,-0.2301749289035797,-103.8818359375,292.17529296875,-275.93994140625
4.752274036407471,-1270335138,1,-2.852890968322754,1.8774317502975464,0.6582000255584717,202.94189453125,287.841796875,-122.9248046875
4.76688289642334,-1270335123,0,2.803138494491577,-0.2005375325679779,0.6572762727737427,-35.70556640625,407.16552734375,-225.03662109375
4.789256811141968,-1270335119,1,-2.005722999572754,1.0168360471725464,1.2084929943084717,158.5693359375,250.732421875,-208.740234375
4.7892680168151855,-1270335100,1,-2.310410499572754,0.6738184690475464,1.7812469005584717,178.7109375,261.5966796875,-93.8720703125
4.796990871429443,-1270335104,0,2.731117010116577,-0.9678715467453003,0.7800790071487427,-44.61669921875,288.57421875,-218.8720703125
4.811980962753296,-1270335081,1,-2.067734718322754,1.1987208127975464,1.6860320568084717,26.4892578125,275.32958984375,-209.89990234375
4.829654932022095,-1270335068,0,2.299720525741577,-0.3604496419429779,0.046436406672000885,106.3232421875,425.1708984375,-98.57177734375
4.829668998718262,-1270335049,0,2.131507635116577,-0.9314945936203003,0.5527840852737427,214.17236328125,384.94873046875,-36.2548828125
4.846807956695557,-1270335062,1,-1.4649516344070435,0.8417872190475464,1.6552703380584717,-106.3232421875,312.1337890625,-203.91845703125
4.8468170166015625,-1270335043,1,-1.3123637437820435,0.2365625947713852,1.6528289318084717,-153.99169921875,316.83349609375,-76.7822265625
4.856957197189331,-1270335030,0,1.6212536096572876,-1.2623051404953003,0.6948739290237427,215.27099609375,287.9638671875,24.2919921875
4.871943950653076,-1270335024,1,-1.4837504625320435,-0.08497060835361481,1.4272429943084717,-138.48876953125,248.96240234375,-64.453125
4.8919289112091064,-1270335011,0,0.8959118127822876,-1.3633793592453003,0.3445321023464203,100.830078125,323.54736328125,100.4638671875
4.891937971115112,-1270334992,0,0.7291637659072876,-0.6707524061203003,-0.052440546452999115,72.69287109375,354.8583984375,106.50634765625
4.901931047439575,-1270334988,1,-0.24424849450588226,0.5617579221725464,0.9401824474334717,-144.47021484375,178.5888671875,-199.21875
4.917490005493164,-1270334973,0,0.9767223596572876,-0.3880375325679779,-0.09687414020299911,180.6640625,233.82568359375,74.462890625
4.940127849578857,-1270334969,1,-0.15001021325588226,0.6855372190475464,0.9912078380584717,-168.51806640625,190.0634765625,-74.5849609375
4.940136909484863,-1270334950,1,-0.10044966638088226,1.3078516721725464,0.6435515880584717,-209.77783203125,153.80859375,2.01416015625
4.94707989692688,-1270334954,0,1.1178356409072876,-0.2703617513179779,-0.4486807882785797,212.95166015625,75.5615234375,84.1064453125
4.947205066680908,-1270334935,0,1.2140270471572876,0.6742182970046997,-0.4791983664035797,283.203125,46.0205078125,87.890625
4.961941957473755,-1270334931,1,-0.27598676085472107,1.3193262815475464,0.10522152483463287,-279.47998046875,193.7255859375,72.57080078125
4.987555027008057,-1270334916,0,0.7965465784072876,1.0692378282546997,-0.4811514914035797,361.38916015625,66.650390625,120.7275390625
4.987562894821167,-1270334897,0,0.2084118127822876,1.1424800157546997,-0.6017569303512573,410.0341796875,122.98583984375,129.21142578125
4.991881847381592,-1270334912,1,-0.14293013513088226,1.3225001096725464,-0.48706361651420593,-330.74951171875,237.85400390625,3.72314453125
4.991936922073364,-1270334893,1,0.13001908361911774,1.0483301877975464,-0.5446808338165283,-362.48779296875,295.47119140625,-37.65869140625
5.006764888763428,-1270334878,0,0.9816051721572876,0.8102046251296997,0.6025887727737427,562.68310546875,45.95947265625,-43.51806640625
5.021906852722168,-1270334874,1,-0.5491801500320435,1.0029200315475464,-0.41577455401420593,-346.86279296875,298.76708984375,179.99267578125
5.022022008895874,-1270334855,1,-0.8865824937820435,1.3745020627975464,-0.5666534900665283,-260.43701171875,228.08837890625,262.26806640625
5.04112982749939,-1270334859,0,1.5792614221572876,1.0328608751296997,0.7737313508987427,520.01953125,-133.85009765625,-25.93994140625
5.041181802749634,-1270334840,0,1.1200329065322876,1.0946284532546997,0.10283289104700089,404.9072265625,-233.94775390625,5.43212890625
5.051719903945923,-1270334836,1,-0.7586528062820435,1.4621485471725464,-0.6118195056915283,-237.85400390625,152.4658203125,255.79833984375
5.089609861373901,-1270334817,1,-0.44835004210472107,1.1821192502975464,-0.5080597400665283,-194.2138671875,153.99169921875,269.95849609375
5.09671688079834,-1270334804,0,0.7150036096572876,0.7721186876296997,-0.2345694601535797,312.6220703125,-172.4853515625,-46.20361328125
5.096825122833252,-1270334785,0,0.5812145471572876,0.6363765001296997,-0.3978995382785797,309.14306640625,-144.22607421875,-132.568359375
5.112062931060791,-1270334798,1,-0.30040082335472107,1.1032618284225464,-0.44824525713920593,-142.15087890625,208.06884765625,278.50341796875
5.1121509075164795,-1270334779,1,-0.20665083825588226,1.1081446409225464,-0.38135072588920593,-97.900390625,254.150390625,275.20751953125
5.1377809047698975,-1270334766,0,0.5516735315322876,0.6659175157546997,-0.4909171164035797,310.791015625,-113.6474609375,-221.13037109375
5.13779091835022,-1270334747,0,0.6393200159072876,0.7142573595046997,-0.4423331320285797,303.40576171875,-89.05029296875,-294.5556640625
5.143712043762207,-1270334760,1,-0.25718793272972107,1.1620997190475464,-0.42041322588920593,-49.49951171875,305.72509765625,276.30615234375
5.170857906341553,-1270334724,1,-0.17222701013088226,1.1650294065475464,-0.45166322588920593,86.24267578125,308.28857421875,273.5595703125
5.174659013748169,-1270334705,1,-0.035752397030591965,1.1913965940475464,-0.10376285016536713,118.7744140625,291.44287109375,277.89306640625
5.192263126373291,-1270334728,0,0.5751110315322876,0.8202143907546997,-0.4198721945285797,246.52099609375,-87.70751953125,-363.037109375
5.192274808883667,-1270334709,0,0.6119762659072876,0.7855464220046997,-0.5133780241012573,185.24169921875,-115.72265625,-385.6201171875
5.192280054092407,-1270334690,0,0.5392223596572876,0.6278315782546997,-0.8070791959762573,139.46533203125,-124.69482421875,-356.4453125
5.201539039611816,-1270334686,1,0.13978470861911774,1.0058497190475464,0.16772152483463287,95.39794921875,259.27734375,266.6015625
5.217896938323975,-1270334671,0,0.3334118127822876,0.4054194986820221,-0.9879873991012573,148.0712890625,-85.38818359375,-324.76806640625
5.239272117614746,-1270334667,1,0.41078081727027893,0.8373926877975464,0.24804379045963287,69.76318359375,253.173828125,244.62890625
5.2392799854278564,-1270334648,1,0.6829975843429565,0.6100977659225464,0.16479183733463287,64.88037109375,244.81201171875,230.1025390625
5.246717214584351,-1270334652,0,0.016761429607868195,0.1378413736820221,-0.9689444303512573,179.13818359375,-43.39599609375,-304.0771484375
5.246868848800659,-1270334633,0,-0.1687854528427124,0.026513248682022095,-0.8607901334762573,178.03955078125,-77.880859375,-302.3681640625
5.261681079864502,-1270334629,1,0.8619526624679565,0.4865626096725464,0.11230160295963287,85.693359375,211.0595703125,229.67529296875
5.288495063781738,-1270334614,0,-0.4031604528427124,0.026269108057022095,-0.8996084928512573,124.1455078125,-98.81591796875,-291.50390625
5.288508176803589,-1270334595,0,-0.6065295934677124,-0.1414555013179779,-0.9193838834762573,81.54296875,-83.1298828125,-296.0205078125
5.292946815490723,-1270334610,1,0.9578999280929565,0.3381251096725464,0.009274262934923172,122.1923828125,179.74853515625,218.07861328125
5.292953968048096,-1270334591,1,1.0260151624679565,0.2609766721725464,-0.026858549565076828,158.8134765625,179.443359375,200.1953125
5.306488990783691,-1270334576,0,-0.7068713903427124,-0.2291019856929779,-0.8920401334762573,61.34033203125,-87.646484375,-346.49658203125
5.321281909942627,-1270334572,1,1.1143940687179565,0.1916407197713852,0.04565121605992317,216.4306640625,198.3642578125,204.65087890625
5.342002868652344,-1270334540,0,-0.5970081090927124,-0.6275395154953003,-0.9372061491012573,-42.17529296875,-142.9443359375,-458.43505859375
5.351820945739746,-1270334553,1,1.0247944593429565,0.2368067353963852,0.24023129045963287,304.8095703125,201.96533203125,211.97509765625
5.351892948150635,-1270334534,1,1.1170796155929565,0.3264063596725464,0.7311980724334717,399.7802734375,189.0869140625,209.16748046875
5.366351127624512,-1270334521,0,-0.3526233434677124,-1.0440434217453003,-1.0299795866012573,-115.8447265625,-186.34033203125,-519.53125
5.389114141464233,-1270334515,1,1.1290425062179565,0.2910059690475464,1.3925750255584717,465.33203125,169.25048828125,239.6240234375
5.389122009277344,-1270334496,1,1.0142964124679565,0.3505762815475464,2.0339324474334717,514.83154296875,93.017578125,266.7236328125
5.396429061889648,-1270334502,0,0.050208695232868195,-1.4148930311203003,-1.0722159147262573,-165.34423828125,-240.05126953125,-528.38134765625
5.396468877792358,-1270334483,0,0.1713024377822876,-1.8443363904953003,-1.1298331022262573,-242.49267578125,-280.2734375,-482.11669921875
5.427156925201416,-1270334464,0,0.3050915002822876,-2.2120120525360107,-1.1056631803512573,-312.56103515625,-336.48681640625,-448.3642578125
5.437085866928101,-1270334445,0,0.2836071252822876,-1.9200199842453003,-0.8222159147262573,-379.5166015625,-387.75634765625,-386.53564453125
5.443218946456909,-1270334460,1,1.0494526624679565,-0.00025380775332450867,2.7695281505584717,544.12841796875,-59.326171875,287.04833984375
5.443234920501709,-1270334441,1,0.5316303968429565,0.07274423539638519,2.4479949474334717,576.35498046875,-112.548828125,336.0595703125
5.456282138824463,-1270334426,0,-0.0760120078921318,-1.9148930311203003,-0.8388174772262573,-404.9072265625,-439.27001953125,-310.48583984375
5.47118616104126,-1270334422,1,0.7240132093429565,-0.2722264528274536,2.1784636974334717,537.53662109375,-204.04052734375,373.4130859375
5.494174003601074,-1270334407,0,-0.6883167028427124,-1.6106938123703003,-0.3881339132785797,-359.7412109375,-417.41943359375,-297.30224609375
5.495383024215698,-1270334388,0,-0.9681018590927124,-1.4068363904953003,0.06962976604700089,-231.3232421875,-415.1611328125,-320.9228515625
5.501226902008057,-1270334403,1,0.16444291174411774,-0.6040135622024536,1.4743621349334717,443.115234375,-146.8505859375,391.66259765625
5.501348972320557,-1270334384,1,-0.057236772030591965,-1.3850194215774536,1.0283172130584717,340.88134765625,-97.83935546875,370.66650390625
5.516146898269653,-1270334369,0,-0.8230823278427124,-0.9634770154953003,0.5569344758987427,-91.1865234375,-346.13037109375,-362.97607421875
5.540829181671143,-1270334365,1,-0.5272074937820435,-1.2900487184524536,0.45336607098579407,286.62109375,11.41357421875,305.17578125
5.540837049484253,-1270334346,1,-0.7957621812820435,-1.2055760622024536,0.37646177411079407,272.94921875,-45.0439453125,195.00732421875
5.546322822570801,-1270334350,0,-0.4373401403427124,-0.7232426404953003,1.0020028352737427,-57.67822265625,-278.80859375,-363.83056640625
5.546388864517212,-1270334331,0,-0.2471545934677124,-0.6348637342453003,0.9722176790237427,-190.00244140625,-179.62646484375,-238.46435546875
5.563313007354736,-1270334327,1,-0.41539105772972107,-1.0778905153274536,0.5209929943084717,264.95361328125,-172.7294921875,61.70654296875
5.587522029876709,-1270334312,0,-0.2915881872177124,-0.6946781873703003,0.5933114290237427,-263.85498046875,-102.35595703125,-136.77978515625
5.592139959335327,-1270334308,1,-0.34898480772972107,-1.2214452028274536,0.7394988536834717,219.970703125,-211.73095703125,-16.54052734375
5.592146158218384,-1270334289,1,-0.47447308897972107,-1.5410252809524536,0.9521453380584717,115.1123046875,-149.5361328125,-129.45556640625
5.606333017349243,-1270334276,0,-0.5335315465927124,-0.9603031873703003,0.6968270540237427,-149.169921875,130.79833984375,55.96923828125
5.621052026748657,-1270334270,1,-1.0384379625320435,-1.5866795778274536,0.6804168224334717,-41.68701171875,-118.65234375,-281.3720703125
5.640348196029663,-1270334257,0,-0.4983752965927124,-0.7347172498703003,1.1394540071487427,-49.13330078125,321.4111328125,180.96923828125
5.640356063842773,-1270334238,0,-0.6570667028427124,-0.6141117811203003,1.5146981477737427,-54.443359375,465.88134765625,239.44091796875
5.6512181758880615,-1270334251,1,-1.0587016344070435,-1.3256932497024536,0.09838558733463287,-189.27001953125,-114.6240234375,-468.994140625
5.651287078857422,-1270334232,1,-0.8301860094070435,-1.1977635622024536,-0.36426088213920593,-213.0126953125,-99.91455078125,-584.04541015625
5.666039943695068,-1270334219,0,-0.5330432653427124,-0.4622562825679779,1.6799813508987427,-145.263671875,549.37744140625,229.00390625
5.696509122848511,-1270334200,0,-0.037437789142131805,-0.012060970067977905,1.4648934602737427,-277.52685546875,552.55126953125,159.1796875
5.696520805358887,-1270334181,0,0.3793102502822876,0.3407222330570221,1.1665536165237427,-335.99853515625,543.51806640625,100.40283203125
5.7111029624938965,-1270334196,1,-0.9954692125320435,-0.2026463896036148,-0.6706573963165283,18.1884765625,4.8828125,-623.22998046875
5.711220026016235,-1270334177,1,-1.0494242906570435,0.3893946409225464,-0.37842103838920593,90.51513671875,18.06640625,-587.2802734375
5.736897945404053,-1270334162,0,0.7276989221572876,0.5028315782546997,0.6426278352737427,-344.05517578125,509.09423828125,60.11962890625
5.742942810058594,-1270334158,1,-1.0516215562820435,0.7470606565475464,-0.09375308454036713,114.013671875,33.3251953125,-556.45751953125
5.743340015411377,-1270334139,1,-1.2501078844070435,1.1064356565475464,0.21191097795963287,139.09912109375,24.2919921875,-535.2783203125
5.756021976470947,-1270334143,0,1.1630016565322876,0.4386226236820221,0.4893074929714203,-337.0361328125,493.0419921875,33.69140625
5.756104946136475,-1270334124,0,1.7875133752822876,0.3919917643070221,0.5542489290237427,-374.8779296875,431.396484375,35.400390625
5.770925998687744,-1270334120,1,-1.4241801500320435,1.1877344846725464,0.31640318036079407,176.8798828125,-36.376953125,-531.79931640625
5.793061017990112,-1270334105,0,1.9806286096572876,0.4920894205570221,0.3281746804714203,-444.51904296875,394.8974609375,65.0634765625
5.793068885803223,-1270334086,0,2.108070135116577,0.7372065782546997,0.11137781292200089,-510.498046875,365.05126953125,93.68896484375
5.800950050354004,-1270334101,1,-1.4446879625320435,1.7209376096725464,0.29980161786079407,219.05517578125,-115.234375,-552.67333984375
5.801031112670898,-1270334082,1,-1.4383403062820435,1.7700098752975464,0.43774107098579407,238.037109375,-176.69677734375,-549.37744140625
5.815945863723755,-1270334067,0,2.332679510116577,0.8202143907546997,0.020557500422000885,-528.9306640625,332.8857421875,130.4931640625
5.839586019515991,-1270334063,1,-1.5494242906570435,1.9865626096725464,0.46630552411079407,221.74072265625,-239.74609375,-531.3720703125
5.8459999561309814,-1270334048,0,2.512367010116577,1.1871577501296997,-0.2055167257785797,-526.18408203125,295.7763671875,209.53369140625
5.861217975616455,-1270334044,1,-1.6070414781570435,2.138906240463257,0.40502622723579407,167.78564453125,-304.74853515625,-507.01904296875
5.861281871795654,-1270334025,1,-1.8702250719070435,2.250234365463257,0.37206724286079407,99.67041015625,-365.90576171875,-497.802734375
5.8866941928863525,-1270334012,0,2.773597478866577,1.1783686876296997,-0.046337030827999115,-512.3291015625,294.0673828125,329.52880859375
5.891237020492554,-1270334006,1,-2.073838233947754,2.590322256088257,0.029537934809923172,81.60400390625,-441.7724609375,-523.3154296875
5.891243934631348,-1270333987,1,-1.6202250719070435,3.084951162338257,-0.6923859119415283,59.9365234375,-537.17041015625,-480.40771484375
5.905789136886597,-1270333993,0,2.906654119491577,1.8697749376296997,0.10283289104700089,-536.56005859375,219.1162109375,373.47412109375
5.905938148498535,-1270333974,0,2.596107244491577,2.5094234943389893,-0.3314932882785797,-545.83740234375,139.2822265625,389.6484375
5.920733213424683,-1270333968,1,-1.0767680406570435,2.834951162338257,-0.49072572588920593,52.42919921875,-500.42724609375,-383.4228515625
5.941969156265259,-1270333955,0,2.266517400741577,2.0384762287139893,-0.5331534147262573,-455.322265625,43.0908203125,357.84912109375
5.943108081817627,-1270333936,0,2.324867010116577,2.0008785724639893,-0.09833898395299911,-335.9375,19.287109375,319.64111328125
5.952117919921875,-1270333932,1,-2.267441749572754,2.359121084213257,-0.5190460681915283,-14.404296875,-400.69580078125,-265.68603515625
5.965758800506592,-1270333917,0,2.305579900741577,2.0628902912139893,0.7122079133987427,-318.603515625,54.99267578125,323.54736328125
5.988013982772827,-1270333913,1,-2.528672218322754,2.006582021713257,-1.2038605213165283,-2.8076171875,-409.48486328125,-321.47216796875
5.996894836425781,-1270333898,0,1.6935192346572876,2.0487301349639893,1.1631356477737427,-396.484375,126.52587890625,270.20263671875
5.99690318107605,-1270333879,0,1.0306774377822876,1.8575679063796997,1.1338387727737427,-453.369140625,191.89453125,157.5927734375
6.010908126831055,-1270333894,1,-2.227890968322754,1.5681055784225464,-1.5744659900665283,88.8671875,-346.19140625,-385.1318359375
6.01098895072937,-1270333875,1,-1.8719340562820435,1.0439356565475464,-1.4936554431915283,191.22314453125,-240.72265625,-432.9833984375
6.036291122436523,-1270333860,0,0.5223766565322876,1.3939448595046997,1.0891610383987427,-462.646484375,281.79931640625,58.41064453125
6.045302867889404,-1270333856,1,-1.7947856187820435,0.4279688596725464,-1.1711456775665283,251.89208984375,-92.34619140625,-506.04248046875
6.04531192779541,-1270333837,1,-1.6570903062820435,0.3244532346725464,-1.0639679431915283,265.56396484375,-35.400390625,-608.09326171875
6.055784225463867,-1270333841,0,0.2076793909072876,1.0211421251296997,1.3176766633987427,-447.509765625,415.771484375,-32.16552734375
6.055878162384033,-1270333822,0,-0.026207320392131805,0.9671870470046997,1.3838387727737427,-472.7783203125,547.66845703125,-45.83740234375
6.070524215698242,-1270333818,1,-1.1683207750320435,0.3452051877975464,-1.0898468494415283,260.31494140625,11.16943359375,-712.646484375
6.0921950340271,-1270333803,0,-0.0630725547671318,0.5018550157546997,1.1558114290237427,-500.67138671875,606.14013671875,-69.27490234375
6.1006410121917725,-1270333799,1,-0.5530864000320435,0.7084864377975464,-0.8046905994415283,301.57470703125,24.4140625,-732.5439453125
6.100713014602661,-1270333780,1,0.12708939611911774,1.2204493284225464,-0.38476869463920593,339.78271484375,-19.34814453125,-596.00830078125
6.11552619934082,-1270333784,0,0.4672008752822876,0.9256831407546997,0.9617196321487427,-485.16845703125,486.2060546875,-118.59130859375
6.139730930328369,-1270333761,1,0.45326128602027893,1.2202051877975464,-0.17090152204036713,328.18603515625,-72.69287109375,-365.72265625
6.145709991455078,-1270333748,0,1.0277477502822876,0.5814448595046997,-0.2055167257785797,-412.17041015625,30.70068359375,-103.02734375
6.145797967910767,-1270333729,0,0.9440075159072876,0.2298823893070221,0.2798348367214203,-320.12939453125,-81.9091796875,-68.66455078125
6.161149024963379,-1270333742,1,-0.19322310388088226,0.3723047971725464,0.5620086193084717,340.88134765625,-104.736328125,-96.49658203125
6.16119909286499,-1270333723,1,-1.2464457750320435,0.4626368284225464,0.26586607098579407,283.0810546875,-100.9521484375,-38.14697265625
6.1867570877075195,-1270333710,0,1.2355114221572876,0.0929194986820221,0.7693368196487427,-291.9921875,-99.12109375,-57.2509765625
6.191603899002075,-1270333704,1,-1.6129008531570435,0.4328516721725464,0.03661801293492317,326.66015625,-137.51220703125,-90.02685546875
6.219448089599609,-1270333668,1,-1.1710063219070435,0.6835840940475464,-0.16308902204036713,254.94384765625,-121.09375,-162.78076171875
6.240661859512329,-1270333691,0,1.2635875940322876,0.6097651720046997,0.8667489290237427,-342.6513671875,-74.70703125,-71.22802734375
6.240671873092651,-1270333672,0,1.1210094690322876,0.7867671251296997,0.4187508523464203,-362.060546875,12.51220703125,-48.03466796875
6.240677118301392,-1270333653,0,0.9303356409072876,0.7601557970046997,0.3513680398464203,-271.8505859375,78.61328125,-62.255859375
6.240681886672974,-1270333634,0,1.2013317346572876,0.3368159830570221,0.6968270540237427,-214.2333984375,53.89404296875,-128.72314453125
6.250626087188721,-1270333649,1,-1.0923930406570435,0.6472071409225464,-0.26782533526420593,204.65087890625,-43.27392578125,-135.986328125
6.250723123550415,-1270333630,1,-1.2479106187820435,0.7416895627975464,-0.17578433454036713,273.01025390625,2.86865234375,-101.01318359375
6.265516042709351,-1270333615,0,1.3651500940322876,0.5423823595046997,0.3779793679714203,-279.11376953125,-1.89208984375,-172.119140625
6.287415981292725,-1270333611,1,-1.2896586656570435,1.1857813596725464,-0.13452456891536713,350.4638671875,2.685546875,-112.9150390625
6.298027038574219,-1270333596,0,1.3334118127822876,0.8470698595046997,-0.08954992145299911,-329.89501953125,38.87939453125,-176.6357421875
6.2980358600616455,-1270333577,0,1.4488903284072876,0.9134761095046997,-0.2694815695285797,-364.990234375,127.50244140625,-183.04443359375
6.310492038726807,-1270333592,1,-1.1949321031570435,1.6286524534225464,-0.17529605329036713,378.662109375,10.3759765625,-205.74951171875
6.310592889785767,-1270333573,1,-0.9979106187820435,1.7375391721725464,-0.13574527204036713,408.3251953125,23.01025390625,-243.71337890625
6.336420059204102,-1270333558,0,1.6080700159072876,0.9203120470046997,-0.3935050070285797,-379.57763671875,139.6484375,-211.97509765625
6.341128826141357,-1270333554,1,-0.9241801500320435,1.8554590940475464,0.012936372309923172,433.4716796875,36.376953125,-216.1865234375
6.3411359786987305,-1270333535,1,-0.9969340562820435,1.8225001096725464,0.17699886858463287,443.78662109375,45.10498046875,-176.33056640625
6.355485916137695,-1270333539,0,1.6622692346572876,0.8329097032546997,-0.4335440695285797,-381.28662109375,131.2255859375,-237.6708984375
6.370213985443115,-1270333516,1,-1.2571879625320435,1.9216212034225464,0.36425474286079407,475.2197265625,25.7568359375,-155.82275390625
6.390655994415283,-1270333520,0,1.8490368127822876,0.4537593424320221,-0.3297843039035797,-383.72802734375,120.361328125,-252.25830078125
6.3906638622283936,-1270333484,0,1.4630504846572876,1.1693354845046997,-0.7028311491012573,-318.78662109375,283.0810546875,-143.6767578125
6.400371789932251,-1270333497,1,-1.0648051500320435,2.072744131088257,0.30077818036079407,355.04150390625,1.5869140625,-218.44482421875
6.400502920150757,-1270333478,1,-0.8560649156570435,1.4804590940475464,-0.18457339704036713,279.47998046875,27.40478515625,-253.47900390625
6.415523052215576,-1270333465,0,1.4420543909072876,0.7115718126296997,-0.1562003195285797,-322.6318359375,300.72021484375,-161.56005859375
6.442216157913208,-1270333459,1,-1.1309672594070435,1.7656153440475464,-0.34961244463920593,380.55419921875,28.86962890625,-244.873046875
6.446617126464844,-1270333446,0,1.9322887659072876,0.9959956407546997,0.07329187542200089,-424.98779296875,212.82958984375,-249.3896484375
6.446622848510742,-1270333427,0,2.282630681991577,1.5355464220046997,0.1409188210964203,-510.498046875,165.52734375,-290.10009765625
6.4605019092559814,-1270333440,1,-1.5635844469070435,2.270009756088257,-0.5615265369415283,520.99609375,6.40869140625,-222.59521484375
6.487618923187256,-1270333408,0,2.340736150741577,1.8456050157546997,-0.5221670866012573,-564.14794921875,250.1220703125,-217.041015625
6.492221832275391,-1270333404,1,-1.9896098375320435,2.744130849838257,0.08642269670963287,456.35986328125,-11.474609375,-339.111328125
6.492228984832764,-1270333385,1,-1.2923442125320435,2.442128896713257,0.6811492443084717,261.77978515625,67.9931640625,-392.08984375
6.505309104919434,-1270333389,0,2.517249822616577,1.5233393907546997,-0.8812979459762573,-410.5224609375,466.12548828125,-131.9580078125
6.505402088165283,-1270333370,0,2.857581853866577,0.4334956705570221,-0.4308585226535797,-231.8115234375,412.04833984375,-129.33349609375
6.5201380252838135,-1270333366,1,-1.1541606187820435,1.8495997190475464,1.4309051036834717,197.57080078125,141.17431640625,-236.14501953125
6.540108919143677,-1270333351,0,2.685706853866577,-0.0862797200679779,-0.6437491178512573,-113.95263671875,322.93701171875,-96.923828125
6.550283908843994,-1270333347,1,-1.5147563219070435,1.5849512815475464,1.5676238536834717,85.8154296875,207.8857421875,-125.9765625
6.550373077392578,-1270333328,1,-1.1036235094070435,1.3788965940475464,1.3459441661834717,-76.0498046875,246.2158203125,-141.7236328125
6.565232038497925,-1270333332,0,2.123695135116577,-0.041113704442977905,-0.6422842741012573,30.1513671875,373.779296875,-20.08056640625
6.565371036529541,-1270333313,0,1.8685680627822876,-0.6788090467453003,-0.1415518820285797,173.7060546875,383.60595703125,-31.73828125
6.58772611618042,-1270333309,1,-0.9395610094070435,0.5966700315475464,1.5705535411834717,-99.9755859375,352.6611328125,-57.06787109375
6.595097064971924,-1270333294,0,1.3949352502822876,-1.1670902967453003,0.09038171917200089,243.10302734375,305.35888671875,-56.70166015625
6.595184087753296,-1270333275,0,1.1175915002822876,-1.4458988904953003,0.1646004617214203,264.22119140625,310.546875,-49.6826171875
6.610092878341675,-1270333290,1,-1.2757426500320435,0.2770899534225464,1.6508758068084717,-97.71728515625,382.6904296875,-25.93994140625
6.610177040100098,-1270333271,1,-1.1624614000320435,-0.08033193647861481,1.6386687755584717,-112.3046875,373.22998046875,-106.8115234375
6.635299921035767,-1270333256,0,1.0404430627822876,-1.1421879529953003,0.5842782258987427,312.255859375,300.4150390625,-32.53173828125
6.6399641036987305,-1270333252,1,-0.7420512437820435,-0.2670994997024536,1.4082000255584717,-178.22265625,365.05126953125,-74.52392578125
6.655080795288086,-1270333220,0,0.7167125940322876,-0.6648930311203003,0.4590340554714203,415.1611328125,196.47216796875,-16.11328125
6.669985055923462,-1270333233,1,-0.8409281969070435,-0.1904393583536148,1.1799285411834717,-208.06884765625,399.84130859375,-42.17529296875
6.690141916275024,-1270333201,0,0.8343883752822876,-0.2583988606929779,0.4514656960964203,493.46923828125,174.86572265625,-13.3056640625
6.700469970703125,-1270333214,1,-0.7400981187820435,0.2128809541463852,0.7963836193084717,-268.4326171875,421.81396484375,-21.78955078125
6.700643062591553,-1270333195,1,-0.8880473375320435,0.3159083127975464,0.26513364911079407,-310.6689453125,466.796875,-13.671875
6.700656175613403,-1270333176,1,-0.7313090562820435,1.0676172971725464,-0.27417299151420593,-343.56689453125,486.14501953125,-71.2890625
6.715234041213989,-1270333182,0,0.6818004846572876,0.4164058268070221,0.2852059304714203,529.6630859375,200.5615234375,6.103515625
6.71528697013855,-1270333163,0,1.2745739221572876,0.7870112657546997,0.5032235383987427,624.0234375,162.841796875,-115.3564453125
6.744364976882935,-1270333144,0,2.030921697616577,1.1212397813796997,1.0637704133987427,624.51171875,87.890625,-126.03759765625
6.745294094085693,-1270333125,0,1.8629528284072876,0.9369136095046997,0.8062020540237427,488.8916015625,63.232421875,-66.46728515625
6.760028123855591,-1270333140,1,-1.6922465562820435,1.2792872190475464,-0.27539369463920593,-334.47265625,428.16162109375,166.56494140625
6.760133981704712,-1270333121,1,-1.4073344469070435,1.5314844846725464,-0.5351593494415283,-268.5546875,329.04052734375,141.66259765625
6.789477109909058,-1270333106,0,1.8197399377822876,1.0274897813796997,0.3806649148464203,382.6904296875,30.94482421875,-83.80126953125
6.794183969497681,-1270333102,1,-0.9371196031570435,1.5454005002975464,-0.46094056963920593,-180.23681640625,293.701171875,148.0712890625
6.805063009262085,-1270333087,0,1.2516247034072876,0.7882319688796997,-0.3549307882785797,324.15771484375,-25.32958984375,-159.423828125
6.8051979541778564,-1270333068,0,1.2928844690322876,0.9100581407546997,-0.4638175070285797,398.98681640625,-56.640625,-271.42333984375
6.820023059844971,-1270333083,1,-0.43956097960472107,1.4970606565475464,-0.17456363141536713,-114.2578125,359.19189453125,209.77783203125
6.820096969604492,-1270333064,1,-0.6407328844070435,1.5786036252975464,-0.13916324079036713,-109.2529296875,449.951171875,274.59716796875
6.841223955154419,-1270333049,0,1.3973766565322876,0.9249507188796997,-0.4892081320285797,448.79150390625,-112.85400390625,-313.232421875
6.849948167800903,-1270333045,1,-0.6949321031570435,1.5468653440475464,-0.023440580815076828,-114.56298828125,458.3740234375,301.69677734375
6.850055932998657,-1270333026,1,-0.7713481187820435,1.4704493284225464,0.014889497309923172,-119.93408203125,411.68212890625,313.232421875
6.865081071853638,-1270333030,0,1.5380016565322876,0.8575679063796997,-0.3563956320285797,441.2841796875,-124.8779296875,-307.373046875
6.865141868591309,-1270333011,0,1.4161754846572876,0.7540522813796997,-0.3463858664035797,374.20654296875,-130.79833984375,-251.8310546875
6.888771057128906,-1270333007,1,-0.6714946031570435,1.3486231565475464,0.009762544184923172,-116.3330078125,307.31201171875,296.9970703125
6.894866228103638,-1270332992,0,1.0773082971572876,0.5311518907546997,-0.4989737570285797,290.4052734375,-116.39404296875,-181.09130859375
6.9098711013793945,-1270332988,1,-0.38438519835472107,1.1079005002975464,0.17358089983463287,-103.94287109375,204.65087890625,234.9853515625
6.909970045089722,-1270332969,1,-0.025498490780591965,1.0246485471725464,0.23315121233463287,-90.087890625,146.42333984375,204.9560546875
6.935409069061279,-1270332956,0,0.5868297815322876,0.2298823893070221,-0.7165030241012573,210.63232421875,-130.43212890625,-139.892578125
6.939863920211792,-1270332950,1,0.17469681799411774,0.9475001096725464,0.25121763348579407,-82.70263671875,130.31005859375,209.5947265625
6.955193042755127,-1270332937,0,0.4488903284072876,0.1861812174320221,-0.8007315397262573,212.70751953125,-145.20263671875,-155.2734375
6.955353021621704,-1270332918,0,0.2838512659072876,0.1415034830570221,-0.7936514616012573,231.26220703125,-166.80908203125,-155.57861328125
6.969788074493408,-1270332931,1,0.33143511414527893,0.8107813596725464,0.29638364911079407,-71.83837890625,137.5732421875,253.23486328125
6.96989107131958,-1270332912,1,0.34242144227027893,0.7521876096725464,0.30151060223579407,-75.13427734375,158.14208984375,276.42822265625
6.9899492263793945,-1270332899,0,0.1913219690322876,0.0003902018070220947,-0.7731436491012573,243.2861328125,-171.630859375,-146.3623046875
6.999712944030762,-1270332876,1,0.35609331727027893,0.2267969697713852,0.32690122723579407,-60.1806640625,143.6767578125,264.404296875
7.014832973480225,-1270332880,0,0.018714554607868195,-0.3279789388179779,-0.6178702116012573,243.71337890625,-171.93603515625,-156.982421875
7.014941215515137,-1270332861,0,-0.1814807653427124,-0.5726078748703003,-0.3603018820285797,214.17236328125,-182.06787109375,-179.3212890625
7.037730932235718,-1270332857,1,0.28724566102027893,-0.11255849897861481,0.22631527483463287,14.46533203125,114.013671875,224.79248046875
7.044857025146484,-1270332842,0,-0.4839709997177124,-0.8152836561203003,-0.09760656207799911,104.6142578125,-191.10107421875,-225.64697265625
7.0598509311676025,-1270332838,1,0.37342730164527893,-0.4130955934524536,0.07006527483463287,151.123046875,74.3408203125,151.0009765625
7.059916019439697,-1270332819,1,0.6786030530929565,-0.5288182497024536,0.10009457170963287,277.2216796875,62.8662109375,88.68408203125
7.075729131698608,-1270332823,0,-0.7901233434677124,-0.9180668592453003,0.034473516047000885,-65.673828125,-170.47119140625,-294.5556640625
7.075737953186035,-1270332804,0,-1.0100940465927124,-0.9773930311203003,-0.08954992145299911,-228.759765625,-120.361328125,-366.0888671875
7.093173980712891,-1270332800,1,1.0225971937179565,-0.5239354372024536,0.32690122723579407,424.62158203125,91.064453125,68.4814453125
7.1048150062561035,-1270332785,0,-1.1521838903427124,-1.0735844373703003,-0.3034171164035797,-308.04443359375,-87.890625,-418.88427734375
7.104936122894287,-1270332766,0,-0.8985217809677124,-1.0406254529953003,-0.6291006803512573,-339.05029296875,-61.82861328125,-489.19677734375
7.119693040847778,-1270332781,1,1.0116108655929565,-0.2624608278274536,0.7575652599334717,491.3330078125,137.8173828125,56.21337890625
7.11977219581604,-1270332762,1,1.2254780530929565,-0.1731053739786148,1.2077605724334717,498.9013671875,164.9169921875,34.36279296875
7.140843868255615,-1270332747,0,-0.5596545934677124,-1.0303715467453003,-0.7995108366012573,-273.92578125,-86.60888671875,-486.2060546875
7.149556875228882,-1270332743,1,1.0428608655929565,-0.06714834272861481,1.4089324474334717,434.75341796875,169.37255859375,77.08740234375
7.164900064468384,-1270332728,0,-0.4578479528427124,-1.3179692029953003,-0.7726553678512573,-249.267578125,-132.01904296875,-403.01513671875
7.186591863632202,-1270332724,1,1.2176655530929565,-0.2231542021036148,1.2966277599334717,424.86572265625,81.4208984375,87.2802734375
7.186600208282471,-1270332705,1,1.4825581312179565,-0.2773534059524536,1.0805633068084717,458.80126953125,27.9541015625,76.66015625
7.194422006607056,-1270332692,0,-0.9912952184677124,-1.4603031873703003,-0.6085928678512573,-338.0126953125,-221.8017578125,-377.50244140625
7.209641933441162,-1270332686,1,1.4234760999679565,-0.1955663114786148,0.9523894786834717,548.095703125,5.55419921875,103.271484375
7.20973801612854,-1270332667,1,1.3722065687179565,-0.08399404585361481,0.7800261974334717,619.93408203125,-61.1572265625,148.98681640625
7.236371994018555,-1270332673,0,-0.7889026403427124,-1.2474125623703003,-0.3996085226535797,-396.42333984375,-276.3671875,-407.470703125
7.2363810539245605,-1270332654,0,-0.8589709997177124,-0.6023930311203003,-0.2877921164035797,-473.57177734375,-365.90576171875,-345.0927734375
7.241307020187378,-1270332648,1,1.2945698499679565,-0.1855565458536148,0.47362974286079407,647.03369140625,-137.75634765625,175.4150390625
7.254662036895752,-1270332635,0,-1.2051624059677124,-0.3482426106929779,-0.3249014914035797,-508.48388671875,-356.5673828125,-232.84912109375
7.254723072052002,-1270332616,0,-2.204918146133423,-0.2193363606929779,-0.3185538351535797,-394.6533203125,-384.70458984375,-275.87890625
7.26965594291687,-1270332612,1,1.4444721937179565,-0.5900975465774536,-0.08301089704036713,483.09326171875,2.8076171875,290.0390625
7.288970947265625,-1270332597,0,-1.9847034215927124,-0.4588383138179779,-0.2069815695285797,-143.61572265625,-338.0126953125,-522.03369140625
7.299433946609497,-1270332593,1,-0.15782271325588226,-1.4826756715774536,-0.11084292829036713,372.86376953125,244.9951171875,325.86669921875
7.314514875411987,-1270332578,0,-0.6748889684677124,-0.3360355794429779,0.9521981477737427,-100.341796875,-83.92333984375,-465.087890625
7.338648080825806,-1270332574,1,-0.48936566710472107,-0.7993260622024536,0.16137386858463287,328.857421875,111.14501953125,91.73583984375
7.344925165176392,-1270332559,0,-0.4488147497177124,-0.5435551404953003,0.5667001008987427,-155.09033203125,-41.68701171875,-329.7119140625
7.345077991485596,-1270332540,0,-0.7327502965927124,-0.8174809217453003,0.3982430398464203,-137.0849609375,29.4189453125,-238.46435546875
7.359421968460083,-1270332555,1,0.14173783361911774,-1.0539647340774536,0.5112273693084717,277.03857421875,40.46630859375,-29.296875
7.359503984451294,-1270332536,1,0.37342730164527893,-1.3264256715774536,0.6765105724334717,182.7392578125,65.85693359375,-75.0732421875
7.385589838027954,-1270332521,0,-0.5786975622177124,-0.8809574842453003,0.6521493196487427,-112.60986328125,127.38037109375,-155.517578125
7.3855979442596436,-1270332502,0,-0.6819690465927124,-0.9114750623703003,0.7400399446487427,-65.73486328125,257.6904296875,-48.64501953125
7.391520977020264,-1270332517,1,-0.21617232263088226,-1.4838963747024536,0.6594207286834717,84.65576171875,83.80126953125,-159.912109375
7.391528129577637,-1270332498,1,-0.19639693200588226,-1.3640233278274536,0.48119810223579407,-28.6865234375,50.1708984375,-325.68359375
7.404299974441528,-1270332483,0,-0.5723499059677124,-0.8021000623703003,0.9888192415237427,-49.74365234375,377.86865234375,9.94873046875
7.419356107711792,-1270332479,1,-0.043564897030591965,-1.1882420778274536,0.31322935223579407,-92.6513671875,60.24169921875,-401.123046875
7.423102855682373,-1270332460,1,-0.39415082335472107,-0.9477635622024536,0.19286800920963287,-68.4814453125,81.54296875,-422.91259765625
7.439912796020508,-1270332464,0,-0.1936877965927124,-0.7754887342453003,1.0752450227737427,-74.03564453125,422.2412109375,43.701171875
7.449228048324585,-1270332441,1,-0.6439067125320435,-0.5258885622024536,0.17577816545963287,9.8876953125,48.40087890625,-437.80517578125
7.46461296081543,-1270332428,0,0.4542614221572876,-0.3506840169429779,1.0046883821487427,-211.0595703125,388.48876953125,47.05810546875
7.464629888534546,-1270332409,0,0.7284313440322876,-0.0833500325679779,0.8181649446487427,-294.5556640625,360.90087890625,56.0302734375
7.486648082733154,-1270332422,1,-0.8106547594070435,-0.2109471708536148,0.10741879045963287,74.0966796875,12.939453125,-446.8994140625
7.486654996871948,-1270332403,1,-0.9561625719070435,0.02562509849667549,0.15453793108463287,121.39892578125,-14.892578125,-456.54296875
7.49418306350708,-1270332390,0,0.9596325159072876,0.0982905924320221,0.6277352571487427,-347.65625,340.27099609375,71.10595703125
7.509138107299805,-1270332384,1,-1.1622172594070435,0.3015040159225464,0.25878599286079407,152.03857421875,-34.60693359375,-472.96142578125
7.535865068435669,-1270332371,0,1.3246227502822876,0.2062007486820221,0.5261727571487427,-383.72802734375,326.96533203125,80.38330078125
7.5366809368133545,-1270332352,0,1.5790172815322876,0.3602534830570221,0.4597664773464203,-417.236328125,288.14697265625,101.98974609375
7.540412187576294,-1270332348,1,-1.4612895250320435,0.8264063596725464,0.26806333661079407,212.34130859375,-124.1455078125,-486.6943359375
7.554168939590454,-1270332333,0,1.8119274377822876,0.5980464220046997,0.3115731179714203,-481.99462890625,238.95263671875,133.9111328125
7.569522857666016,-1270332329,1,-1.6717387437820435,0.9599512815475464,0.34350278973579407,258.60595703125,-179.01611328125,-500.1220703125
7.56961989402771,-1270332310,1,-1.9654399156570435,1.2870997190475464,0.15746761858463287,292.41943359375,-289.48974609375,-520.3857421875
7.588881015777588,-1270332314,0,2.141517400741577,0.7679682970046997,0.2971688210964203,-551.8798828125,225.64697265625,197.509765625
7.588890075683594,-1270332295,0,2.253577947616577,1.1996089220046997,0.2261238992214203,-603.94287109375,213.80615234375,268.12744140625
7.599208116531372,-1270332291,1,-1.9161235094070435,1.4623926877975464,-0.08374331891536713,291.748046875,-392.88330078125,-521.8505859375
7.614243984222412,-1270332276,0,2.163001775741577,1.5714350938796997,0.2107430398464203,-618.408203125,205.078125,314.51416015625
7.614356994628906,-1270332257,0,2.154945135116577,2.0204098224639893,0.012500859797000885,-616.3330078125,210.0830078125,382.9345703125
7.636551856994629,-1270332272,1,-2.063340187072754,1.6318262815475464,-0.36914369463920593,268.9208984375,-449.3408203125,-514.83154296875
7.636559963226318,-1270332253,1,-1.7081156969070435,1.8356837034225464,-0.26318666338920593,201.2939453125,-478.6376953125,-487.060546875
7.6443188190460205,-1270332238,0,2.228919744491577,1.7105952501296997,-0.1903800070285797,-562.255859375,186.8896484375,414.00146484375
7.659275054931641,-1270332234,1,-2.228135108947754,1.8432520627975464,-0.24585269391536713,149.7802734375,-460.3271484375,-449.89013671875
7.659394025802612,-1270332215,1,-2.607285499572754,1.9130762815475464,-0.7421905994415283,94.42138671875,-520.01953125,-440.3076171875
7.685198068618774,-1270332219,0,2.529945135116577,2.2428219318389893,0.3264656960964203,-488.83056640625,150.57373046875,421.9970703125
7.685205936431885,-1270332200,0,2.546546697616577,2.5584957599639893,0.5049325227737427,-486.572265625,98.32763671875,486.6943359375
7.691496133804321,-1270332196,1,-2.682236671447754,1.8735255002975464,-1.0087921619415283,72.75390625,-562.255859375,-426.513671875
7.704045057296753,-1270332164,0,1.8793102502822876,2.5455563068389893,0.5068856477737427,-439.3310546875,55.35888671875,462.58544921875
7.719105005264282,-1270332177,1,-2.293808937072754,1.9016016721725464,-1.3386261463165283,57.80029296875,-554.26025390625,-372.25341796875
7.719230890274048,-1270332158,1,-2.433945655822754,1.4382227659225464,-1.3007843494415283,78.369140625,-446.2890625,-264.5263671875
7.740509986877441,-1270332145,0,1.8727184534072876,2.3783199787139893,1.0315438508987427,-363.83056640625,29.6630859375,349.9755859375
7.748922109603882,-1270332139,1,-2.965928077697754,1.0829981565475464,-1.3969757556915283,96.6796875,-364.44091796875,-222.22900390625
7.76662802696228,-1270332126,0,1.7972790002822876,2.3126461505889893,1.4395028352737427,-358.09326171875,71.533203125,301.3916015625
7.7666380405426025,-1270332107,0,1.1568981409072876,2.0687496662139893,1.4192391633987427,-381.16455078125,167.66357421875,287.78076171875
7.792849063873291,-1270332088,0,0.4022594690322876,1.6270991563796997,1.5310555696487427,-401.55029296875,304.87060546875,187.5
7.834020137786865,-1270332069,0,0.2203747034072876,1.2879878282546997,1.7727547883987427,-434.14306640625,442.9931640625,31.79931640625
7.834028959274292,-1270332050,0,0.6803356409072876,1.2223140001296997,1.9016610383987427,-517.51708984375,510.6201171875,-86.42578125
7.838926076889038,-1270332120,1,-3.007920265197754,0.8132227659225464,-1.5200226306915283,104.736328125,-330.2001953125,-283.5693359375
7.839068174362183,-1270332084,1,-2.014756202697754,0.07445321977138519,-1.8461945056915283,170.41015625,-131.2255859375,-497.49755859375
7.839905023574829,-1270332065,1,-2.013779640197754,0.1391504853963852,-1.7265655994415283,292.29736328125,8.85009765625,-579.65087890625
7.840014934539795,-1270332046,1,-1.5245219469070435,1.1142481565475464,-1.2243683338165283,410.70556640625,11.5966796875,-637.87841796875
7.854015827178955,-1270332031,0,1.4025036096572876,1.6202632188796997,1.6350594758987427,-620.42236328125,432.12890625,-129.82177734375
7.869071006774902,-1270332027,1,-1.4717875719070435,1.8066309690475464,-0.6904327869415283,506.77490234375,-111.02294921875,-635.07080078125
7.869136095046997,-1270332008,1,-0.5735942125320435,2.028798818588257,-0.06567691266536713,463.5009765625,-171.32568359375,-512.6953125
7.8874900341033936,-1270332012,0,2.186683416366577,1.9190913438796997,0.3020516335964203,-697.998046875,247.13134765625,-71.4111328125
7.887497901916504,-1270331993,0,1.7601696252822876,1.4454585313796997,-1.1386221647262573,-528.1982421875,124.08447265625,56.640625
7.898883104324341,-1270331989,1,0.031874556094408035,1.7917383909225464,0.37792661786079407,295.59326171875,-115.1123046875,-186.6455078125
7.914055824279785,-1270331974,0,1.2413707971572876,0.1773921549320221,-0.5861319303512573,-283.0810546875,36.80419921875,28.25927734375
7.914137125015259,-1270331955,0,1.7286754846572876,0.4325191080570221,0.3118172585964203,-267.02880859375,-4.33349609375,-51.6357421875
7.936789035797119,-1270331970,1,-1.3328715562820435,1.0634669065475464,0.27587583661079407,218.1396484375,-98.69384765625,-60.97412109375
7.936798810958862,-1270331951,1,-1.5782328844070435,1.1955469846725464,-0.17041324079036713,310.1806640625,-104.736328125,-92.1630859375
7.94462513923645,-1270331936,0,1.3971325159072876,0.7730952501296997,0.10625085979700089,-337.2802734375,-21.30126953125,-67.138671875
7.958901882171631,-1270331932,1,-1.2764750719070435,1.2197169065475464,-0.28271791338920593,329.52880859375,-112.4267578125,-145.08056640625
7.9848339557647705,-1270331900,0,1.0233532190322876,1.0362788438796997,-0.7343252897262573,-389.83154296875,124.20654296875,-85.8154296875
7.99071192741394,-1270331913,1,-0.7574321031570435,1.6706446409225464,-0.35986635088920593,332.763671875,-80.9326171875,-218.017578125
7.990718841552734,-1270331894,1,-0.42149457335472107,1.6049708127975464,-0.10132144391536713,299.86572265625,-42.17529296875,-213.0126953125
8.0035879611969,-1270331881,0,0.8497692346572876,0.8746577501296997,-0.2543448507785797,-274.2919921875,196.22802734375,-140.19775390625
8.018793821334839,-1270331875,1,-0.9830180406570435,1.1679590940475464,-0.19385074079036713,271.17919921875,62.68310546875,-178.16162109375
8.018893957138062,-1270331856,1,-0.9771586656570435,1.6865137815475464,-0.09961245954036713,392.15087890625,27.77099609375,-151.30615234375
8.041064023971558,-1270331862,0,1.4989391565322876,0.3250972330570221,0.1870613992214203,-280.3955078125,98.69384765625,-191.95556640625
8.041073083877563,-1270331843,0,1.8070446252822876,0.6014643907546997,-0.2707022726535797,-402.7099609375,-77.08740234375,-241.63818359375
8.062946081161499,-1270331824,0,1.6283336877822876,1.1617671251296997,-1.0749014616012573,-471.49658203125,-135.7421875,-216.85791015625
8.063863039016724,-1270331805,0,1.4498668909072876,0.9505854845046997,-1.1867178678512573,-377.3193359375,-25.69580078125,-175.84228515625
8.085640907287598,-1270331820,1,-0.8648539781570435,2.156972646713257,0.28466489911079407,490.29541015625,-33.63037109375,-42.48046875
8.093694925308228,-1270331786,0,1.3785778284072876,0.6363765001296997,-0.6403311491012573,-315.185546875,39.24560546875,-167.236328125
8.108953952789307,-1270331801,1,-0.9632426500320435,1.7253321409225464,0.25243833661079407,378.47900390625,0.244140625,-78.125
8.109129905700684,-1270331782,1,-1.0042582750320435,1.2712305784225464,0.13012386858463287,353.515625,14.83154296875,-94.23828125
8.109292030334473,-1270331763,1,-1.2042094469070435,1.1769922971725464,-0.06177065894007683,365.66162109375,-12.6953125,-129.0283203125
8.134076118469238,-1270331767,0,1.3514782190322876,0.4557124674320221,-0.2772940695285797,-333.1298828125,72.265625,-159.97314453125
8.134083986282349,-1270331748,0,1.2936168909072876,0.5445796251296997,-0.2558096945285797,-390.869140625,154.296875,-127.50244140625
8.1387939453125,-1270331744,1,-1.3550883531570435,1.4201563596725464,-0.19946597516536713,397.52197265625,-22.3388671875,-223.20556640625
8.156391143798828,-1270331729,0,1.2923961877822876,1.0426265001296997,-0.5646475553512573,-432.373046875,289.73388671875,-102.72216796875
8.168797969818115,-1270331725,1,-1.0193949937820435,1.6440333127975464,-0.39746400713920593,382.26318359375,-33.447265625,-324.03564453125
8.168952941894531,-1270331706,1,-0.7547465562820435,1.8845118284225464,-0.48242494463920593,408.8134765625,17.63916015625,-325.50048828125
8.188055992126465,-1270331710,0,1.2721325159072876,1.2008296251296997,-0.6073721647262573,-439.0869140625,337.7685546875,-113.4033203125
8.188063859939575,-1270331691,0,1.7027965784072876,0.8851557970046997,-0.2677725851535797,-444.9462890625,263.97705078125,-205.99365234375
8.199355125427246,-1270331687,1,-1.1053324937820435,1.9558008909225464,0.021481294184923172,486.38916015625,60.4248046875,-206.60400390625
8.21373200416565,-1270331672,0,2.126136541366577,1.1388179063796997,-0.6093252897262573,-463.0126953125,171.38671875,-229.736328125
8.23592495918274,-1270331668,1,-1.7588969469070435,2.160878896713257,0.14648129045963287,438.04931640625,33.63037109375,-196.59423828125
8.235932111740112,-1270331649,1,-1.6800395250320435,2.398183584213257,0.14379574358463287,312.68310546875,15.9912109375,-288.9404296875
8.244128942489624,-1270331636,0,2.334144353866577,1.0633784532546997,-0.7833975553512573,-299.9267578125,384.3994140625,-90.75927734375
8.25888705253601,-1270331630,1,-1.2894145250320435,2.070058584213257,0.47362974286079407,232.177734375,83.67919921875,-273.0712890625
8.283245086669922,-1270331617,0,2.437415838241577,0.3270503580570221,-0.6586416959762573,-207.275390625,326.47705078125,-119.56787109375
8.283254861831665,-1270331598,0,2.460365056991577,-0.025488704442977905,-0.7316397428512573,-138.671875,297.91259765625,-130.859375
8.29255199432373,-1270331611,1,-1.6595317125320435,1.7582911252975464,1.1284148693084717,194.88525390625,142.9443359375,-164.36767578125
8.292561054229736,-1270331592,1,-1.8016215562820435,1.4704493284225464,1.4216277599334717,89.53857421875,173.7060546875,-194.64111328125
8.317502975463867,-1270331556,1,-1.5862895250320435,0.7541407346725464,1.5964324474334717,-23.92578125,306.7626953125,-197.32666015625
8.340722799301147,-1270331579,0,2.280921697616577,-0.3470219075679779,-0.5438956022262573,-31.25,391.17431640625,-60.4248046875
8.340731143951416,-1270331560,0,2.121986150741577,-0.8082035779953003,-0.1532706320285797,45.83740234375,485.53466796875,-17.76123046875
8.340735912322998,-1270331541,0,1.8446422815322876,-1.1792973279953003,-0.040721796452999115,136.474609375,453.30810546875,-9.3994140625
8.348294019699097,-1270331537,1,-1.6163188219070435,0.7294825315475464,1.8676726818084717,-75.01220703125,320.6787109375,-205.38330078125
8.3926420211792,-1270331522,0,1.8546520471572876,-1.2339848279953003,0.08037195354700089,237.9150390625,416.748046875,-36.4990234375
8.393646001815796,-1270331503,0,2.298011541366577,-0.8489750623703003,0.2490731179714203,375.42724609375,328.2470703125,-42.8466796875
8.393725872039795,-1270331484,0,1.6825329065322876,-0.7903813123703003,0.5618172883987427,426.45263671875,250.3662109375,0.6103515625
8.40869402885437,-1270331518,1,-1.4615336656570435,0.7465723752975464,2.0153777599334717,-159.912109375,387.5732421875,-194.39697265625
8.408828020095825,-1270331499,1,-1.4324809312820435,0.5146387815475464,1.6796844005584717,-256.4697265625,406.982421875,-108.88671875
8.408841848373413,-1270331480,1,-1.3370219469070435,0.4680079221725464,1.0441863536834717,-299.9267578125,383.85009765625,-73.66943359375
8.435433864593506,-1270331465,0,1.2367321252822876,-0.4139164388179779,0.3560067117214203,440.185546875,249.08447265625,-9.09423828125
8.435442924499512,-1270331446,0,0.9859997034072876,-0.2002933919429779,0.3970223367214203,462.7685546875,262.20703125,-53.8330078125
8.439831972122192,-1270331461,1,-1.1624614000320435,0.4938868284225464,0.5993621349334717,-296.630859375,417.96875,-83.49609375
8.43983793258667,-1270331442,1,-0.9769145250320435,0.8803614377975464,0.18774105608463287,-269.8974609375,458.06884765625,-105.40771484375
8.453390121459961,-1270331427,0,1.4403454065322876,0.5230952501296997,0.1953621804714203,485.77880859375,231.201171875,-144.53125
8.46817398071289,-1270331423,1,-0.9649516344070435,1.1696680784225464,0.06298519670963287,-259.46044921875,478.6376953125,-36.9873046875
8.488128900527954,-1270331408,0,1.9252086877822876,0.8563472032546997,0.4243660867214203,511.23046875,121.337890625,-196.533203125
8.498481035232544,-1270331404,1,-1.2671977281570435,1.1620997190475464,-0.20605777204036713,-253.662109375,451.5380859375,75.25634765625
8.498574018478394,-1270331385,1,-1.2173930406570435,1.0964258909225464,-0.31347963213920593,-223.14453125,411.43798828125,71.2890625
8.513450860977173,-1270331372,0,1.2557750940322876,0.7984858751296997,0.2334481179714203,381.8359375,108.21533203125,-166.748046875
8.535803079605103,-1270331366,1,-0.7330180406570435,1.2004297971725464,-0.45971986651420593,-174.8046875,383.056640625,78.4912109375
8.535809993743896,-1270331347,1,-0.28355512022972107,1.3166407346725464,-0.37915346026420593,-153.38134765625,438.3544921875,109.375
8.545082092285156,-1270331353,0,0.9674450159072876,0.9059077501296997,-0.2753409445285797,367.37060546875,56.94580078125,-213.0126953125
8.545089960098267,-1270331334,0,0.8360973596572876,1.0401850938796997,-0.6457022428512573,420.0439453125,30.09033203125,-301.025390625
8.558531045913696,-1270331328,1,-0.20713911950588226,1.2824610471725464,-0.30566713213920593,-166.07666015625,548.4619140625,181.7626953125
8.584916830062866,-1270331315,0,0.9413219690322876,1.0030757188796997,-0.5465811491012573,512.63427734375,4.2724609375,-373.84033203125
8.584928035736084,-1270331296,0,1.2379528284072876,0.9364253282546997,-0.2382315695285797,549.74365234375,-33.69140625,-379.57763671875
8.589552164077759,-1270331292,1,-0.7586528062820435,1.0952051877975464,-0.19238589704036713,-228.21044921875,561.70654296875,256.89697265625
8.603173017501831,-1270331277,0,1.3492809534072876,0.8263179063796997,0.049121953547000885,517.4560546875,-39.73388671875,-326.171875
8.61818790435791,-1270331273,1,-0.9131938219070435,0.8806055784225464,-0.17163394391536713,-230.77392578125,445.12939453125,249.0234375
8.639541864395142,-1270331258,0,1.1310192346572876,0.5985347032546997,0.07329187542200089,424.74365234375,-50.537109375,-213.80615234375
8.639549970626831,-1270331239,0,0.7230602502822876,0.2745601236820221,-0.003368280827999115,327.392578125,-38.39111328125,-138.12255859375
8.648135900497437,-1270331254,1,-0.7379008531570435,0.7285059690475464,-0.12280581891536713,-219.17724609375,330.01708984375,218.32275390625
8.648230075836182,-1270331235,1,-0.40782269835472107,0.5056055784225464,-0.04492495581507683,-181.2744140625,238.58642578125,170.10498046875
8.663481950759888,-1270331220,0,0.3009411096572876,0.0682612955570221,-0.1537589132785797,273.92578125,-42.96875,-116.51611328125
8.689122915267944,-1270331216,1,-0.08213911950588226,0.3237208127975464,0.06200863793492317,-154.1748046875,204.2236328125,136.962890625
8.689132928848267,-1270331197,1,0.07899369299411774,0.3156641721725464,0.12963558733463287,-128.96728515625,190.00244140625,119.32373046875
8.693246841430664,-1270331201,0,0.0975719764828682,-0.0826176106929779,-0.2118643820285797,258.1787109375,-52.24609375,-130.43212890625
8.693384885787964,-1270331182,0,0.0912243202328682,-0.1753910481929779,-0.3515128195285797,230.52978515625,-66.89453125,-169.0673828125
8.708042860031128,-1270331178,1,0.20448197424411774,0.3159083127975464,0.25927427411079407,-102.47802734375,188.41552734375,116.0888671875
8.73589015007019,-1270331163,0,-0.012291304767131805,-0.4566410481929779,-0.4723624289035797,180.72509765625,-38.4521484375,-202.94189453125
8.739907026290894,-1270331159,1,0.46620073914527893,0.1760157197713852,0.5268523693084717,-54.01611328125,197.8759765625,126.708984375
8.740396976470947,-1270331140,1,0.7340229749679565,0.05248056724667549,0.8520476818084717,22.76611328125,207.21435546875,162.04833984375
8.753026008605957,-1270331144,0,-0.0835803672671318,-0.8196781873703003,-0.5458487272262573,137.939453125,-27.89306640625,-229.00390625
8.767987966537476,-1270331121,1,0.8787983655929565,0.05150400474667549,1.1538054943084717,103.02734375,210.87646484375,178.22265625
8.787389993667603,-1270331108,0,-0.3621448278427124,-1.3851078748703003,-0.8854483366012573,25.57373046875,-67.87109375,-292.1142578125
8.787398099899292,-1270331089,0,-0.5149768590927124,-1.6338871717453003,-1.1728018522262573,-38.0859375,-64.8193359375,-313.1103515625
8.798372030258179,-1270331102,1,1.0828999280929565,0.07835946977138519,1.3608367443084717,149.96337890625,195.12939453125,170.5322265625
8.798396110534668,-1270331083,1,1.4107807874679565,-0.02149404212832451,1.5578582286834717,209.5947265625,175.6591796875,165.8935546875
8.813063144683838,-1270331070,0,-0.7046741247177124,-1.9407719373703003,-1.1969717741012573,-87.09716796875,-68.7255859375,-362.36572265625
