sync_time,timestamp_ms,device_id,ax,ay,az,gx,gy,gz
0.0026879310607910156,-1266259694,1,0.2503703236579895,-0.2575896680355072,0.9754657745361328,1.8310546875,-26.30615234375,-28.62548828125
0.0026938915252685547,-1266259675,1,0.2054484486579895,-0.2304900586605072,1.0330829620361328,5.4931640625,-26.4892578125,-38.0859375
0.02450108528137207,-1266259656,0,-0.8910035490989685,-0.3294101059436798,0.7008650302886963,22.5830078125,-21.17919921875,-28.076171875
0.03045201301574707,-1266259656,1,0.1983683705329895,-0.1841033399105072,1.0809345245361328,7.26318359375,-27.52685546875,-37.90283203125
0.053131103515625,-1266259637,0,-0.9449586272239685,-0.3137851059436798,0.7599470615386963,16.11328125,-22.4609375,-27.099609375
0.05322694778442383,-1266259618,0,-0.9935426115989685,-0.3757968246936798,0.7872908115386963,5.43212890625,-28.1982421875,-23.01025390625
0.060791015625,-1266259637,1,0.2037394642829895,-0.1970427930355072,1.1619892120361328,7.14111328125,-29.6630859375,-29.60205078125
0.060868024826049805,-1266259618,1,0.2249796986579895,-0.2202361524105072,1.2139911651611328,8.85009765625,-34.72900390625,-18.73779296875
0.09296417236328125,-1266259599,0,-1.0492066144943237,-0.4480624496936798,0.7926619052886963,-3.2958984375,-34.11865234375,-24.59716796875
0.09687495231628418,-1266259599,1,0.2240031361579895,-0.2539275586605072,1.2213153839111328,7.50732421875,-48.4619140625,-16.2353515625
0.09688305854797363,-1266259580,1,0.2298625111579895,-0.2519744336605072,1.1829853057861328,0.8544921875,-56.884765625,-23.3154296875
0.11356806755065918,-1266259580,0,-1.0206421613693237,-0.4885897934436798,0.7387068271636963,0.244140625,-46.44775390625,-38.57421875
0.11364984512329102,-1266259561,0,-0.9376344084739685,-0.4607577621936798,0.6942732334136963,5.55419921875,-50.29296875,-51.513671875
0.1206200122833252,-1266259561,1,0.2508586049079895,-0.2395232617855072,1.0797138214111328,-3.96728515625,-63.4765625,-34.7900390625
0.14440608024597168,-1266259542,0,-0.8304566740989685,-0.4165683090686798,0.6432478427886963,13.24462890625,-47.36328125,-58.53271484375
0.1506481170654297,-1266259542,1,0.2896769642829895,-0.2177947461605072,0.9962177276611328,-6.16455078125,-56.884765625,-43.51806640625
0.19029712677001953,-1266259506,1,0.3509562611579895,-0.2046111524105072,0.9178485870361328,-8.4228515625,-30.517578125,-62.80517578125
0.2033841609954834,-1266259506,0,-0.7071656584739685,-0.4046054184436798,0.6300642490386963,32.1044921875,-24.5361328125,-57.31201171875
0.20339202880859375,-1266259487,0,-0.6681031584739685,-0.4038729965686798,0.6559431552886963,46.93603515625,-8.60595703125,-53.28369140625
0.20373296737670898,-1266259468,0,-0.6485719084739685,-0.3718905746936798,0.6796247959136963,58.7158203125,9.21630859375,-48.52294921875
0.21038007736206055,-1266259487,1,0.3804972767829895,-0.1965545117855072,0.8870868682861328,-6.103515625,-14.58740234375,-78.369140625
0.2104482650756836,-1266259468,1,0.3787882924079895,-0.1701873242855072,0.9249286651611328,-4.45556640625,1.8310546875,-87.82958984375
0.24175000190734863,-1266259449,0,-0.6939820647239685,-0.3469882309436798,0.7401716709136963,70.3125,14.6484375,-43.9453125
0.24502301216125488,-1266259449,1,0.3536418080329895,-0.1416228711605072,0.9356708526611328,4.0283203125,8.11767578125,-92.71240234375
0.24503087997436523,-1266259430,1,0.3834269642829895,-0.0869353711605072,0.8773212432861328,2.44140625,19.287109375,-100.89111328125
0.2629709243774414,-1266259430,0,-0.6671265959739685,-0.3323397934436798,0.7299177646636963,78.91845703125,19.4091796875,-38.75732421875
0.26308393478393555,-1266259411,0,-0.5841187834739685,-0.3599276840686798,0.7074568271636963,83.1298828125,34.1796875,-36.56005859375
0.27025699615478516,-1266259411,1,0.3785441517829895,-0.0981658399105072,0.8431415557861328,-7.26318359375,39.306640625,-108.642578125
0.2969191074371338,-1266259392,0,-0.6366090178489685,-0.3091464340686798,0.6591169834136963,78.4912109375,63.3544921875,-40.46630859375
0.29692697525024414,-1266259373,0,-0.6466187834739685,-0.3672519028186798,0.7396833896636963,86.181640625,73.91357421875,-43.15185546875
0.3004181385040283,-1266259392,1,0.3870890736579895,-0.1606658399105072,0.8829364776611328,-9.27734375,52.1240234375,-124.6337890625
0.30045485496520996,-1266259373,1,0.3136027455329895,-0.2710174024105072,0.8660907745361328,1.46484375,65.85693359375,-147.705078125
0.32285380363464355,-1266259354,0,-0.7191285490989685,-0.3672519028186798,0.7709333896636963,103.45458984375,66.83349609375,-44.49462890625
0.3432431221008301,-1266259354,1,0.2630656361579895,-0.2138884961605072,0.9608173370361328,38.2080078125,54.3212890625,-175.10986328125
0.3532531261444092,-1266259335,0,-0.6627320647239685,-0.3386874496936798,0.7658064365386963,126.5869140625,50.35400390625,-49.49951171875
0.3533968925476074,-1266259316,0,-0.6446656584739685,-0.3789706528186798,0.7850935459136963,133.85009765625,61.1572265625,-59.38720703125
0.36064696311950684,-1266259335,1,0.3499796986579895,0.013650570064783096,0.9442157745361328,46.81396484375,42.96875,-191.89453125
0.3607029914855957,-1266259316,1,0.4915812611579895,0.1052033007144928,0.9036884307861328,26.06201171875,46.0205078125,-188.04931640625
0.39284515380859375,-1266259297,0,-0.6319703459739685,-0.3828769028186798,0.8619978427886963,120.60546875,80.13916015625,-76.84326171875
0.3969449996948242,-1266259297,1,0.4263957142829895,-0.011251773685216904,0.9730243682861328,8.30078125,54.443359375,-182.0068359375
0.39695310592651367,-1266259278,1,0.4473918080329895,-0.043966617435216904,1.0145282745361328,11.04736328125,46.93603515625,-208.55712890625
0.4134860038757324,-1266259278,0,-0.6373414397239685,-0.4216952621936798,0.9494001865386963,106.01806640625,72.3876953125,-81.35986328125
0.44577884674072266,-1266259242,0,-1.0245484113693237,0.2594570815563202,0.7985212802886963,37.4755859375,-162.353515625,-131.40869140625
0.4457871913909912,-1266259223,0,-1.2740601301193237,-0.180240198969841,1.1183454990386963,167.236328125,132.99560546875,-109.86328125
0.45040202140808105,-1266259242,1,0.052860554307699203,0.3019806444644928,0.8931903839111328,10.92529296875,96.5576171875,-373.291015625
0.45047903060913086,-1266259223,1,0.0787394642829895,0.5512482523918152,1.5389423370361328,56.5185546875,120.05615234375,-255.18798828125
0.4729180335998535,-1266259204,0,-1.0931519269943237,-0.194156214594841,1.2858259677886963,184.2041015625,43.76220703125,-92.4072265625
0.4916520118713379,-1266259204,1,0.2784464955329895,0.5182892680168152,1.2747821807861328,65.4296875,49.37744140625,-205.13916015625
0.503061056137085,-1266259185,0,-0.9176148772239685,-0.3191561996936798,1.1222517490386963,202.392578125,67.138671875,-76.23291015625
0.5031781196594238,-1266259166,0,-0.9422730803489685,-0.3279452621936798,1.0211775302886963,150.69580078125,28.6865234375,-79.77294921875
0.5105459690093994,-1266259185,1,0.2576945424079895,0.1015411913394928,1.3643817901611328,52.91748046875,79.7119140625,-236.9384765625
0.5107109546661377,-1266259166,1,0.0968058705329895,0.1711212694644928,1.1973896026611328,36.68212890625,72.998046875,-244.07958984375
0.5429320335388184,-1266259147,0,-0.6378297209739685,-0.190005823969841,1.0038435459136963,125.732421875,67.0166015625,-108.88671875
0.5461061000823975,-1266259147,1,-0.036739055067300797,0.8361603617668152,1.3292255401611328,44.189453125,90.39306640625,-232.72705078125
0.5461139678955078,-1266259128,1,-0.1036335825920105,0.2487579882144928,1.0096454620361328,9.09423828125,101.37939453125,-231.689453125
0.595958948135376,-1266259128,0,-0.8158082365989685,0.006771523505449295,1.1869490146636963,158.3251953125,59.4482421875,-84.77783203125
0.5959658622741699,-1266259109,0,-0.4932984411716461,-0.8069491982460022,0.5541365146636963,192.626953125,96.3134765625,-110.83984375
0.5959711074829102,-1266259090,0,-0.4176148474216461,-0.127749964594841,1.0973494052886963,233.82568359375,129.638671875,-179.3212890625
0.5959749221801758,-1266259071,0,-0.3504761755466461,-0.3594394028186798,0.7015974521636963,259.033203125,134.3994140625,-161.0107421875
0.6004841327667236,-1266259109,1,-0.1688191294670105,0.4040314257144928,0.8709735870361328,45.0439453125,134.765625,-226.50146484375
0.6005990505218506,-1266259090,1,-0.2405964732170105,0.3881622850894928,0.9293231964111328,5.18798828125,135.55908203125,-255.7373046875
0.622748851776123,-1266259052,0,-0.3812378942966461,0.00017972663044929504,1.0035994052886963,285.09521484375,97.16796875,-149.71923828125
0.6410198211669922,-1266259071,1,-0.4515339732170105,0.5085236430168152,0.9141864776611328,-14.6484375,113.58642578125,-154.052734375
0.6410269737243652,-1266259052,1,-0.4766804575920105,0.2905060350894928,0.8372821807861328,-34.97314453125,104.06494140625,-119.384765625
0.6530771255493164,-1266259033,0,-0.7389039397239685,0.6639980673789978,0.8715193271636963,189.697265625,-79.2236328125,-132.38525390625
0.653130054473877,-1266259014,0,-0.6217164397239685,0.4567227065563202,1.0607283115386963,138.48876953125,4.57763671875,-157.28759765625
0.6603760719299316,-1266259033,1,-0.6400105357170105,0.3810822069644928,0.6727313995361328,-21.05712890625,70.61767578125,-74.462890625
0.6604530811309814,-1266259014,1,-0.4796101450920105,0.2084747850894928,0.5965595245361328,-7.50732421875,50.96435546875,-38.87939453125
0.6965408325195312,-1266258978,1,-0.4822956919670105,0.5873810648918152,0.8568134307861328,-92.71240234375,-17.822265625,54.26025390625
0.7135989665985107,-1266258978,0,-0.5787476897239685,0.2638516128063202,0.9660017490386963,58.9599609375,96.435546875,-132.9345703125
0.7137441635131836,-1266258959,0,-0.3045777380466461,0.172543004155159,1.0524275302886963,47.79052734375,104.4921875,-124.0234375
0.7232489585876465,-1266258959,1,-0.4344441294670105,0.6227814555168152,0.6292743682861328,-193.78662109375,-155.029296875,117.00439453125
0.7474911212921143,-1266258940,0,-0.3604859411716461,-0.006656210869550705,1.0592634677886963,34.423828125,111.02294921875,-135.07080078125
0.7474989891052246,-1266258921,0,-0.6641969084739685,0.191097691655159,0.8610212802886963,-7.75146484375,67.87109375,-89.111328125
0.7504990100860596,-1266258940,1,-0.2850300669670105,0.042459163814783096,0.7401142120361328,-265.31982421875,-312.98828125,95.27587890625
0.750629186630249,-1266258921,1,-0.2222859263420105,-0.2463591992855072,0.5721454620361328,-228.45458984375,-308.2275390625,78.18603515625
0.7728419303894043,-1266258902,0,-0.5150269865989685,0.115414097905159,0.8827497959136963,14.83154296875,59.99755859375,-50.23193359375
0.7907631397247314,-1266258902,1,-0.2293660044670105,-0.4782927930355072,0.6822528839111328,-150.08544921875,-236.38916015625,83.67919921875
0.803015947341919,-1266258883,0,-0.6432008147239685,0.129574254155159,0.9049665927886963,59.87548828125,96.435546875,-63.78173828125
0.8031160831451416,-1266258864,0,-0.6034058928489685,-0.025455038994550705,0.8800642490386963,89.53857421875,75.98876953125,-84.228515625
0.810805082321167,-1266258883,1,-0.1248738169670105,-0.4685271680355072,0.7408466339111328,-13.18359375,-157.2265625,172.119140625
0.8108899593353271,-1266258864,1,-0.1219441294670105,-0.1628631055355072,0.8363056182861328,74.462890625,-148.49853515625,212.2802734375
0.8419020175933838,-1266258845,0,-0.5230836272239685,0.006283242255449295,0.7970564365386963,82.94677734375,67.44384765625,-75.37841796875
0.8451089859008789,-1266258845,1,-0.1282917857170105,-0.1067107617855072,0.8736591339111328,96.86279296875,-132.62939453125,230.77392578125
0.8630149364471436,-1266258826,0,-0.5482301115989685,0.046566445380449295,0.7440779209136963,69.580078125,50.1708984375,-57.6171875
0.8631219863891602,-1266258807,0,-0.6947144865989685,0.056087929755449295,0.6891462802886963,70.00732421875,33.02001953125,-65.0634765625
0.8702719211578369,-1266258826,1,-0.0992390513420105,-0.0808318555355072,0.8768329620361328,83.92333984375,-124.69482421875,245.1171875
0.8703658580780029,-1266258807,1,-0.024776164442300797,-0.027853336185216904,0.8511981964111328,59.9365234375,-110.90087890625,241.76025390625
0.8928911685943604,-1266258788,0,-0.8153199553489685,0.086361363530159,0.6041853427886963,78.369140625,11.16943359375,-83.984375
0.9005630016326904,-1266258788,1,0.1141398549079895,-0.025167789310216904,0.8033466339111328,44.3115234375,-77.08740234375,232.84912109375
0.9006881713867188,-1266258769,1,0.3050578236579895,-0.1130584180355072,0.8446063995361328,57.0068359375,-47.36328125,228.57666015625
0.9230341911315918,-1266258769,0,-0.9791383147239685,0.078304722905159,0.5419294834136963,42.236328125,-75.62255859375,-78.18603515625
0.9231150150299072,-1266258750,0,-0.7411012053489685,-0.171206995844841,0.7118513584136963,13.7939453125,-77.5146484375,-115.478515625
0.9409289360046387,-1266258750,1,0.3077433705329895,-0.1071990430355072,0.8465595245361328,80.50537109375,-17.76123046875,225.4638671875
0.9528918266296387,-1266258714,0,-0.6436890959739685,-0.2915683090686798,0.4848005473613739,26.4892578125,37.841796875,-107.0556640625
0.9604249000549316,-1266258714,1,0.3216593861579895,-0.2597869336605072,0.8978290557861328,113.22021484375,-8.23974609375,170.5322265625
0.9955329895019531,-1266258695,0,-0.6861695647239685,-0.3167147934436798,0.2987653911113739,15.0146484375,37.78076171875,-18.6767578125
0.9992740154266357,-1266258695,1,0.4051554799079895,-0.3217986524105072,0.8812274932861328,98.08349609375,-12.0849609375,160.70556640625
1.0129868984222412,-1266258676,0,-0.7469605803489685,-0.2678866684436798,0.1891462504863739,30.76171875,16.05224609375,37.4755859375
1.0131242275238037,-1266258657,0,-0.7284058928489685,-0.233951136469841,0.2601911723613739,38.87939453125,-33.935546875,84.65576171875
1.0208189487457275,-1266258676,1,0.6043742299079895,-0.2678435742855072,0.7423114776611328,83.06884765625,7.50732421875,139.09912109375
1.020880937576294,-1266258657,1,0.6300089955329895,-0.3161834180355072,0.7447528839111328,80.56640625,28.99169921875,106.689453125
1.0461571216583252,-1266258638,0,-0.7530640959739685,-0.249087855219841,0.3280622661113739,49.74365234375,-52.978515625,107.5439453125
1.07212495803833,-1266258619,0,-0.9618043303489685,-0.203677698969841,0.4081403911113739,47.79052734375,-45.83740234375,122.37548828125
1.0730209350585938,-1266258600,0,-0.9737672209739685,-0.045474570244550705,0.3934919536113739,18.00537109375,-33.63037109375,115.90576171875
1.0892539024353027,-1266258638,1,0.5936320424079895,-0.2832244336605072,0.7554950714111328,92.6513671875,30.517578125,73.66943359375
1.0892620086669922,-1266258619,1,0.6151164174079895,-0.1596892774105072,0.6959247589111328,94.3603515625,37.7197265625,60.85205078125
1.0892670154571533,-1266258600,1,0.6146281361579895,-0.034445133060216904,0.6002216339111328,83.0078125,44.7998046875,53.8330078125
1.1034910678863525,-1266258581,0,-0.8453492522239685,-0.037417929619550705,0.3151228129863739,-11.90185546875,-22.52197265625,99.30419921875
1.1036200523376465,-1266258562,0,-0.8595094084739685,-0.061343710869550705,0.3236677348613739,-23.13232421875,-19.83642578125,89.17236328125
1.112250804901123,-1266258581,1,0.6539347767829895,-0.0036834143102169037,0.5863056182861328,49.8046875,49.13330078125,47.91259765625
1.112260103225708,-1266258562,1,0.6890910267829895,-0.0022185705602169037,0.6795673370361328,21.17919921875,55.11474609375,40.22216796875
1.1420128345489502,-1266258543,0,-0.9366578459739685,-0.044009726494550705,0.3353864848613739,-28.4423828125,-39.794921875,87.95166015625
1.1451489925384521,-1266258543,1,0.6136515736579895,0.029763851314783096,0.8048114776611328,7.50732421875,65.91796875,22.5830078125
1.163228988647461,-1266258524,0,-0.9940308928489685,0.023617226630449295,0.3554060161113739,-30.6396484375,-60.11962890625,92.34619140625
1.163344144821167,-1266258505,0,-0.8792847990989685,0.093441441655159,0.4457380473613739,-45.95947265625,-59.6923828125,82.03125
1.170593023300171,-1266258524,1,0.4866984486579895,0.1340118944644928,0.8482685089111328,6.77490234375,66.7724609375,16.05224609375
1.1706838607788086,-1266258505,1,0.5164836049079895,0.2450958788394928,0.7457294464111328,-6.65283203125,42.3583984375,-2.9296875
1.1952409744262695,-1266258486,0,-0.8026246428489685,0.140072301030159,0.5009138584136963,-61.4013671875,-43.15185546875,76.23291015625
1.2002081871032715,-1266258486,1,0.5467570424079895,0.3727814257144928,0.7852802276611328,-22.5830078125,30.3955078125,-5.4931640625
1.2228858470916748,-1266258450,0,-1.0428589582443237,0.144466832280159,0.6425154209136963,-76.96533203125,-38.39111328125,-44.37255859375
1.2406468391418457,-1266258450,1,0.4456828236579895,0.5749298930168152,1.2105731964111328,-104.00390625,58.28857421875,92.71240234375
1.2596850395202637,-1266258431,1,0.3846476674079895,0.4401642382144928,1.4254169464111328,-143.310546875,65.91796875,121.7041015625
1.260519027709961,-1266258412,1,0.3470500111579895,0.2804962694644928,1.3753681182861328,-154.11376953125,58.4716796875,82.94677734375
1.2899079322814941,-1266258431,0,-1.0748413801193237,-0.039371054619550705,0.7123396396636963,-74.462890625,-42.48046875,-117.73681640625
1.2899560928344727,-1266258412,0,-0.8631715178489685,-0.2605624496936798,0.8915388584136963,-89.35546875,-12.939453125,-156.8603515625
1.2899608612060547,-1266258393,0,-0.7633180022239685,-0.2798495590686798,0.4725935161113739,-130.67626953125,-9.70458984375,-107.72705078125
1.2935738563537598,-1266258393,1,0.1251261830329895,0.3400665819644928,1.1182880401611328,-151.123046875,53.5888671875,29.47998046875
1.319885015487671,-1266258374,1,-0.0919148325920105,0.1137482225894928,1.0848407745361328,-132.2021484375,73.91357421875,-12.6953125
1.3207030296325684,-1266258355,1,-0.1092488169670105,0.045632991939783096,0.9405536651611328,-52.734375,18.4326171875,-18.06640625
1.3480949401855469,-1266258374,0,-0.6156129240989685,-0.239078089594841,0.3551618754863739,-137.939453125,-11.90185546875,-15.19775390625
1.3481040000915527,-1266258355,0,-0.6573609709739685,-0.130435511469841,0.6010115146636963,-111.6943359375,-23.49853515625,72.81494140625
1.3481090068817139,-1266258336,0,-0.6522340178489685,0.017757851630449295,0.7045271396636963,-105.89599609375,-19.4091796875,115.3564453125
1.350229024887085,-1266258336,1,0.059208210557699203,0.2231232225894928,0.8878192901611328,21.97265625,2.01416015625,9.1552734375
1.3729851245880127,-1266258317,0,-0.6200074553489685,0.023617226630449295,0.5656111240386963,-98.57177734375,-2.44140625,126.64794921875
1.3731892108917236,-1266258298,0,-0.6168336272239685,0.087826207280159,0.4840681254863739,-87.890625,-25.5126953125,142.88330078125
1.3923461437225342,-1266258317,1,0.039188679307699203,0.2072540819644928,0.8109149932861328,21.728515625,30.82275390625,-0.54931640625
1.3923540115356445,-1266258298,1,0.0054972730576992035,0.1315704882144928,0.7957782745361328,30.21240234375,41.50390625,3.72314453125
1.402951955795288,-1266258279,0,-0.6585816740989685,0.141537144780159,0.5890486240386963,-96.0693359375,-53.03955078125,136.962890625
1.4104530811309814,-1266258279,1,-0.0758015513420105,0.1240021288394928,0.8636493682861328,29.84619140625,44.5556640625,10.92529296875
1.4105658531188965,-1266258260,1,-0.0948445200920105,0.1677033007144928,0.8848896026611328,29.35791015625,46.875,49.25537109375
1.4418089389801025,-1266258260,0,-0.7196168303489685,0.155209019780159,0.6581404209136963,-106.62841796875,-57.18994140625,111.38916015625
1.4418160915374756,-1266258241,0,-0.7716187834739685,0.052425820380449295,0.6718122959136963,-109.619140625,-37.53662109375,85.5712890625
1.4448390007019043,-1266258241,1,-0.0933796763420105,0.1017853319644928,0.8895282745361328,12.26806640625,53.16162109375,92.041015625
1.4629249572753906,-1266258222,0,-0.8795289397239685,0.083431676030159,0.6803572177886963,-103.57666015625,-4.82177734375,68.7255859375
1.470242977142334,-1266258222,1,-0.1336628794670105,-0.061788883060216904,0.9234638214111328,14.46533203125,47.2412109375,119.44580078125
1.495232105255127,-1266258186,0,-0.9334840178489685,-0.088443323969841,0.6588728427886963,-87.58544921875,-12.20703125,56.0302734375
1.5008270740509033,-1266258186,1,-0.1383015513420105,-0.042257633060216904,1.0091571807861328,35.82763671875,38.63525390625,140.68603515625
1.523061990737915,-1266258167,0,-1.0255249738693237,-0.060855429619550705,0.6493513584136963,-88.9892578125,-19.95849609375,28.564453125
1.523151159286499,-1266258148,0,-1.0733765363693237,-0.121402308344841,0.7037947177886963,-97.16796875,-48.76708984375,4.5166015625
1.5403380393981934,-1266258167,1,-0.0904499888420105,-0.035909976810216904,1.0594501495361328,26.85546875,50.23193359375,151.611328125
1.5403451919555664,-1266258148,1,-0.1087605357170105,-0.0769256055355072,1.0904560089111328,15.93017578125,43.15185546875,157.8369140625
1.5529148578643799,-1266258129,0,-1.0916870832443237,-0.207583948969841,0.7108747959136963,-102.294921875,-55.908203125,-0.67138671875
1.5603351593017578,-1266258129,1,-0.1155964732170105,-0.0971892774105072,1.1339130401611328,10.55908203125,15.19775390625,152.64892578125
1.5604329109191895,-1266258110,1,-0.1124226450920105,-0.052511539310216904,1.1326923370361328,13.3056640625,-2.99072265625,134.70458984375
1.5922319889068604,-1266258110,0,-1.0909546613693237,-0.112124964594841,0.7369978427886963,-106.0791015625,-62.19482421875,5.92041015625
1.592242956161499,-1266258091,0,-0.8822144865989685,-0.171206995844841,0.7806990146636963,-97.900390625,-26.67236328125,-28.564453125
1.5969409942626953,-1266258091,1,-0.1109578013420105,-0.046408023685216904,1.1207294464111328,19.59228515625,-21.54541015625,133.6669921875
1.6492481231689453,-1266258072,0,-0.6869019865989685,-0.193912073969841,0.7833845615386963,-97.71728515625,-3.84521484375,-37.59765625
1.6492578983306885,-1266258053,0,-0.6847047209739685,-0.156314417719841,0.7545759677886963,-104.98046875,-5.615234375,-5.06591796875
1.6492648124694824,-1266258034,0,-0.6429566740989685,-0.104068323969841,0.8605329990386963,-96.435546875,-7.87353515625,40.771484375
1.6506750583648682,-1266258072,1,-0.0928913950920105,-0.0920623242855072,1.1280536651611328,23.49853515625,-28.86962890625,128.0517578125
1.6508090496063232,-1266258053,1,-0.038448039442300797,-0.048849429935216904,1.0889911651611328,21.240234375,-17.02880859375,98.7548828125
1.6509060859680176,-1266258034,1,0.039188679307699203,-0.019064273685216904,1.0216083526611328,28.6865234375,-10.07080078125,74.52392578125
1.6744990348815918,-1266258015,0,-0.7025269865989685,-0.067691370844841,0.8734724521636963,-76.2939453125,-6.8359375,56.396484375
1.6745071411132812,-1266257996,0,-0.7164430022239685,-0.152408167719841,0.9291365146636963,-55.17578125,-1.52587890625,57.92236328125
1.6913819313049316,-1266258015,1,0.058475788682699203,0.053445491939783096,0.9881610870361328,33.38623046875,-12.63427734375,65.12451171875
1.691391944885254,-1266257996,1,0.1326945424079895,0.1388947069644928,0.9141864776611328,32.958984375,-18.49365234375,61.95068359375
1.7028841972351074,-1266257977,0,-0.7413453459739685,-0.181705042719841,0.9757673740386963,-50.78125,-22.705078125,74.5849609375
1.7103281021118164,-1266257977,1,0.1705363392829895,0.1752716600894928,0.8599872589111328,27.34375,-18.98193359375,60.546875
1.7104229927062988,-1266257958,1,0.2515910267829895,0.2145783007144928,0.8848896026611328,16.41845703125,-13.24462890625,53.8330078125
1.741786241531372,-1266257958,0,-0.7913941740989685,-0.118472620844841,1.0397322177886963,-59.9365234375,-32.89794921875,84.3505859375
1.7621240615844727,-1266257922,0,-0.7940797209739685,-0.170718714594841,1.1503279209136963,-32.16552734375,-5.4931640625,76.47705078125
1.7629871368408203,-1266257903,0,-0.7833375334739685,-0.117984339594841,1.0851423740386963,-28.01513671875,-9.033203125,91.30859375
1.7704720497131348,-1266257923,1,0.2994425892829895,0.2114044725894928,0.8944110870361328,11.90185546875,-46.2646484375,0.8544921875
1.7705769538879395,-1266257903,1,0.3428996205329895,0.2868439257144928,0.9298114776611328,8.11767578125,-45.41015625,-8.1787109375
1.7951300144195557,-1266257884,0,-0.7589234709739685,-0.162417933344841,1.1041853427886963,-24.0478515625,-1.77001953125,69.82421875
1.8002490997314453,-1266257884,1,0.3736613392829895,0.3278595507144928,0.9337177276611328,-6.34765625,-21.91162109375,7.32421875
1.8230609893798828,-1266257865,0,-0.7171754240989685,-0.169498011469841,1.1276228427886963,-13.00048828125,-12.451171875,48.88916015625
1.8231689929962158,-1266257846,0,-0.6598023772239685,-0.3318515121936798,1.2116072177886963,-3.0517578125,12.63427734375,8.23974609375
1.841123104095459,-1266257865,1,0.4278605580329895,0.2040802538394928,1.0147724151611328,-36.62109375,-9.6435546875,13.671875
1.8419981002807617,-1266257846,1,0.5020793080329895,0.0763947069644928,1.0943622589111328,-40.22216796875,28.62548828125,5.43212890625
1.854475975036621,-1266257827,0,-0.6761597990989685,-0.3443026840686798,1.0831892490386963,14.70947265625,23.193359375,16.17431640625
1.862051010131836,-1266257827,1,0.5557902455329895,0.004861507564783096,1.1575946807861328,-20.69091796875,68.603515625,-21.6064453125
1.8621790409088135,-1266257808,1,0.3326457142829895,0.032449398189783096,1.1951923370361328,-5.0048828125,100.28076171875,-29.1748046875
1.8928229808807373,-1266257808,0,-0.6349000334739685,-0.3921542465686798,1.0704939365386963,36.07177734375,21.3623046875,47.05810546875
1.8928310871124268,-1266257789,0,-0.6414918303489685,-0.3457675278186798,1.1044294834136963,57.67822265625,19.34814453125,65.12451171875
1.897618055343628,-1266257789,1,0.1124308705329895,0.031472835689783096,1.3009052276611328,-7.4462890625,67.07763671875,2.38037109375
1.9133660793304443,-1266257770,0,-0.6585816740989685,-0.2683749496936798,1.1620466709136963,68.84765625,9.033203125,60.48583984375
1.913473129272461,-1266257751,0,-0.6676148772239685,-0.225894495844841,1.2033064365386963,70.80078125,16.29638671875,30.57861328125
1.92195725440979,-1266257770,1,0.1151164174079895,-0.047628726810216904,1.3665790557861328,-4.45556640625,14.16015625,29.296875
1.9220302104949951,-1266257751,1,0.2716105580329895,-0.2219451367855072,1.3023700714111328,27.4658203125,-2.685546875,14.70947265625
1.9474570751190186,-1266257732,0,-0.6324586272239685,-0.2893710434436798,1.1998884677886963,55.96923828125,26.30615234375,12.451171875
1.951827049255371,-1266257732,1,0.3367961049079895,-0.2029021680355072,1.2911396026611328,60.48583984375,2.50244140625,3.2958984375
1.9730110168457031,-1266257713,0,-0.5482301115989685,-0.2908358871936798,1.1632673740386963,33.5693359375,40.95458984375,20.08056640625
1.9730870723724365,-1266257694,0,-0.5184449553489685,-0.163394495844841,1.1329939365386963,29.9072265625,51.57470703125,33.38623046875
1.991804838180542,-1266257713,1,0.2491496205329895,-0.1091521680355072,1.3111591339111328,72.3876953125,9.765625,-8.85009765625
1.9918122291564941,-1266257694,1,0.2305949330329895,0.029031429439783096,1.2757587432861328,61.09619140625,4.150390625,-11.53564453125
2.009273052215576,-1266257658,1,0.1529582142829895,0.049539241939783096,1.1026630401611328,55.2978515625,-8.4228515625,2.38037109375
2.0392189025878906,-1266257658,0,-0.5333375334739685,-0.117251917719841,1.0604841709136963,48.52294921875,48.7060546875,24.84130859375
2.03922700881958,-1266257639,0,-0.5182008147239685,-0.112613245844841,1.0504744052886963,43.27392578125,35.58349609375,18.85986328125
2.0419251918792725,-1266257639,1,0.1641886830329895,0.0937286913394928,1.0028095245361328,57.9833984375,-26.123046875,-17.08984375
2.0641019344329834,-1266257620,0,-0.4693726599216461,-0.079165980219841,1.0411970615386963,26.2451171875,18.37158203125,9.765625
2.0641112327575684,-1266257601,0,-0.4913453161716461,-0.119693323969841,0.9901716709136963,19.8974609375,28.62548828125,-2.74658203125
2.0703580379486084,-1266257620,1,0.1290324330329895,0.008035335689783096,1.0059833526611328,68.7255859375,-32.470703125,-21.6064453125
2.0704751014709473,-1266257601,1,0.0997355580329895,0.006082210689783096,0.9400653839111328,78.18603515625,-27.64892578125,-9.3994140625
2.0934841632843018,-1266257582,0,-0.4857300817966461,-0.153628870844841,0.9432966709136963,18.06640625,41.1376953125,14.22119140625
2.1002800464630127,-1266257582,1,0.052860554307699203,-0.1191619336605072,0.9022235870361328,84.65576171875,-10.25390625,-9.27734375
2.124624252319336,-1266257563,0,-0.5147828459739685,-0.079898402094841,0.8834822177886963,21.484375,49.072265625,33.26416015625
2.1247239112854004,-1266257544,0,-0.4364136755466461,-0.086734339594841,0.7921736240386963,22.216796875,60.1806640625,41.9921875
2.140317916870117,-1266257563,1,0.0806925892829895,-0.0925506055355072,0.8804950714111328,117.61474609375,-8.72802734375,-9.27734375
2.1403260231018066,-1266257544,1,0.0907023549079895,0.036355648189783096,0.8365497589111328,134.09423828125,-5.55419921875,-4.94384765625
2.153019905090332,-1266257525,0,-0.4405640661716461,-0.005191367119550705,0.7570173740386963,15.869140625,49.49951171875,59.87548828125
2.1603760719299316,-1266257525,1,0.042606648057699203,0.1281525194644928,0.8233661651611328,134.46044921875,5.0048828125,0.9765625
2.1927080154418945,-1266257506,0,-0.4737671911716461,-0.029849570244550705,0.7665388584136963,9.58251953125,32.470703125,72.57080078125
2.192716121673584,-1266257487,0,-0.4674195349216461,0.001888711005449295,0.7597029209136963,6.16455078125,36.376953125,73.79150390625
2.1959621906280518,-1266257506,1,0.042850788682699203,0.1808868944644928,0.8448505401611328,119.9951171875,3.35693359375,9.58251953125
2.195970058441162,-1266257487,1,0.022342976182699203,0.2570587694644928,0.8636493682861328,94.29931640625,-0.18310546875,7.568359375
2.2131659984588623,-1266257468,0,-0.5753297209739685,0.083919957280159,0.7147810459136963,-17.578125,46.32568359375,66.162109375
2.220837116241455,-1266257468,1,0.018192585557699203,0.2580353319644928,0.8492450714111328,63.232421875,-10.009765625,2.3193359375
2.2209222316741943,-1266257449,1,0.0643351674079895,0.2419220507144928,0.8219013214111328,34.36279296875,-19.34814453125,-8.30078125
2.245744228363037,-1266257449,0,-0.5648316740989685,0.004818398505449295,0.7067244052886963,-33.75244140625,41.32080078125,50.1708984375
2.245751142501831,-1266257430,0,-0.5272340178489685,0.035824257880449295,0.7250349521636963,-37.2314453125,28.9306640625,43.0908203125
2.2502388954162598,-1266257430,1,0.0999796986579895,0.1801544725894928,0.8084735870361328,20.1416015625,-24.5361328125,-12.26806640625
2.272921085357666,-1266257394,0,-0.5704469084739685,0.172543004155159,0.8427107334136963,-59.9365234375,-18.1884765625,72.998046875
2.2940008640289307,-1266257395,1,0.1261027455329895,0.2287384569644928,0.7913837432861328,25.390625,-32.04345703125,-12.75634765625
2.3028759956359863,-1266257375,0,-0.6239137053489685,0.186703160405159,0.8634626865386963,-70.73974609375,10.68115234375,62.01171875
2.310364007949829,-1266257375,1,0.1483195424079895,0.2934357225894928,0.7938251495361328,24.658203125,-33.38623046875,-4.5166015625
2.3420779705047607,-1266257356,0,-0.7130250334739685,0.135189488530159,0.8275740146636963,-74.40185546875,26.91650390625,41.93115234375
2.342085123062134,-1266257337,0,-0.6319703459739685,0.132259801030159,0.8588240146636963,-81.0546875,14.95361328125,40.58837890625
2.3450770378112793,-1266257356,1,0.2767375111579895,0.3578888475894928,0.7491474151611328,15.5029296875,-36.62109375,-1.8310546875
2.3450839519500732,-1266257337,1,0.3104289174079895,0.3002716600894928,0.7742938995361328,-5.126953125,-1.28173828125,1.3427734375
2.362788200378418,-1266257318,0,-0.6624879240989685,0.209896519780159,0.8514997959136963,-84.228515625,9.765625,48.33984375
2.370461940765381,-1266257318,1,0.3035929799079895,0.3412872850894928,0.8416767120361328,-18.310546875,13.73291015625,11.23046875
2.3705689907073975,-1266257299,1,0.1951945424079895,0.4269806444644928,0.9390888214111328,-42.17529296875,27.587890625,9.1552734375
2.3944180011749268,-1266257299,0,-0.6107301115989685,0.232845738530159,0.8915388584136963,-76.66015625,3.60107421875,48.9501953125
2.3944251537323,-1266257280,0,-0.7179078459739685,0.223080113530159,0.8688337802886963,-58.04443359375,44.49462890625,13.671875
2.400175094604492,-1266257280,1,0.1837199330329895,0.4098908007144928,0.9527606964111328,-59.38720703125,22.76611328125,10.8642578125
2.4229190349578857,-1266257261,0,-0.6800660490989685,0.200619176030159,0.9186384677886963,-57.80029296875,41.80908203125,-7.01904296875
2.4230258464813232,-1266257242,0,-0.7406129240989685,0.158138707280159,0.8861677646636963,-62.3779296875,42.724609375,-24.84130859375
2.440330982208252,-1266257261,1,0.1927531361579895,0.4145294725894928,0.9571552276611328,-56.7626953125,22.94921875,18.12744140625
2.440337896347046,-1266257242,1,0.1221964955329895,0.3075958788394928,0.9193134307861328,-46.20361328125,20.56884765625,20.751953125
2.4528911113739014,-1266257223,0,-0.6905640959739685,0.152035191655159,0.8483259677886963,-66.40625,28.99169921875,-20.32470703125
2.460541009902954,-1266257223,1,0.1429484486579895,0.2917267382144928,0.9227313995361328,-19.287109375,11.8408203125,16.41845703125
2.491931915283203,-1266257204,0,-0.7025269865989685,0.116634801030159,0.8085310459136963,-54.99267578125,35.2783203125,-5.859375
2.491939067840576,-1266257185,0,-0.7130250334739685,0.077328160405159,0.7794783115386963,-34.24072265625,34.72900390625,11.71875
2.4951841831207275,-1266257204,1,0.1739543080329895,0.3261505663394928,0.9542255401611328,13.48876953125,11.71875,7.8125
2.4951910972595215,-1266257185,1,0.1766398549079895,0.3823029100894928,0.9630146026611328,16.6015625,15.93017578125,-5.55419921875
2.513139009475708,-1266257166,0,-0.7467164397239685,0.033138711005449295,0.7716658115386963,-16.17431640625,29.72412109375,21.728515625
2.5205349922180176,-1266257166,1,0.1639445424079895,0.3998810350894928,0.9193134307861328,12.939453125,11.53564453125,-8.97216796875
2.547175884246826,-1266257130,0,-0.7796754240989685,0.101986363530159,0.7767927646636963,-19.04296875,16.29638671875,8.23974609375
2.5501770973205566,-1266257130,1,0.1898234486579895,0.4762970507144928,0.8795185089111328,-8.056640625,20.5078125,6.34765625
2.5730600357055664,-1266257111,0,-0.7962769865989685,0.083675816655159,0.7597029209136963,-22.3388671875,10.19287109375,-8.60595703125
2.5731730461120605,-1266257092,0,-0.7818726897239685,0.068294957280159,0.7799665927886963,-23.92578125,8.1787109375,-16.17431640625
2.5918352603912354,-1266257111,1,0.1236613392829895,0.4101349413394928,0.8868427276611328,-20.44677734375,34.11865234375,4.150390625
2.5918850898742676,-1266257092,1,0.1204875111579895,0.3732697069644928,0.8900165557861328,-23.25439453125,34.24072265625,-19.4091796875
2.6028759479522705,-1266257073,0,-0.7860230803489685,0.061947304755449295,0.7662947177886963,-25.08544921875,7.8125,-11.16943359375
2.6105751991271973,-1266257073,1,0.1055949330329895,0.3534943163394928,0.8861103057861328,-18.24951171875,29.052734375,-29.47998046875
2.6425750255584717,-1266257054,0,-0.8289918303489685,0.096615269780159,0.7809431552886963,-21.484375,-0.732421875,-1.89208984375
2.6425819396972656,-1266257035,0,-0.8180055022239685,0.092953160405159,0.7855818271636963,-15.7470703125,-2.62451171875,1.46484375
2.646643877029419,-1266257054,1,0.0941203236579895,0.3803497850894928,0.8946552276611328,-6.40869140625,29.052734375,-34.97314453125
2.6466519832611084,-1266257035,1,0.042118366807699203,0.4028107225894928,0.8704853057861328,-0.91552734375,26.611328125,-27.40478515625
2.695160150527954,-1266257016,0,-0.8599976897239685,0.100521519780159,0.7572615146636963,-10.986328125,-6.28662109375,-0.06103515625
2.6951680183410645,-1266256997,0,-0.8704957365989685,0.110775426030159,0.7528669834136963,-12.26806640625,-11.23046875,-3.7841796875
2.695720911026001,-1266256978,0,-0.8831910490989685,0.130062535405159,0.7648298740386963,-12.3291015625,-9.46044921875,-4.45556640625
2.7007181644439697,-1266257016,1,0.007938679307699203,0.4750763475894928,0.9029560089111328,-1.64794921875,29.96826171875,-33.38623046875
2.700878143310547,-1266256997,1,-0.020381633192300797,0.4828888475894928,0.9207782745361328,-11.8408203125,28.6865234375,-35.888671875
2.701969861984253,-1266256978,1,-0.0672566294670105,0.4548126757144928,0.9442157745361328,-20.8740234375,22.27783203125,-39.306640625
2.72291898727417,-1266256959,0,-0.8912476897239685,0.127865269780159,0.7538435459136963,-10.6201171875,-10.8642578125,-8.85009765625
2.741669178009033,-1266256959,1,-0.0977742075920105,0.4587189257144928,0.9486103057861328,-22.39990234375,11.77978515625,-42.90771484375
2.7416770458221436,-1266256940,1,-0.1529499888420105,0.4548126757144928,0.9222431182861328,-26.0009765625,3.84521484375,-47.05810546875
2.755660057067871,-1266256940,0,-0.9244508147239685,0.116878941655159,0.7384626865386963,-7.9345703125,-10.92529296875,-11.65771484375
2.755669116973877,-1266256921,0,-0.9205445647239685,0.115902379155159,0.7145369052886963,-9.58251953125,-14.5263671875,-11.23046875
2.760343074798584,-1266256921,1,-0.1834675669670105,0.4670197069644928,0.9090595245361328,-23.01025390625,-10.31494140625,-51.025390625
2.792556047439575,-1266256902,0,-0.9229859709739685,0.127865269780159,0.6869490146636963,-16.17431640625,-17.88330078125,-4.150390625
2.7958030700683594,-1266256902,1,-0.1920124888420105,0.4484650194644928,0.8909931182861328,-23.86474609375,-28.38134765625,-54.13818359375
2.813155174255371,-1266256866,0,-0.9083375334739685,0.171322301030159,0.6703474521636963,-23.92578125,-25.5126953125,2.86865234375
2.820497989654541,-1266256867,1,-0.0628620982170105,0.4379669725894928,0.7794208526611328,-28.564453125,-38.330078125,-65.36865234375
2.845194101333618,-1266256847,0,-0.9212769865989685,0.191830113530159,0.6390974521636963,-29.296875,-24.10888671875,-1.8310546875
2.8456671237945557,-1266256828,0,-0.8629273772239685,0.167416051030159,0.6093122959136963,-32.04345703125,-25.390625,-3.47900390625
2.850364923477173,-1266256847,1,-0.008418742567300797,0.4843536913394928,0.8109149932861328,-30.82275390625,-17.15087890625,-62.8662109375
2.850472927093506,-1266256828,1,-0.1595417857170105,0.4191681444644928,0.8043231964111328,-41.3818359375,-11.5966796875,-52.18505859375
2.8727970123291016,-1266256809,0,-0.8199586272239685,0.159359410405159,0.5660994052886963,-40.283203125,-32.71484375,2.38037109375
2.890300989151001,-1266256809,1,-0.1639363169670105,0.3632599413394928,0.8272724151611328,-54.50439453125,-25.5126953125,-50.47607421875
2.8903110027313232,-1266256790,1,-0.1097370982170105,0.3779083788394928,0.8177509307861328,-64.94140625,-26.79443359375,-64.3310546875
2.9093282222747803,-1266256771,1,-0.0841023325920105,0.4579865038394928,0.8172626495361328,-72.93701171875,-27.40478515625,-67.2607421875
2.9405691623687744,-1266256790,0,-0.7769898772239685,0.188168004155159,0.5321638584136963,-47.36328125,-48.095703125,17.15087890625
2.9405791759490967,-1266256771,0,-0.7860230803489685,0.239681676030159,0.5389997959136963,-51.33056640625,-51.513671875,16.41845703125
2.940584897994995,-1266256752,0,-0.7840699553489685,0.2628750503063202,0.5504744052886963,-53.28369140625,-45.47119140625,5.18798828125
2.9405910968780518,-1266256733,0,-0.7098512053489685,0.237240269780159,0.5363142490386963,-53.52783203125,-29.296875,-6.103515625
2.943024158477783,-1266256752,1,0.033085163682699203,0.4748322069644928,0.8658466339111328,-72.44873046875,-20.93505859375,-49.01123046875
2.943031072616577,-1266256733,1,-0.0853230357170105,0.3393341600894928,0.8265399932861328,-60.546875,-7.568359375,-33.203125
2.9627749919891357,-1266256714,0,-0.6480836272239685,0.227718785405159,0.4691755473613739,-60.85205078125,-29.4189453125,-7.75146484375
2.9723031520843506,-1266256714,1,-0.1573445200920105,0.2526642382144928,0.8072528839111328,-59.9365234375,-17.02880859375,-27.4658203125
2.9961750507354736,-1266256695,0,-0.6307496428489685,0.249447301030159,0.4306013286113739,-64.208984375,-41.68701171875,-1.5869140625
2.996183156967163,-1266256676,0,-0.6402711272239685,0.2662930190563202,0.4159528911113739,-65.91796875,-45.83740234375,-6.9580078125
3.0006511211395264,-1266256695,1,-0.1529499888420105,0.2480255663394928,0.8172626495361328,-58.837890625,-33.5693359375,-33.8134765625
3.00073504447937,-1266256676,1,-0.021846476942300797,0.3259064257144928,0.8197040557861328,-65.73486328125,-35.0341796875,-30.76171875
3.0229601860046387,-1266256657,0,-0.6688355803489685,0.247738316655159,0.3959333598613739,-62.01171875,-42.29736328125,-21.728515625
3.040576934814453,-1266256657,1,0.0863078236579895,0.3285919725894928,0.8360614776611328,-70.4345703125,-11.29150390625,-25.2685546875
3.0405850410461426,-1266256638,1,0.034061726182699203,0.2255646288394928,0.7962665557861328,-66.2841796875,13.36669921875,-27.52685546875
3.0529630184173584,-1266256638,0,-0.6475953459739685,0.221859410405159,0.3771345317363739,-60.302734375,-38.0859375,-30.82275390625
3.0916690826416016,-1266256602,0,-0.5357789397239685,0.2753262221813202,0.4235212504863739,-81.6650390625,-57.67822265625,-18.61572265625
3.09256911277771,-1266256583,0,-0.5421265959739685,0.3178066909313202,0.5328962802886963,-92.83447265625,-78.61328125,-11.962890625
3.095649003982544,-1266256602,1,-0.0731160044670105,0.2321564257144928,0.7076435089111328,-41.32080078125,-3.96728515625,-53.8330078125
3.0956549644470215,-1266256583,1,-0.010127726942300797,0.3854767382144928,0.7532978057861328,-42.6025390625,-16.7236328125,-48.2177734375
3.113166093826294,-1266256564,0,-0.5570191740989685,0.3556484878063202,0.6129744052886963,-93.56689453125,-78.67431640625,-24.71923828125
3.120570182800293,-1266256564,1,0.1915324330329895,0.4206329882144928,0.6793231964111328,-58.10546875,-12.451171875,-27.64892578125
3.1450328826904297,-1266256545,0,-0.5719117522239685,0.3842129409313202,0.6901228427886963,-84.9609375,-76.416015625,-49.25537109375
3.1454920768737793,-1266256526,0,-0.5294312834739685,0.3431973159313202,0.7362654209136963,-74.8291015625,-88.9892578125,-58.28857421875
3.1505038738250732,-1266256545,1,0.2052043080329895,0.3283478319644928,0.6546649932861328,-60.546875,20.93505859375,-28.62548828125
3.1505720615386963,-1266256526,1,0.0999796986579895,0.2511993944644928,0.6881122589111328,-60.302734375,46.38671875,-49.86572265625
3.1913678646087646,-1266256507,1,-0.049922648817300797,0.2853790819644928,0.8585224151611328,-51.69677734375,64.14794921875,-56.2744140625
3.2033228874206543,-1266256507,0,-0.5445680022239685,0.3173184096813202,0.9699079990386963,-74.03564453125,-111.083984375,-36.19384765625
3.2034921646118164,-1266256488,0,-0.5997437834739685,0.3947109878063202,1.0492537021636963,-59.08203125,-96.13037109375,-25.20751953125
3.2035069465637207,-1266256469,0,-0.5748414397239685,0.3217129409313202,1.1500837802886963,-42.3583984375,-76.904296875,-49.4384765625
3.210393190383911,-1266256488,1,-0.0635945200920105,0.3644806444644928,0.9381122589111328,-42.3583984375,53.28369140625,-28.74755859375
3.2104649543762207,-1266256469,1,-0.027217570692300797,0.2551056444644928,0.9339618682861328,-60.05859375,71.22802734375,-7.62939453125
3.244568109512329,-1266256450,0,-0.4671753942966461,0.232113316655159,1.2731306552886963,-33.99658203125,-93.44482421875,-60.24169921875
3.2445759773254395,-1266256431,0,-0.5011109709739685,0.107845738530159,1.6264021396636963,-6.40869140625,-99.4873046875,-51.7578125
3.2476439476013184,-1266256450,1,-0.1187703013420105,-0.009542789310216904,1.0257587432861328,-72.44873046875,114.74609375,-32.8369140625
3.2476511001586914,-1266256431,1,-0.2972370982170105,-0.041036929935216904,1.3143329620361328,-52.91748046875,145.01953125,-52.490234375
3.262923002243042,-1266256412,0,-0.6414918303489685,-0.156558558344841,1.8641951084136963,46.9970703125,-97.16796875,-73.42529296875
3.270212173461914,-1266256412,1,-0.3499714732170105,-0.0793670117855072,1.6314716339111328,-47.9736328125,173.9501953125,-36.376953125
3.296152114868164,-1266256393,0,-0.6451539397239685,-0.4148593246936798,2.1559431552886963,76.171875,-103.57666015625,-93.8720703125
3.2961599826812744,-1266256374,0,-0.5433472990989685,-0.3967929184436798,2.4037458896636963,72.75390625,-112.48779296875,-37.4755859375
3.3003761768341064,-1266256393,1,-0.6090046763420105,-0.1120818555355072,1.9573993682861328,-20.01953125,210.205078125,-57.18994140625
3.300481081008911,-1266256374,1,-0.8521687388420105,-0.057150211185216904,2.167360305786133,17.27294921875,216.85791015625,-90.88134765625
3.3398561477661133,-1266256338,1,-0.8514363169670105,-0.0808318555355072,2.504518508911133,64.75830078125,179.13818359375,-35.400390625
3.3531041145324707,-1266256338,0,-0.5235719084739685,-0.4583163559436798,2.8275740146636963,186.21826171875,-120.7275390625,-13.0615234375
3.353173017501831,-1266256319,0,-0.5592164397239685,-0.6526523232460022,2.9620954990386963,225.40283203125,-123.84033203125,-25.08544921875
3.3620080947875977,-1266256319,1,-0.9935261607170105,-0.1294158399105072,2.703737258911133,81.54296875,138.427734375,-37.65869140625
3.3922171592712402,-1266256300,0,-0.6134156584739685,-0.6204257607460022,2.9332869052886963,203.125,-67.3828125,22.88818359375
3.3922250270843506,-1266256281,0,-0.4449585974216461,-0.5095859169960022,2.8322126865386963,187.01171875,16.357421875,52.67333984375
3.395421028137207,-1266256300,1,-1.1822469234466553,-0.059835758060216904,2.566286087036133,132.32421875,95.76416015625,-24.59716796875
3.39542818069458,-1266256281,1,-1.3633992671966553,-0.1284392774105072,2.243288040161133,177.30712890625,88.19580078125,28.80859375
3.4132449626922607,-1266256262,0,-0.2105836123228073,-0.4290194809436798,2.7416365146636963,185.9130859375,75.1953125,40.95458984375
3.4204840660095215,-1266256262,1,-1.5130574703216553,-0.2339080274105072,2.056520462036133,192.56591796875,88.56201171875,80.810546875
3.44450306892395,-1266256243,0,-0.07362072169780731,-0.4656405746936798,2.6928083896636963,196.6552734375,90.2099609375,28.62548828125
3.444512128829956,-1266256224,0,-0.018933217972517014,-0.4834628403186798,2.4955427646636963,195.86181640625,87.21923828125,39.4287109375
3.4504268169403076,-1266256243,1,-1.6976277828216553,-0.3891814649105072,2.000368118286133,199.5849609375,96.0693359375,118.0419921875
3.450484037399292,-1266256224,1,-1.7803914546966553,-0.3403533399105072,1.8477802276611328,210.8154296875,106.87255859375,126.220703125
3.472825050354004,-1266256205,0,0.019641000777482986,-0.4871249496936798,2.2806990146636963,199.70703125,79.40673828125,68.42041015625
3.491219997406006,-1266256205,1,-1.8187215328216553,-0.3420623242855072,1.6795673370361328,219.3603515625,117.85888671875,171.2646484375
3.5030479431152344,-1266256186,0,0.046008188277482986,-0.4107089340686798,2.1412947177886963,216.796875,64.75830078125,95.88623046875
3.50308895111084,-1266256167,0,0.09288318455219269,-0.3906894028186798,2.1195662021636963,241.455078125,49.31640625,113.28125
3.5107150077819824,-1266256186,1,-1.8817098140716553,-0.4140838086605072,1.6671161651611328,219.66552734375,126.3427734375,233.3984375
3.5107970237731934,-1266256167,1,-1.8680379390716553,-0.4885466992855072,1.6446552276611328,215.6982421875,127.38037109375,247.55859375
3.543527841567993,-1266256148,0,0.1851683408021927,-0.3643222153186798,2.0365583896636963,264.09912109375,34.24072265625,118.46923828125
3.546720027923584,-1266256148,1,-1.8240926265716553,-0.5007537007331848,1.4642353057861328,229.736328125,128.47900390625,242.12646484375
3.546726942062378,-1266256129,1,-1.7967488765716553,-0.4492400586605072,1.1759052276611328,240.6005859375,133.11767578125,265.869140625
3.5630249977111816,-1266256129,0,0.2017699033021927,-0.3181796371936798,1.8507673740386963,276.85546875,40.95458984375,91.4306640625
3.563262939453125,-1266256110,0,0.1815062314271927,-0.3347811996936798,1.5751326084136963,290.52734375,52.6123046875,40.8935546875
3.570235013961792,-1266256110,1,-1.6246297359466553,-0.5798552632331848,0.9425067901611328,234.55810546875,142.9443359375,302.55126953125
3.5973880290985107,-1266256074,0,0.1536742001771927,-0.3941073715686798,1.3002302646636963,296.142578125,48.9501953125,-16.4794921875
3.600275993347168,-1266256074,1,-1.2371785640716553,-0.7219451069831848,0.7240009307861328,209.77783203125,180.35888671875,279.541015625
3.622828960418701,-1266256055,0,0.11607654392719269,-0.4317050278186798,1.1027204990386963,287.04833984375,48.15673828125,-15.7470703125
3.6409459114074707,-1266256055,1,-1.1304891109466553,-0.6428435444831848,0.6627216339111328,206.72607421875,213.92822265625,259.27734375
3.652888059616089,-1266256036,0,0.10435779392719269,-0.3960604965686798,0.8993513584136963,279.541015625,40.6494140625,-3.41796875
3.6530208587646484,-1266256017,0,0.1390257626771927,-0.3748202621936798,0.6517927646636963,274.7802734375,44.43359375,7.32421875
3.6603620052337646,-1266256036,1,-0.9735066294670105,-0.6321013569831848,0.6505146026611328,190.5517578125,237.4267578125,273.49853515625
3.660475969314575,-1266256017,1,-0.7266804575920105,-0.7370818257331848,0.6212177276611328,148.92578125,222.2900390625,283.99658203125
3.6930439472198486,-1266255998,0,0.1568480283021927,-0.4168124496936798,0.4601423442363739,272.88818359375,40.58837890625,10.55908203125
3.6960670948028564,-1266255998,1,-0.4605671763420105,-0.7773650288581848,0.5526142120361328,104.67529296875,206.97021484375,264.16015625
3.696073055267334,-1266255979,1,-0.2279011607170105,-0.8354704976081848,0.4844989776611328,93.75,209.5947265625,236.9384765625
3.744676113128662,-1266255979,0,0.1795531064271927,-0.4224276840686798,0.2614118754863739,248.779296875,18.98193359375,25.45166015625
3.7446930408477783,-1266255960,0,0.1539183408021927,-0.3545565903186798,0.1002790704369545,220.21484375,-26.4892578125,48.88916015625
3.750619888305664,-1266255960,1,0.0638468861579895,-0.8476775288581848,0.4429950714111328,107.23876953125,234.06982421875,190.4296875
3.7507851123809814,-1266255941,1,0.2974894642829895,-0.8935759663581848,0.3980731964111328,125.0,257.2021484375,127.74658203125
3.7508420944213867,-1266255922,1,0.4642375111579895,-0.8051970601081848,0.3585224151611328,133.72802734375,271.05712890625,63.5986328125
3.772951126098633,-1266255941,0,0.1461058408021927,-0.3228183090686798,-0.0703752264380455,202.33154296875,-67.9931640625,75.01220703125
3.7729721069335938,-1266255922,0,0.1378050595521927,-0.2886386215686798,-0.1287248432636261,194.03076171875,-90.8203125,93.6279296875
3.7741949558258057,-1266255903,0,0.1465941220521927,-0.2507968246936798,-0.2366349995136261,185.1806640625,-110.77880859375,108.154296875
3.7902889251708984,-1266255903,1,0.5108683705329895,-0.6321013569831848,0.2908954620361328,141.78466796875,275.20751953125,36.0107421875
3.803063154220581,-1266255884,0,0.2117796689271927,-0.167300745844841,-0.3030412495136261,176.025390625,-143.00537109375,101.13525390625
3.8031580448150635,-1266255865,0,0.1741820126771927,-0.096011683344841,-0.3462541401386261,169.00634765625,-208.0078125,68.29833984375
3.8103511333465576,-1266255884,1,0.4657023549079895,-0.4148162305355072,0.1849384307861328,139.70947265625,281.005859375,19.1650390625
3.8104560375213623,-1266255865,1,0.6114543080329895,-0.3081267774105072,0.06384468823671341,134.33837890625,294.86083984375,-19.775390625
3.841701030731201,-1266255846,0,0.06260974705219269,-0.102603480219841,-0.3364885151386261,156.8603515625,-251.5869140625,54.931640625
3.8462910652160645,-1266255846,1,0.6334269642829895,-0.2292693555355072,0.06140328198671341,133.72802734375,311.8896484375,-80.56640625
3.8628668785095215,-1266255810,0,-0.1756715029478073,-0.143130823969841,-0.2522599995136261,129.8828125,-335.693359375,129.39453125
3.870208978652954,-1266255810,1,0.5919230580329895,0.0881134569644928,0.3089618682861328,83.43505859375,299.86572265625,-140.44189453125
3.8986880779266357,-1266255791,0,-0.3563355505466461,-0.160220667719841,-0.1607072651386261,130.0048828125,-418.0908203125,226.806640625
3.8986949920654297,-1266255772,0,-0.4234742224216461,-0.066470667719841,-0.010072492063045502,123.046875,-464.53857421875,306.884765625
3.9003520011901855,-1266255791,1,0.5184367299079895,0.2138458788394928,0.4400653839111328,73.486328125,301.26953125,-120.30029296875
3.9004931449890137,-1266255772,1,0.4747355580329895,0.3012482225894928,0.4788837432861328,64.453125,318.115234375,-85.9375
3.9238741397857666,-1266255753,0,-0.4188355505466461,0.071224644780159,0.1151716485619545,88.8671875,-455.078125,322.93701171875
3.9428470134735107,-1266255753,1,0.3958781361579895,0.4321075975894928,0.5631122589111328,50.78125,324.76806640625,-86.3037109375
3.9530019760131836,-1266255734,0,-0.1817750185728073,0.191830113530159,0.5197126865386963,39.306640625,-388.61083984375,248.53515625
3.9530749320983887,-1266255715,0,0.10948474705219269,0.4266934096813202,0.6903669834136963,25.7568359375,-351.07421875,102.05078125
3.9603939056396484,-1266255734,1,0.1075480580329895,0.4843536913394928,0.6549091339111328,2.01416015625,315.73486328125,-71.1669921875
3.960469961166382,-1266255715,1,0.0653117299079895,0.4533478319644928,0.6744403839111328,-49.31640625,295.166015625,-41.93115234375
3.991580009460449,-1266255696,0,0.1375609189271927,0.5045742392539978,0.5514509677886963,26.55029296875,-348.20556640625,47.18017578125
3.99465012550354,-1266255696,1,0.051639851182699203,0.2902618944644928,0.7686786651611328,-72.998046875,279.296875,-18.4326171875
4.01316499710083,-1266255677,0,0.3301878869533539,0.4013027846813202,0.6205427646636963,-9.1552734375,-335.51025390625,41.259765625
4.013309001922607,-1266255658,0,0.5086546540260315,0.176693394780159,0.8720076084136963,-81.35986328125,-339.17236328125,18.73779296875
4.020848035812378,-1266255677,1,-0.020137492567300797,0.2358185350894928,0.7794208526611328,-60.85205078125,286.92626953125,-25.146484375
4.020934820175171,-1266255658,1,-0.1505085825920105,0.1393829882144928,0.6600360870361328,-51.57470703125,286.1328125,-23.13232421875
4.044918060302734,-1266255639,0,0.5743284821510315,-0.017886679619550705,1.0453474521636963,-107.84912109375,-384.27734375,-21.728515625
4.0533928871154785,-1266255639,1,-0.3336140513420105,0.018045101314783096,0.5501728057861328,-58.04443359375,284.48486328125,-26.2451171875
4.053400993347168,-1266255620,1,-0.4754597544670105,-0.052755679935216904,0.5972919464111328,-90.6982421875,304.6875,-48.2177734375
4.072983980178833,-1266255620,0,0.5901976227760315,-0.2632479965686798,1.3068220615386963,-126.77001953125,-427.3681640625,-46.630859375
4.073110103607178,-1266255601,0,0.5840941071510315,-0.190249964594841,1.4208357334136963,-187.80517578125,-457.1533203125,-16.4794921875
4.091526985168457,-1266255601,1,-0.5013386607170105,-0.028341617435216904,0.7999286651611328,-156.6162109375,320.49560546875,-100.89111328125
4.102903127670288,-1266255582,0,0.8023558259010315,-0.029849570244550705,1.7557966709136963,-281.73828125,-464.29443359375,77.2705078125
4.1106860637664795,-1266255582,1,-0.3304402232170105,0.1386505663394928,1.0189228057861328,-233.94775390625,282.16552734375,-213.7451171875
4.141493082046509,-1266255546,0,1.1705199480056763,-0.4053378403186798,2.2208845615386963,-338.8671875,-514.46533203125,140.380859375
4.146032810211182,-1266255546,1,-0.4239460825920105,0.2465607225894928,1.7274188995361328,-464.35546875,154.23583984375,-444.64111328125
4.169595003128052,-1266255527,1,-0.4539753794670105,0.2775665819644928,2.505983352661133,-570.9228515625,127.3193359375,-496.15478515625
4.170447111129761,-1266255508,1,-0.6654011607170105,0.4443146288394928,3.112916946411133,-504.21142578125,169.189453125,-535.46142578125
4.197893857955933,-1266255527,0,0.9651976227760315,-0.7298007607460022,2.3273298740386963,-426.20849609375,-537.90283203125,169.98291015625
4.197901010513306,-1266255508,0,1.1370726823806763,-1.1270174980163574,2.8290388584136963,-613.83056640625,-513.671875,240.8447265625
4.197906017303467,-1266255489,0,1.5662719011306763,-1.5830721855163574,3.5905134677886963,-772.88818359375,-507.87353515625,311.46240234375
4.197911024093628,-1266255470,0,2.1912717819213867,-2.0833163261413574,4.425474166870117,-868.34716796875,-463.07373046875,397.216796875
4.200313091278076,-1266255489,1,-2.5723836421966553,0.6913849711418152,3.704713821411133,-307.4951171875,205.9326171875,-508.60595703125
4.200357913970947,-1266255470,1,-2.5948445796966553,1.4648224115371704,3.132204055786133,-100.341796875,6.77490234375,-485.65673828125
4.222974061965942,-1266255451,0,2.5118284225463867,-2.5449862480163574,4.179624557495117,-847.47314453125,-498.291015625,490.478515625
4.242587089538574,-1266255451,1,-2.2122762203216553,1.6213165521621704,3.117067337036133,-59.87548828125,9.70458984375,-429.931640625
4.25307297706604,-1266255432,0,2.7652463912963867,-2.9326815605163574,4.069517135620117,-775.57373046875,-656.92138671875,633.544921875
4.253113031387329,-1266255413,0,2.8721799850463867,-2.7647128105163574,3.8681013584136963,-587.0361328125,-833.92333984375,833.6181640625
4.260298013687134,-1266255432,1,-2.2300984859466553,1.5461212396621704,3.228639602661133,-46.875,-30.029296875,-369.873046875
4.260399103164673,-1266255413,1,-2.2879598140716553,1.5268341302871704,3.065065383911133,-29.9072265625,-156.31103515625,-326.59912109375
4.290853977203369,-1266255394,0,2.4664182662963867,-2.4944491386413574,2.9369490146636963,-352.96630859375,-822.81494140625,909.60693359375
4.29439902305603,-1266255394,1,-2.7767293453216553,1.3136993646621704,2.600221633911133,9.09423828125,-210.63232421875,-273.37646484375
4.3137311935424805,-1266255375,0,2.5936155319213867,-2.7266268730163574,2.6014997959136963,-181.396484375,-661.9873046875,886.65771484375
4.3138251304626465,-1266255356,0,2.6441526412963867,-2.1030917167663574,2.2748396396636963,-138.916015625,-590.576171875,797.05810546875
4.320298910140991,-1266255375,1,-2.6314656734466553,0.9098908305168152,1.8074970245361328,88.31787109375,-173.4619140625,-158.99658203125
4.320425033569336,-1266255356,1,-2.3033406734466553,0.7228791117668152,1.2650165557861328,169.12841796875,-98.388671875,-126.5869140625
4.344931125640869,-1266255337,0,2.0430784225463867,-0.3521151840686798,2.0077497959136963,-6.8359375,-507.75146484375,681.09130859375
4.350441932678223,-1266255337,1,-2.0657918453216553,0.9733673930168152,0.4998798370361328,190.12451171875,-107.11669921875,-98.93798828125
4.350502014160156,-1266255318,1,-1.9009969234466553,0.8378693461418152,1.0799579620361328,365.3564453125,-114.19677734375,-45.166015625
4.372897148132324,-1266255318,0,1.5047484636306763,-1.5532870292663574,1.5741560459136963,94.23828125,-345.15380859375,682.12890625
4.402076959609985,-1266255282,0,0.6485472321510315,-1.3191561698913574,1.8629744052886963,161.62109375,114.6240234375,360.04638671875
4.403000116348267,-1266255263,0,0.3350706994533539,-2.1387362480163574,1.4440290927886963,196.8994140625,156.67724609375,360.107421875
4.410364866256714,-1266255283,1,-2.0404012203216553,0.2292267382144928,-0.5679912567138672,346.13037109375,94.29931640625,56.0302734375
4.410516023635864,-1266255263,1,-1.5743367671966553,-0.047872867435216904,-1.0572490692138672,232.60498046875,128.35693359375,83.0078125
4.442683935165405,-1266255244,0,0.7498655915260315,-1.9644198417663574,0.1237165704369545,100.28076171875,92.10205078125,415.283203125
4.4459068775177,-1266255244,1,-1.0223348140716553,-0.7522185444831848,-1.0391826629638672,102.47802734375,134.033203125,35.15625
4.46308708190918,-1266255225,0,0.7449827790260315,-1.1436190605163574,0.2850935161113739,2.9296875,-29.4189453125,299.6826171875
4.463149070739746,-1266255206,0,0.4984007775783539,-0.132632777094841,1.0399763584136963,42.54150390625,-42.17529296875,120.54443359375
4.470437049865723,-1266255225,1,-0.8619343638420105,-0.6814177632331848,-0.2689189910888672,64.02587890625,113.83056640625,33.3251953125
4.47051215171814,-1266255206,1,-1.0008504390716553,-0.7531951069831848,-0.2379131317138672,175.47607421875,209.04541015625,61.46240234375
4.496289014816284,-1266255187,0,0.4835081994533539,-1.6179842948913574,-0.0386369451880455,40.58837890625,-114.07470703125,88.0126953125
4.500460147857666,-1266255187,1,-0.4239460825920105,-1.1523650884628296,-0.4466533660888672,255.9814453125,341.6748046875,17.7001953125
4.5005409717559814,-1266255168,1,-0.6107136607170105,-0.7810271382331848,-0.7203350067138672,262.20703125,404.96826171875,8.4228515625
4.523056983947754,-1266255168,0,0.1346312314271927,-1.2588534355163574,-0.4358537495136261,15.0146484375,-154.35791015625,217.8955078125
4.523157119750977,-1266255149,0,-0.6283082365989685,-0.3887362778186798,0.2094099223613739,-26.85546875,-108.58154296875,212.2802734375
4.543627977371216,-1266255149,1,0.1109660267829895,-1.2307342290878296,-0.3953838348388672,83.31298828125,375.732421875,48.4619140625
4.553030967712402,-1266255130,0,-0.8639039397239685,-0.7263827919960022,0.2941267192363739,-86.42578125,-124.57275390625,174.13330078125
4.553124189376831,-1266255111,0,-0.6693238615989685,-0.6753574013710022,0.2614118754863739,-125.42724609375,-156.79931640625,198.30322265625
4.56078314781189,-1266255130,1,-0.2027546763420105,-1.5581268072128296,0.1629657745361328,104.06494140625,319.39697265625,-181.2744140625
4.560863971710205,-1266255111,1,-0.7027546763420105,-0.6084197163581848,0.7752704620361328,75.3173828125,305.35888671875,32.470703125
4.592305898666382,-1266255092,0,-0.9046754240989685,-0.080874964594841,0.3007185161113739,-138.5498046875,-127.74658203125,159.48486328125
4.596405982971191,-1266255092,1,-0.8946492075920105,-0.5473845601081848,1.1695575714111328,252.685546875,332.1533203125,58.2275390625
4.615883111953735,-1266255073,0,-0.7266969084739685,-0.3816561996936798,0.2980329692363739,-184.14306640625,-104.00390625,53.89404296875
4.615893125534058,-1266255054,0,-0.7161988615989685,-0.5430331826210022,0.3434431254863739,-200.13427734375,-145.69091796875,51.6357421875
4.6208860874176025,-1266255073,1,-1.3936727046966553,0.0634552538394928,0.6759052276611328,352.96630859375,346.25244140625,140.5029296875
4.621002912521362,-1266255054,1,-0.8367878794670105,-0.7087615132331848,-0.3712139129638672,83.19091796875,359.130859375,133.11767578125
4.649266004562378,-1266255018,1,-0.5855671763420105,-1.7651580572128296,-0.1263408660888672,-182.0068359375,392.9443359375,-47.30224609375
4.6884520053863525,-1266254999,1,-0.6573445200920105,-1.9936736822128296,0.3250751495361328,-152.89306640625,314.51416015625,-221.6796875
4.7029969692230225,-1266255018,0,-0.7083863615989685,-0.4202304184436798,0.4096052348613739,-208.251953125,-155.94482421875,57.43408203125
4.703125953674316,-1266254999,0,-0.6981324553489685,-0.6453281044960022,0.5187361240386963,-227.294921875,-144.53125,37.65869140625
4.7044548988342285,-1266254980,0,-0.5413941740989685,-0.7964511513710022,0.6698591709136963,-248.046875,-157.77587890625,71.4111328125
4.70452880859375,-1266254961,0,-0.8900269865989685,-0.6934238076210022,0.9911482334136963,-282.1044921875,-149.71923828125,82.6416015625
4.7102861404418945,-1266254980,1,-1.1304891109466553,-2.13649582862854,0.7240009307861328,-113.58642578125,224.42626953125,-368.22509765625
4.710373163223267,-1266254961,1,-1.4754598140716553,-2.25734543800354,0.8438739776611328,-89.111328125,139.09912109375,-467.7734375
4.742201089859009,-1266254942,0,0.009631235152482986,-0.6924472451210022,0.8707869052886963,-315.36865234375,-128.662109375,99.365234375
4.745398044586182,-1266254942,1,-1.8963582515716553,-2.38307785987854,0.9796161651611328,-55.419921875,67.2607421875,-583.92333984375
4.796858787536621,-1266254923,0,-0.07996837794780731,-0.8748202919960022,1.2860701084136963,-337.7685546875,-158.50830078125,50.78125
4.796866178512573,-1266254904,0,0.12218005955219269,-0.8357577919960022,1.6156599521636963,-247.314453125,-147.3388671875,20.5078125
4.797287940979004,-1266254885,0,0.8580198884010315,-1.3174471855163574,1.3912947177886963,-302.490234375,-184.26513671875,-114.3798828125
4.80069899559021,-1266254923,1,-2.5941121578216553,-2.44875168800354,1.2064228057861328,-46.630859375,-0.3662109375,-677.55126953125
4.8008129596710205,-1266254904,1,-3.1102254390716553,-2.68361496925354,1.3978290557861328,-58.4716796875,-60.05859375,-715.576171875
4.80082893371582,-1266254885,1,-3.2217977046966553,-2.93507981300354,1.4752216339111328,-24.5361328125,-43.8232421875,-746.337890625
4.801664113998413,-1266254866,1,-3.5850789546966553,-3.30959153175354,1.5081806182861328,144.4091796875,36.19384765625,-819.2138671875
4.82337212562561,-1266254866,0,1.0255004167556763,-1.4246249198913574,1.6256697177886963,-291.8701171875,-289.36767578125,-135.07080078125
4.823459148406982,-1266254847,0,0.8336058259010315,-1.5393710136413574,1.8915388584136963,-226.806640625,-312.92724609375,-143.798828125
4.843536853790283,-1266254847,1,-4.066279888153076,-3.44899582862854,1.3231220245361328,326.72119140625,108.94775390625,-875.54931640625
4.8529112339019775,-1266254828,0,0.4461546838283539,-1.9182772636413574,2.1239607334136963,-158.0810546875,-252.0751953125,-197.93701171875
4.860330104827881,-1266254828,1,-4.677363872528076,-3.32301926612854,1.0643329620361328,427.3681640625,124.57275390625,-885.6201171875
4.86040186882019,-1266254809,1,-5.193233013153076,-3.02321457862854,1.0714130401611328,475.09765625,68.78662109375,-832.763671875
4.89240026473999,-1266254809,0,-0.2655152380466461,-2.1572909355163574,1.9916365146636963,-159.0576171875,-135.19287109375,-222.59521484375
4.892406940460205,-1266254790,0,-1.3648804426193237,-2.5022616386413574,1.2291853427886963,-203.55224609375,-51.69677734375,-211.24267578125
4.896342992782593,-1266254790,1,-5.199092388153076,-3.18703293800354,0.9478778839111328,632.50732421875,47.4853515625,-714.29443359375
4.913167238235474,-1266254754,0,-0.0064820460975170135,-2.8975253105163574,-0.3425920307636261,-237.24365234375,-49.6826171875,-541.32080078125
4.920494079589844,-1266254755,1,-4.571162700653076,-2.94606614112854,-0.3189678192138672,785.09521484375,142.27294921875,-505.2490234375
4.944991111755371,-1266254735,0,-0.8138551115989685,-4.329165935516357,-0.6780412197113037,-166.9921875,-118.46923828125,-655.33447265625
4.950214862823486,-1266254735,1,-3.8336141109466553,-2.51906418800354,-0.2828350067138672,630.0048828125,233.58154296875,-310.24169921875
4.974678039550781,-1266254716,0,-1.2494019269943237,-4.593326091766357,-0.6792619228363037,-229.30908203125,-148.4375,-563.17138671875
4.974732160568237,-1266254697,0,-1.6898316144943237,-4.149234294891357,-0.1753557026386261,-287.53662109375,-133.36181640625,-471.923828125
4.990938186645508,-1266254716,1,-2.3209187984466553,-2.59425950050354,0.07385445386171341,482.60498046875,290.6494140625,-104.55322265625
4.990947008132935,-1266254697,1,-1.6832234859466553,-4.161886692047119,0.5628681182861328,437.1337890625,393.37158203125,-53.52783203125
5.004911184310913,-1266254678,0,-1.3128784894943237,-4.399234294891357,-0.1016252264380455,-296.93603515625,-90.4541015625,-557.55615234375
5.012026071548462,-1266254678,1,0.3770793080329895,-3.04860520362854,0.1910419464111328,509.033203125,310.6689453125,-168.701171875
5.0121259689331055,-1266254659,1,1.5096476078033447,-1.1743377447128296,-0.9879131317138672,406.982421875,181.57958984375,-184.326171875
5.041894912719727,-1266254659,0,-3.2442750930786133,-5.125064373016357,0.7096540927886963,-352.23388671875,-151.06201171875,-468.505859375
5.041905879974365,-1266254640,0,-3.1937379837036133,-4.422915935516357,1.0680525302886963,-360.9619140625,-200.439453125,-108.5205078125
5.044556140899658,-1266254640,1,1.8648722171783447,-0.6733611226081848,-1.5572490692138672,153.564453125,212.46337890625,-190.00244140625
5.063065052032471,-1266254621,0,-2.4115114212036133,-2.3819003105163574,2.4149763584136963,-380.79833984375,-19.59228515625,-122.802734375
5.063133955001831,-1266254602,0,-1.6724976301193237,-1.8648104667663574,2.6264021396636963,-309.50927734375,121.15478515625,-303.7109375
5.07038426399231,-1266254621,1,1.2774698734283447,-0.6943572163581848,0.1644306182861328,143.85986328125,374.20654296875,-256.65283203125
5.070462942123413,-1266254602,1,5.718388080596924,2.35032057762146,4.280397415161133,321.47216796875,298.15673828125,-349.4873046875
5.095700025558472,-1266254583,0,-1.8853882551193237,-3.3272128105163574,0.8375837802886963,-367.1875,37.90283203125,-246.826171875
5.101841926574707,-1266254583,1,-0.5809285044670105,-1.6052459478378296,3.866823196411133,-19.71435546875,-193.54248046875,-227.9052734375
5.124572992324829,-1266254564,0,-1.2816284894943237,-1.8726229667663574,1.5184919834136963,-396.42333984375,-53.955078125,-61.03515625
5.124665021896362,-1266254545,0,-2.4520387649536133,-4.196841716766357,2.4738142490386963,-77.0263671875,-20.32470703125,116.88232421875
5.140580177307129,-1266254564,1,-0.9822956919670105,1.2614532709121704,0.8460712432861328,323.05908203125,-106.5673828125,-249.267578125
5.140587091445923,-1266254545,1,-1.8958699703216553,1.7482696771621704,1.1678485870361328,148.62060546875,-94.970703125,-173.40087890625
5.152814149856567,-1266254526,0,-0.9454469084739685,-1.8064608573913574,2.3671247959136963,-375.244140625,23.3154296875,179.19921875
5.160244941711426,-1266254526,1,-1.0154988765716553,1.0148712396621704,1.8612079620361328,186.8896484375,-135.80322265625,-15.80810546875
5.193727016448975,-1266254490,0,0.5030394196510315,-2.0811190605163574,0.6998884677886963,-451.2939453125,329.2236328125,-368.5302734375
5.19802713394165,-1266254490,1,-0.4996296763420105,0.6591584086418152,0.8709735870361328,186.82861328125,-141.9677734375,164.6728515625
5.213389158248901,-1266254471,0,-0.1781129091978073,-2.1709628105163574,1.0248396396636963,-438.1103515625,172.30224609375,32.77587890625
5.213456153869629,-1266254452,0,0.10435779392719269,-1.6301913261413574,1.8385603427886963,-377.74658203125,171.81396484375,46.81396484375
5.221167087554932,-1266254471,1,-0.7105671763420105,0.5112091898918152,1.1956806182861328,246.337890625,-66.5283203125,204.28466796875
5.221174955368042,-1266254452,1,-0.1024128794670105,-0.0964568555355072,1.3580341339111328,313.90380859375,-142.333984375,122.1923828125
5.246160984039307,-1266254433,0,0.2684203088283539,-1.5586581230163574,1.9523298740386963,-363.83056640625,249.51171875,-41.50390625
5.250779867172241,-1266254433,1,1.0592081546783447,-0.4697478711605072,1.0050067901611328,227.84423828125,-201.72119140625,-25.2685546875
5.272909164428711,-1266254414,0,0.3021117150783539,-1.5357089042663574,1.9025251865386963,-376.52587890625,293.9453125,-84.1064453125
5.272984027862549,-1266254395,0,0.2818480432033539,-1.4658846855163574,1.7745954990386963,-418.64013671875,304.6875,-112.060546875
5.301908016204834,-1266254376,0,0.3121214807033539,-1.5037264823913574,1.4413435459136963,-434.50927734375,238.28125,-100.89111328125
5.310847997665405,-1266254414,1,1.2865030765533447,-1.0500701665878296,0.8228778839111328,176.7578125,-245.2392578125,-65.0634765625
5.311014890670776,-1266254395,1,1.1412394046783447,-1.7209686040878296,0.4156513214111328,105.46875,-214.29443359375,-158.38623046875
5.311028957366943,-1266254376,1,1.2037394046783447,-1.5444549322128296,0.8214130401611328,148.86474609375,-217.22412109375,-386.90185546875
5.311683177947998,-1266254357,1,0.3648722767829895,-1.7475799322128296,0.1505146026611328,67.44384765625,-240.17333984375,-457.45849609375
5.342113971710205,-1266254357,0,0.4554320275783539,-1.5835604667663574,1.4191267490386963,-399.0478515625,111.38916015625,5.615234375
5.342120885848999,-1266254338,0,0.4593382775783539,-1.5376620292663574,1.8263533115386963,-349.9755859375,-41.19873046875,193.54248046875
5.345362901687622,-1266254338,1,-0.1102253794670105,-1.3513396978378296,-0.07165335863828659,-28.38134765625,-197.265625,-372.6806640625
5.362910032272339,-1266254319,0,0.5325804352760315,-1.4834628105163574,2.1815779209136963,-306.2744140625,-133.72802734375,319.39697265625
5.370265007019043,-1266254319,1,-0.5340535044670105,-1.5842498540878296,0.10681343823671341,-42.17529296875,-119.7509765625,-350.03662109375
5.370382070541382,-1266254300,1,-0.7037312388420105,-1.9494842290878296,0.5133075714111328,-68.9697265625,-79.28466796875,-413.39111328125
5.396095037460327,-1266254300,0,0.7051878571510315,-1.4817538261413574,2.6251814365386963,-299.01123046875,-183.65478515625,395.93505859375
5.396101951599121,-1266254281,0,1.0963011980056763,-1.4548983573913574,2.7562849521636963,-286.43798828125,-194.76318359375,481.62841796875
5.400247097015381,-1266254281,1,-1.1812703609466553,-1.8352264165878296,1.0870380401611328,-89.2333984375,-102.9052734375,-526.79443359375
5.422863006591797,-1266254262,0,1.5047484636306763,-1.4937167167663574,2.9743025302886963,-240.1123046875,-190.49072265625,643.5546875
5.440617084503174,-1266254262,1,-1.6649129390716553,-1.7251189947128296,1.4368915557861328,-117.61474609375,-159.7900390625,-551.94091796875
5.4528398513793945,-1266254226,0,2.5132932662963867,-1.4231600761413574,2.4745466709136963,-82.09228515625,-145.08056640625,748.53515625
5.460222005844116,-1266254227,1,-2.2408406734466553,-1.8840545415878296,1.1622333526611328,-228.57666015625,-251.89208984375,-383.1787109375
5.497957944869995,-1266254207,1,-2.0306355953216553,-2.48488450050354,1.3944110870361328,-368.5302734375,-298.2177734375,-309.08203125
5.497966051101685,-1266254188,1,-1.9554402828216553,-3.08547043800354,2.000368118286133,-493.408203125,-349.7314453125,-248.84033203125
5.51336407661438,-1266254207,0,2.1524534225463867,-1.7007479667663574,2.1486189365386963,-6.7138671875,-90.8203125,747.74169921875
5.513583183288574,-1266254188,0,2.0806760787963867,-2.2341952323913574,1.6200544834136963,8.4228515625,13.671875,776.85546875
5.513604164123535,-1266254169,0,2.2720823287963867,-2.0017733573913574,1.0668318271636963,-30.76171875,61.5234375,638.00048828125
5.517298936843872,-1266254150,0,2.5333127975463867,-1.4412264823913574,0.7340681552886963,-28.6865234375,-33.8134765625,382.2021484375
5.520742893218994,-1266254169,1,-1.4908406734466553,-3.49733567237854,2.586793899536133,-658.5693359375,-425.537109375,-140.625
5.520861864089966,-1266254150,1,-0.2203328013420105,-3.84914231300354,3.069948196411133,-785.70556640625,-439.02587890625,-62.56103515625
5.54491114616394,-1266254131,0,1.4507933855056763,-1.7420077323913574,0.8720076084136963,113.037109375,-261.5966796875,337.158203125
5.550122976303101,-1266254131,1,1.4810831546783447,-4.397238254547119,3.429323196411133,-802.1240234375,-335.693359375,-65.185546875
5.572962999343872,-1266254112,0,0.9070921540260315,-3.3230624198913574,1.0075056552886963,186.21826171875,-403.6865234375,447.8759765625
5.573040962219238,-1266254093,0,-0.023327749222517014,-1.9622225761413574,0.1224958673119545,91.00341796875,-225.52490234375,613.1591796875
5.5911970138549805,-1266254112,1,2.0543253421783447,-5.205099582672119,3.587038040161133,-771.54541015625,-281.92138671875,-101.1962890625
5.5912041664123535,-1266254093,1,1.2806437015533447,-4.965353488922119,4.302614212036133,-790.771484375,-221.61865234375,-220.39794921875
5.602877855300903,-1266254074,0,0.3616820275783539,-1.0149569511413574,-0.4324357807636261,3.662109375,-40.10009765625,394.47021484375
5.6109209060668945,-1266254074,1,0.9085734486579895,-4.323019504547119,4.636598587036133,-726.74560546875,-127.9296875,-194.03076171875
5.642564058303833,-1266254055,0,0.3362914025783539,-0.7710605263710022,-0.3853166401386261,52.06298828125,-173.33984375,288.39111328125
5.642570972442627,-1266254036,0,0.1712523251771927,-0.6651034951210022,-0.2998674213886261,134.70458984375,-313.41552734375,303.52783203125
5.644999027252197,-1266254055,1,0.7547648549079895,-3.88503098487854,4.732789993286133,-641.90673828125,-107.72705078125,-137.5732421875
5.645004987716675,-1266254036,1,0.3648722767829895,-2.69899582862854,3.716432571411133,-582.1533203125,-177.001953125,28.99169921875
5.663766145706177,-1266254017,0,-0.5369996428489685,-0.4790683090686798,-0.0293596014380455,151.85546875,-326.72119140625,304.8095703125
5.672005891799927,-1266254017,1,0.9449504017829895,-3.00514817237854,2.886110305786133,-642.02880859375,-170.2880859375,205.38330078125
5.672072887420654,-1266253998,1,0.9683879017829895,-3.00954270362854,2.841432571411133,-495.849609375,-28.6865234375,260.55908203125
5.6964499950408936,-1266253998,0,-0.8917359709739685,0.7235683798789978,0.6671736240386963,169.49462890625,-151.42822265625,147.03369140625
5.722779035568237,-1266253962,0,-1.0941284894943237,-0.6599765419960022,-0.2620256245136261,118.1640625,-132.6904296875,174.13330078125
5.724304914474487,-1266253943,0,-1.0650757551193237,0.217709019780159,0.3434431254863739,79.04052734375,-209.5947265625,216.30859375
5.739716053009033,-1266253962,1,0.4239543080329895,-2.82985520362854,3.720827102661133,-273.37646484375,142.88330078125,71.47216796875
5.739724159240723,-1266253943,1,0.9129679799079895,-2.62990403175354,4.346803665161133,-267.4560546875,-40.0390625,-168.0908203125
5.754584074020386,-1266253924,0,-0.9178590178489685,-0.5520663857460022,0.1825544536113739,64.75830078125,-168.15185546875,115.17333984375
5.761898040771484,-1266253924,1,-0.1739460825920105,-1.2317107915878296,3.370485305786133,-333.3740234375,-341.12548828125,-158.935546875
5.794811964035034,-1266253905,0,-1.0155152082443237,-1.2273592948913574,-0.5696427822113037,-72.8759765625,-186.1572265625,209.228515625
5.794820070266724,-1266253886,0,-0.6024293303489685,-0.3211093246936798,0.8104841709136963,-29.541015625,-177.490234375,182.373046875
5.797947883605957,-1266253905,1,-0.6954304575920105,-0.7907927632331848,1.6566181182861328,-434.4482421875,-403.9306640625,-28.50341796875
5.79795503616333,-1266253886,1,-0.7239949107170105,-1.3000701665878296,1.2901630401611328,-411.31591796875,-184.2041015625,17.4560546875
5.813016176223755,-1266253867,0,-0.7506226897239685,-0.040103476494550705,1.5724470615386963,152.9541015625,-46.875,88.623046875
5.8203020095825195,-1266253867,1,-1.0523641109466553,-1.2466033697128296,1.1990985870361328,-336.5478515625,-67.9931640625,105.04150390625
5.8203959465026855,-1266253848,1,-0.4446980357170105,-1.5783904790878296,1.1705341339111328,-282.1044921875,-116.76025390625,60.791015625
5.84653115272522,-1266253848,0,-1.2428101301193237,-0.5571933388710022,1.4940779209136963,180.96923828125,32.77587890625,107.2998046875
5.84653902053833,-1266253829,0,-1.4620484113693237,-1.0679354667663574,0.4762556254863739,43.8232421875,25.0244140625,329.4677734375
5.850186109542847,-1266253829,1,0.1959269642829895,-1.8672088384628296,1.0704364776611328,-306.0302734375,-212.158203125,-105.77392578125
5.873687028884888,-1266253810,0,-0.7745484709739685,-1.0278964042663574,-0.0239885076880455,-184.02099609375,-48.15673828125,389.7705078125
5.873815059661865,-1266253791,0,-0.1446656435728073,-1.0469393730163574,0.0536482110619545,-270.1416015625,-71.4111328125,356.5673828125
5.892225027084351,-1266253810,1,-0.2139851450920105,-2.01979660987854,1.1658954620361328,-272.39990234375,-201.416015625,-296.0205078125
5.8922319412231445,-1266253791,1,-0.7918660044670105,-1.9006561040878296,1.3038349151611328,-192.0166015625,-153.13720703125,-418.51806640625
5.909370183944702,-1266253772,1,-1.5091512203216553,-1.6462615728378296,1.4412860870361328,-104.06494140625,-134.765625,-468.1396484375
5.94038987159729,-1266253772,0,0.028918344527482986,-0.9556308388710022,0.4716169536113739,-207.33642578125,-59.4482421875,283.14208984375
5.940402030944824,-1266253753,0,-0.3372925817966461,-0.6734042763710022,1.0072615146636963,-175.1708984375,-35.58349609375,194.39697265625
5.940409183502197,-1266253734,0,-0.3521851599216461,-0.5203281044960022,1.2789900302886963,-150.7568359375,35.400390625,147.8271484375
5.9428911209106445,-1266253753,1,-2.1368367671966553,-1.3335174322128296,1.4239521026611328,-54.19921875,-200.74462890625,-440.7958984375
5.942896842956543,-1266253734,1,-2.1146199703216553,-1.3838104009628296,1.2972431182861328,-34.48486328125,-267.88330078125,-393.61572265625
5.969200134277344,-1266253698,1,-1.7332723140716553,-1.9006561040878296,1.1422138214111328,15.380859375,-219.17724609375,-455.50537109375
5.994853973388672,-1266253698,0,0.5530882477760315,-1.1934237480163574,0.9884626865386963,-375.79345703125,-141.05224609375,191.10107421875
5.995323896408081,-1266253679,0,0.10533435642719269,-0.6131015419960022,1.5868513584136963,-294.12841796875,-194.9462890625,290.46630859375
6.000169038772583,-1266253679,1,-1.9090535640716553,-2.03835129737854,1.3431415557861328,38.87939453125,-190.0634765625,-521.6064453125
6.02461314201355,-1266253660,0,0.4114867150783539,-0.9002109169960022,1.5673201084136963,-348.2666015625,-169.61669921875,153.50341796875
6.024742841720581,-1266253641,0,0.2950316369533539,-1.0000643730163574,2.1161482334136963,-349.2431640625,-121.4599609375,90.9423828125
6.041422128677368,-1266253660,1,-2.3287312984466553,-2.21413254737854,1.6077899932861328,76.904296875,-196.533203125,-576.171875
6.041429042816162,-1266253641,1,-2.9171102046966553,-2.32375168800354,1.4239521026611328,147.0947265625,-206.35986328125,-576.35498046875
6.054673910140991,-1266253622,0,-0.2508668005466461,-0.7861972451210022,2.5570662021636963,-299.25537109375,-45.166015625,163.9404296875
6.061904191970825,-1266253622,1,-2.7796590328216553,-2.71217942237854,0.7196063995361328,248.779296875,-174.62158203125,-566.34521484375
6.0936360359191895,-1266253603,0,1.2693969011306763,-1.1665682792663574,1.6032087802886963,-403.86962890625,-62.07275390625,-43.8232421875
6.0936901569366455,-1266253584,0,-0.5667847990989685,-0.4500155746936798,2.9826033115386963,-257.62939453125,-149.71923828125,135.43701171875
6.0984718799591064,-1266253603,1,-3.3709676265716553,-2.53151535987854,1.1243915557861328,281.6162109375,-76.66015625,-618.95751953125
6.098525047302246,-1266253584,1,-3.6695516109466553,-2.44167160987854,0.9588642120361328,377.9296875,-31.3720703125,-621.4599609375
6.1131751537323,-1266253565,0,-0.5496949553489685,-1.0200839042663574,1.8134138584136963,-412.04833984375,-74.76806640625,-56.15234375
6.120656251907349,-1266253565,1,-3.6378133296966553,-2.36427903175354,1.1707782745361328,512.75634765625,-27.34375,-529.47998046875
6.148976802825928,-1266253546,0,0.7198362946510315,-1.9426913261413574,2.0270369052886963,-391.29638671875,-140.80810546875,-116.69921875
6.148985147476196,-1266253527,0,0.6126585602760315,-2.4038729667663574,2.3612654209136963,-347.47314453125,-139.892578125,-280.09033203125
6.151856184005737,-1266253546,1,-3.3687703609466553,-2.57814621925354,1.3294696807861328,592.59033203125,-54.3212890625,-404.4189453125
6.151978969573975,-1266253527,1,-3.2669637203216553,-2.68971848487854,0.7889423370361328,585.87646484375,-99.54833984375,-313.8427734375
6.192970037460327,-1266253508,1,-3.0360066890716553,-2.74684739112854,0.2403583526611328,495.42236328125,-117.37060546875,-219.482421875
6.1929779052734375,-1266253489,1,-2.5755574703216553,-2.30715012550354,-0.2759990692138672,400.7568359375,3.173828125,-151.0009765625
6.2039361000061035,-1266253508,0,0.1697874814271927,-2.7461581230163574,1.8021833896636963,-275.634765625,-36.31591796875,-525.5126953125
6.204042911529541,-1266253489,0,-0.7596558928489685,-3.3230624198913574,1.1376326084136963,-275.32958984375,-42.54150390625,-613.525390625
6.204115867614746,-1266253470,0,-1.0133179426193237,-3.0996737480163574,0.8776228427886963,-272.94921875,-74.70703125,-562.68310546875
6.210922002792358,-1266253470,1,-1.5084187984466553,-0.8828337788581848,-0.8350811004638672,402.587890625,115.41748046875,-125.30517578125
6.243023157119751,-1266253434,0,-1.3839234113693237,-3.9419589042663574,1.1217634677886963,-256.53076171875,-137.0849609375,-702.63671875
6.245989084243774,-1266253434,1,-0.9114949107170105,-1.7888396978378296,-0.2796611785888672,400.32958984375,15.93017578125,-73.42529296875
6.264416933059692,-1266253415,0,-2.0387086868286133,-4.009341716766357,1.0978376865386963,-302.3681640625,-214.29443359375,-554.6875
6.270884037017822,-1266253415,1,0.3045695424079895,-1.6501678228378296,-1.2679424285888672,188.8427734375,-65.4296875,-40.52734375
6.295958995819092,-1266253396,0,-2.2476930618286133,-3.7515292167663574,1.4357283115386963,-323.8525390625,-250.732421875,-331.787109375
6.295965909957886,-1266253377,0,-1.7784546613693237,-3.2791171073913574,1.5043318271636963,-389.6484375,-229.3701171875,-247.4365234375
6.302049160003662,-1266253396,1,0.7303507924079895,-1.2185271978378296,-0.8575420379638672,159.72900390625,112.060546875,-126.52587890625
6.302058935165405,-1266253377,1,0.0794718861579895,-0.6054900288581848,0.3653583526611328,201.0498046875,320.73974609375,-152.16064453125
6.3245508670806885,-1266253358,0,-2.0350465774536133,-2.9170565605163574,1.3534529209136963,-429.50439453125,-192.138671875,-241.76025390625
6.34079909324646,-1266253358,1,0.9791300892829895,-0.1557830274105072,1.1566181182861328,206.4208984375,215.75927734375,-207.763671875
6.341679096221924,-1266253339,1,0.7335246205329895,1.1442657709121704,1.3416767120361328,120.849609375,104.4921875,-140.5029296875
6.352849960327148,-1266253339,0,-2.4283571243286133,-2.5779452323913574,1.4413435459136963,-412.7197265625,-131.28662109375,-186.58447265625
6.352964162826538,-1266253320,0,-1.9810913801193237,-1.9129061698913574,1.9738142490386963,-314.63623046875,-86.3037109375,-66.34521484375
6.360205173492432,-1266253320,1,1.3035929203033447,0.011941585689783096,1.6490497589111328,113.95263671875,88.37890625,-129.57763671875
6.39357590675354,-1266253301,0,-1.8673218488693237,-2.0479159355163574,2.1005232334136963,-244.81201171875,-12.8173828125,-44.12841796875
6.393584251403809,-1266253282,0,-1.8324097394943237,-2.0396151542663574,1.3866560459136963,-333.55712890625,44.189453125,93.44482421875
6.398557901382446,-1266253301,1,1.2498819828033447,-0.7517302632331848,1.1954364776611328,88.9892578125,124.69482421875,-236.9384765625
6.3985700607299805,-1266253282,1,0.0753214955329895,0.8781525492668152,0.8709735870361328,149.169921875,135.1318359375,-229.00390625
6.41397500038147,-1266253263,0,-1.1226929426193237,-1.0208163261413574,1.7291853427886963,-354.248046875,174.6826171875,59.2041015625
6.422021865844727,-1266253263,1,-1.4551961421966553,1.4196563959121704,1.9657001495361328,124.93896484375,124.6337890625,180.5419921875
6.447617053985596,-1266253244,0,0.1585570126771927,-0.4785800278186798,1.6134626865386963,-273.5595703125,261.8408203125,-239.56298828125
6.447624921798706,-1266253225,0,0.1443968564271927,-1.4751620292663574,0.9088728427886963,-328.9794921875,197.265625,-310.60791015625
6.450711965560913,-1266253244,1,-0.7877156138420105,0.014627132564783096,2.020875930786133,212.46337890625,-1.03759765625,261.29150390625
6.450809001922607,-1266253225,1,1.0677530765533447,-0.4697478711605072,1.3641376495361328,188.90380859375,-119.5068359375,-49.13330078125
6.476181983947754,-1266253206,0,-0.00037853047251701355,-1.6045565605163574,0.8949568271636963,-325.86669921875,196.4111328125,-150.146484375
6.492444038391113,-1266253206,1,0.3375285267829895,-0.5263884663581848,1.1414813995361328,209.65576171875,21.8505859375,-106.99462890625
6.502919912338257,-1266253170,0,0.2474242001771927,-1.3677401542663574,1.0380232334136963,-293.64013671875,210.3271484375,-21.240234375
6.510619163513184,-1266253170,1,-0.036006633192300797,-0.6101287007331848,0.7276630401611328,198.30322265625,-11.04736328125,-180.419921875
6.54352593421936,-1266253151,0,0.2842894494533539,-1.4746737480163574,1.1547224521636963,-321.77734375,210.75439453125,22.94921875
6.543533086776733,-1266253132,0,0.3765746057033539,-1.4588046073913574,1.2809431552886963,-351.62353515625,220.3369140625,66.5283203125
6.546072006225586,-1266253151,1,0.047489460557699203,-0.8108122944831848,0.9305438995361328,222.71728515625,14.83154296875,-210.51025390625
6.5460779666900635,-1266253132,1,0.2716105580329895,-1.0261443853378296,0.9190692901611328,221.923828125,16.66259765625,-286.4990234375
6.56427001953125,-1266253113,0,0.4703246057033539,-1.4483065605163574,1.3373396396636963,-377.86865234375,212.95166015625,75.62255859375
6.5717198848724365,-1266253113,1,0.4588664174079895,-0.9040740132331848,0.7989521026611328,148.74267578125,-12.939453125,-275.69580078125
6.59526515007019,-1266253094,0,0.5110960602760315,-1.4365878105163574,1.4103376865386963,-403.4423828125,207.70263671875,102.11181640625
6.595273971557617,-1266253075,0,0.6624632477760315,-1.5525546073913574,1.5245954990386963,-414.9169921875,192.0166015625,151.91650390625
6.60027003288269,-1266253094,1,0.4617961049079895,-1.2666229009628296,0.8035907745361328,67.68798828125,-87.646484375,-294.37255859375
6.600387096405029,-1266253075,1,-0.0924031138420105,-1.2578338384628296,1.0111103057861328,120.361328125,-37.7197265625,-406.31103515625
6.624495029449463,-1266253056,0,0.8162718415260315,-1.7119784355163574,1.5636579990386963,-416.748046875,154.47998046875,225.341796875
6.641667127609253,-1266253056,1,-0.8431355357170105,-1.0696014165878296,0.6094989776611328,120.7275390625,-20.3857421875,-453.0029296875
6.654810190200806,-1266253037,0,0.9283323884010315,-1.9241366386413574,1.6874372959136963,-403.25927734375,90.8203125,299.98779296875
6.654821872711182,-1266253018,0,1.0384398698806763,-2.0435214042663574,1.7992537021636963,-392.08984375,-2.3193359375,402.83203125
6.6612229347229,-1266253037,1,-1.1646687984466553,-1.1924041509628296,0.8043231964111328,80.87158203125,-45.2880859375,-462.890625
6.661268949508667,-1266253018,1,-1.2884480953216553,-1.2048553228378296,0.7401142120361328,72.81494140625,-117.73681640625,-440.5517578125
6.692929983139038,-1266252999,0,1.2159301042556763,-2.2085604667663574,1.9408552646636963,-356.4453125,-86.9140625,495.54443359375
6.696208238601685,-1266252999,1,-1.1536824703216553,-1.2219451665878296,0.7769794464111328,-18.06640625,-221.5576171875,-404.296875
6.696254014968872,-1266252980,1,-1.3026082515716553,-1.7104705572128296,0.8350849151611328,-72.3876953125,-250.06103515625,-428.64990234375
6.713479042053223,-1266252980,0,1.4861937761306763,-2.2542147636413574,2.1344587802886963,-314.88037109375,-138.73291015625,576.35498046875
6.713593006134033,-1266252961,0,1.6827269792556763,-2.1445956230163574,2.1034529209136963,-280.1513671875,-153.80859375,626.52587890625
6.720624923706055,-1266252961,1,-1.5904500484466553,-2.00343918800354,0.9525165557861328,-130.615234375,-245.05615234375,-486.14501953125
6.746922016143799,-1266252942,0,1.9449340105056763,-1.9295077323913574,1.8451521396636963,-238.70849609375,-161.68212890625,607.5439453125
6.750087022781372,-1266252942,1,-1.9554402828216553,-2.21413254737854,0.9864521026611328,-205.74951171875,-237.97607421875,-472.65625
6.7727391719818115,-1266252906,0,1.7303344011306763,-2.2244296073913574,1.8837263584136963,-69.88525390625,-207.09228515625,526.4892578125
6.792954921722412,-1266252906,1,-1.2603719234466553,-2.64455246925354,1.7647724151611328,-465.27099609375,-281.8603515625,-275.0244140625
6.802976131439209,-1266252887,0,1.1216918230056763,-2.3848299980163574,1.5868513584136963,52.55126953125,-237.548828125,742.98095703125
6.803071022033691,-1266252868,0,1.6617308855056763,-2.1143221855163574,1.4035017490386963,36.9873046875,-94.42138671875,644.04296875
6.810628175735474,-1266252887,1,-0.5093953013420105,-2.93800950050354,2.314577102661133,-555.84716796875,-270.1416015625,-201.35498046875
6.8106958866119385,-1266252868,1,0.1280558705329895,-3.04298996925354,2.822877883911133,-588.37890625,-255.4931640625,-178.3447265625
6.842563152313232,-1266252849,0,2.0455198287963867,-1.7278475761413574,1.0487654209136963,-17.51708984375,6.103515625,396.240234375
6.846832990646362,-1266252849,1,0.3941691517829895,-2.96437668800354,3.171022415161133,-591.85791015625,-265.07568359375,-158.99658203125
6.846841096878052,-1266252830,1,0.5487101674079895,-1.8698943853378296,3.763307571411133,-578.91845703125,-282.89794921875,-122.9248046875
6.869209051132202,-1266252811,1,0.4893839955329895,-2.83840012550354,3.277467727661133,-571.044921875,-267.02880859375,-119.62890625
6.894756078720093,-1266252830,0,2.4764280319213867,-1.3225741386413574,0.7059919834136963,23.13232421875,-64.453125,197.75390625
6.895220041275024,-1266252811,0,2.0333127975463867,-1.3081698417663574,0.6034529209136963,158.50830078125,-156.92138671875,233.09326171875
6.895241975784302,-1266252792,0,1.1094847917556763,-1.4712557792663574,0.1774275004863739,207.03125,-180.7861328125,326.5380859375
6.895248174667358,-1266252773,0,0.7791624665260315,-1.2222323417663574,-0.0740373358130455,175.10986328125,-144.287109375,288.63525390625
6.900469064712524,-1266252792,1,0.4202921986579895,-2.05470871925354,3.463258743286133,-539.24560546875,-171.81396484375,-94.54345703125
6.90057897567749,-1266252773,1,0.3126261830329895,-1.7568572759628296,3.259889602661133,-509.58251953125,-104.43115234375,-55.2978515625
6.922910928726196,-1266252754,0,0.4427367150783539,-0.8906894326210022,-0.2603166401386261,68.90869140625,-154.72412109375,174.98779296875
6.952337980270386,-1266252735,0,0.09556873142719269,-0.197574183344841,0.3004743754863739,81.97021484375,-225.76904296875,151.123046875
6.953609943389893,-1266252716,0,-0.5394410490989685,0.4625820815563202,0.9850447177886963,228.02734375,-241.63818359375,170.654296875
6.960693120956421,-1266252754,1,0.1512492299079895,-0.8408415913581848,3.110963821411133,-474.609375,-87.0361328125,35.82763671875
6.960853099822998,-1266252735,1,0.1148722767829895,-1.0945037603378296,2.612672805786133,-540.10009765625,-152.34375,160.5224609375
6.960867166519165,-1266252716,1,0.8995402455329895,-2.17995285987854,2.691530227661133,-556.640625,-190.00244140625,187.19482421875
6.992775917053223,-1266252697,0,-1.0753296613693237,0.080990269780159,0.8114607334136963,323.73046875,-298.095703125,285.09521484375
6.996376037597656,-1266252697,1,0.9180949330329895,-1.7309783697128296,2.661500930786133,-453.2470703125,-138.12255859375,168.0908203125
6.996383905410767,-1266252678,1,0.1053507924079895,-1.0246795415878296,2.485475540161133,-283.3251953125,5.92041015625,147.03369140625
7.012959003448486,-1266252678,0,-1.3714722394943237,-0.213687464594841,0.5192244052886963,166.44287109375,-261.71875,228.21044921875
7.047122955322266,-1266252642,0,-1.0252808332443237,0.5155605673789978,-0.0166642889380455,45.47119140625,-414.0625,400.45166015625
7.047130107879639,-1266252623,0,-1.3880738019943237,0.9174160361289978,1.2892439365386963,260.07080078125,-255.126953125,211.24267578125
7.050246953964233,-1266252643,1,-0.2051960825920105,-1.1396697759628296,2.494508743286133,-133.85009765625,-31.31103515625,184.9365234375
7.0503270626068115,-1266252623,1,-0.4752156138420105,-0.7224333882331848,1.8573017120361328,-203.0029296875,-143.5546875,205.99365234375
7.072834014892578,-1266252604,0,-1.6192749738693237,0.3351406753063202,1.6259138584136963,307.9833984375,-45.59326171875,82.6416015625
7.0940260887146,-1266252604,1,-0.5284382700920105,-0.9480193257331848,0.9642353057861328,-396.17919921875,-245.1171875,162.53662109375
7.103046894073486,-1266252585,0,-1.4139527082443237,0.151058629155159,0.3514997661113739,64.27001953125,63.29345703125,161.1328125
7.103168964385986,-1266252566,0,-1.0286988019943237,-0.3765292465686798,0.1173689141869545,-100.830078125,-28.99169921875,326.72119140625
7.110405921936035,-1266252585,1,-0.2689167857170105,-1.0407928228378296,1.2178974151611328,-403.62548828125,-315.185546875,77.63671875
7.11051607131958,-1266252566,1,-1.0540730953216553,-0.6111052632331848,1.0108661651611328,-353.3935546875,-218.505859375,129.33349609375
7.142409086227417,-1266252547,0,-0.8697633147239685,-0.2901034653186798,0.6823103427886963,-84.5947265625,-50.72021484375,371.52099609375
7.146574020385742,-1266252547,1,-1.3118855953216553,-0.7155974507331848,0.8321552276611328,-226.62353515625,-169.86083984375,156.31103515625
7.146580934524536,-1266252528,1,-0.6480671763420105,-0.7085173726081848,0.5699481964111328,-155.3955078125,-151.91650390625,-1.64794921875
7.163194179534912,-1266252528,0,-0.7662476897239685,-0.3113436996936798,0.8163435459136963,-86.12060546875,-44.7998046875,307.18994140625
7.163343191146851,-1266252509,0,-0.8485230803489685,-0.4126620590686798,1.0675642490386963,-101.01318359375,3.2958984375,282.71484375
7.170161008834839,-1266252509,1,-0.6055867075920105,-0.7243865132331848,0.5423603057861328,-206.787109375,-170.0439453125,-107.5439453125
7.1970648765563965,-1266252490,0,-0.5543336272239685,-0.6987949013710022,0.6762068271636963,-151.91650390625,48.583984375,277.64892578125
7.197072982788086,-1266252471,0,-0.06800548732280731,-0.7803378701210022,0.6818220615386963,-190.0634765625,15.2587890625,312.68310546875
7.200265884399414,-1266252490,1,-0.7330281138420105,-0.7636931538581848,0.6363544464111328,-320.61767578125,-250.3662109375,-196.77734375
7.20039701461792,-1266252471,1,-1.0189168453216553,-0.8562224507331848,0.8109149932861328,-373.1689453125,-282.3486328125,-270.3857421875
7.222809076309204,-1266252452,0,0.2076292783021927,-0.6033359169960022,1.1156599521636963,-277.03857421875,-54.50439453125,261.71875
7.241625070571899,-1266252452,1,-1.3585164546966553,-0.7531951069831848,0.9823017120361328,-339.78271484375,-255.0048828125,-325.5615234375
7.254906177520752,-1266252433,0,0.031359750777482986,-0.2739901840686798,1.3717634677886963,-225.40283203125,-38.63525390625,159.7900390625
7.254914999008179,-1266252414,0,0.017932016402482986,-0.5315585732460022,1.3722517490386963,-209.47265625,-8.6669921875,62.98828125
7.260693073272705,-1266252433,1,-1.6031453609466553,-0.7278044819831848,1.1378192901611328,-295.71533203125,-209.8388671875,-344.482421875
7.2608160972595215,-1266252414,1,-1.7584187984466553,-0.7983611226081848,1.4605731964111328,-256.34765625,-161.376953125,-377.99072265625
7.295032024383545,-1266252378,1,-2.0811727046966553,-0.7419646382331848,1.9307880401611328,-175.47607421875,-160.5224609375,-466.24755859375
7.312968969345093,-1266252378,0,0.3187132775783539,-0.9998202919960022,1.5553572177886963,-300.78125,-85.0830078125,151.67236328125
7.313062906265259,-1266252359,0,0.1692992001771927,-0.7771640419960022,1.9804060459136963,-288.0859375,-115.90576171875,247.9248046875
7.320418119430542,-1266252359,1,-2.3411824703216553,-0.8176482319831848,2.063600540161133,-158.447265625,-219.8486328125,-492.49267578125
7.345489025115967,-1266252340,0,0.6971312165260315,-1.1174960136413574,1.9728376865386963,-371.9482421875,-157.16552734375,177.55126953125
7.345498085021973,-1266252321,0,0.6016722321510315,-1.0401034355163574,2.5214216709136963,-321.59423828125,-103.94287109375,131.9580078125
7.350600004196167,-1266252340,1,-2.7281453609466553,-0.7055876851081848,2.299440383911133,-129.45556640625,-280.6396484375,-517.333984375
7.3506920337677,-1266252321,1,-2.9905965328216553,-0.9179900288581848,2.462038040161133,-24.23095703125,-273.86474609375,-513.671875
7.372927904129028,-1266252302,0,0.4852171838283539,-1.3350253105163574,2.5226423740386963,-289.0625,-58.7158203125,114.3798828125
7.402091026306152,-1266252283,0,0.8895140290260315,-1.4199862480163574,2.2211287021636963,-393.37158203125,-130.7373046875,-124.69482421875
7.402935981750488,-1266252264,0,0.7044554352760315,-1.9290194511413574,2.3783552646636963,-282.470703125,-162.17041015625,-63.65966796875
7.4105870723724365,-1266252302,1,-2.5594441890716553,-1.3593963384628296,2.012086868286133,118.7744140625,-222.0458984375,-530.21240234375
7.410729885101318,-1266252283,1,-3.5596883296966553,-1.3125213384628296,2.430788040161133,312.6220703125,-123.96240234375,-632.99560546875
7.410797119140625,-1266252264,1,-3.9132039546966553,-1.1972869634628296,2.310670852661133,511.474609375,-107.97119140625,-569.7021484375
7.4430131912231445,-1266252245,0,-1.8026245832443237,-2.0808749198913574,2.6705915927886963,-397.76611328125,-201.416015625,-72.69287109375
7.447365045547485,-1266252245,1,-3.5120809078216553,-1.5727752447128296,1.9825458526611328,585.87646484375,-76.72119140625,-454.833984375
7.463521957397461,-1266252226,0,-0.3377808630466461,-2.9136385917663574,1.2809431552886963,-487.12158203125,-145.3857421875,-237.1826171875
7.463627099990845,-1266252207,0,-0.3895386755466461,-3.2017245292663574,1.7387068271636963,-474.18212890625,-158.14208984375,-386.8408203125
7.471343040466309,-1266252226,1,-3.2774617671966553,-1.7319549322128296,1.7772235870361328,595.39794921875,-111.6943359375,-397.64404296875
7.4713521003723145,-1266252207,1,-2.9400594234466553,-1.8332732915878296,1.4676532745361328,616.51611328125,-89.66064453125,-315.24658203125
7.497431039810181,-1266252188,0,-1.2572144269943237,-3.4329257011413574,1.9711287021636963,-484.68017578125,-98.20556640625,-550.9033203125
7.5002360343933105,-1266252188,1,-2.7396199703216553,-2.13649582862854,1.0362567901611328,610.16845703125,-15.68603515625,-238.76953125
7.500360012054443,-1266252169,1,-2.0557820796966553,-2.51198410987854,0.9688739776611328,630.31005859375,47.66845703125,-176.94091796875
7.522943019866943,-1266252169,0,-2.4452028274536133,-2.9392733573913574,1.7589704990386963,-456.787109375,-123.10791015625,-456.72607421875
7.523020029067993,-1266252150,0,-1.6392945051193237,-4.313785076141357,2.4288923740386963,-335.26611328125,-54.62646484375,-346.74072265625
7.540405035018921,-1266252150,1,-1.3092000484466553,-2.47609543800354,0.5401630401611328,643.73779296875,77.20947265625,-151.7333984375
7.552746057510376,-1266252114,0,-1.8790405988693237,-2.5332674980163574,1.8910505771636963,-408.69140625,-52.30712890625,-366.39404296875
7.560256004333496,-1266252114,1,0.1734660267829895,-2.25685715675354,-0.9681377410888672,362.4267578125,2.0751953125,-106.4453125
7.591698884963989,-1266252095,0,-2.4974489212036133,-2.3328280448913574,2.1491072177886963,-421.69189453125,-50.47607421875,-382.4462890625
7.59511923789978,-1266252095,1,0.8136027455329895,-2.14772629737854,-0.5902080535888672,233.0322265625,129.5166015625,-186.6455078125
7.613379001617432,-1266252076,0,-2.5670289993286133,-1.4827303886413574,2.5084822177886963,-334.77783203125,-19.34814453125,-252.25830078125
7.613498210906982,-1266252057,0,-1.9305542707443237,-2.2058749198913574,1.5097029209136963,-319.3359375,48.03466796875,-280.76171875
7.62027907371521,-1266252076,1,1.0382120609283447,-0.3860076367855072,-0.6949443817138672,226.806640625,231.0791015625,-213.31787109375
7.620293855667114,-1266252057,1,1.5448038578033447,-1.4458221197128296,1.9012470245361328,165.95458984375,91.796875,-91.30859375
7.645273208618164,-1266252038,0,-1.8585327863693237,-2.1196932792663574,1.4743025302886963,-408.50830078125,79.40673828125,-130.43212890625
7.672836065292358,-1266252019,0,-1.2515991926193237,-0.9512363076210022,1.9623396396636963,-401.0009765625,160.2783203125,-128.5400390625
7.673668146133423,-1266252000,0,-0.7723512053489685,-0.8320956826210022,2.4237654209136963,-231.26220703125,133.6669921875,-260.19287109375
7.690884113311768,-1266252038,1,1.7125284671783447,-0.4904998242855072,0.7523212432861328,129.8828125,69.82421875,-260.1318359375
7.6908910274505615,-1266252019,1,0.8953898549079895,-1.6843475103378296,2.645387649536133,90.51513671875,40.34423828125,-278.38134765625
7.690896034240723,-1266252000,1,-0.5020710825920105,-0.5608122944831848,0.9559345245361328,148.01025390625,88.7451171875,-390.68603515625
7.704684019088745,-1266251981,0,-1.1973999738693237,-1.1150546073913574,1.6552107334136963,-140.93017578125,39.24560546875,-17.578125
7.704823970794678,-1266251962,0,-0.9625367522239685,-1.0679354667663574,1.6764509677886963,-132.080078125,51.94091796875,74.52392578125
7.711065053939819,-1266251981,1,-1.4644734859466553,0.9824005961418152,1.2667255401611328,113.22021484375,-0.8544921875,-232.36083984375
7.711165904998779,-1266251962,1,-2.3868367671966553,1.6218048334121704,1.8245868682861328,114.44091796875,-52.24609375,97.22900390625
7.748064994812012,-1266251943,1,-0.3887898325920105,-0.057882633060216904,1.7930927276611328,191.95556640625,-229.18701171875,108.82568359375
7.7648680210113525,-1266251943,0,0.7108030915260315,0.199886754155159,1.7565290927886963,-185.9130859375,208.55712890625,-143.12744140625
7.764983177185059,-1266251924,0,0.7256956696510315,-0.9158359169960022,0.6791365146636963,-380.126953125,365.234375,-587.158203125
7.765074968338013,-1266251905,0,0.4498167932033539,-1.0691561698913574,0.7294294834136963,-437.80517578125,277.9541015625,-457.6416015625
7.77334189414978,-1266251924,1,0.0958293080329895,-0.2863982617855072,1.1566181182861328,210.8154296875,-105.46875,-84.04541015625
7.77335000038147,-1266251905,1,-0.4058796763420105,0.0749298632144928,0.9368915557861328,270.20263671875,-50.29296875,-216.97998046875
7.796979904174805,-1266251886,0,0.5237913727760315,-1.0488924980163574,0.8375837802886963,-400.5126953125,125.6103515625,-338.19580078125
7.802044868469238,-1266251886,1,-0.4110066294670105,-0.0717986524105072,0.6817646026611328,236.51123046875,-68.78662109375,-257.26318359375
7.82362699508667,-1266251850,0,0.3145628869533539,-1.3889803886413574,1.1198103427886963,-331.787109375,-87.890625,108.2763671875
7.8412909507751465,-1266251850,1,-0.4854695200920105,-0.7197478413581848,0.2772235870361328,156.73828125,-118.0419921875,-262.26806640625
7.85460901260376,-1266251831,0,0.4742308557033539,-1.4424471855163574,1.4918806552886963,-381.77490234375,-54.50439453125,272.88818359375
7.854766130447388,-1266251812,0,0.6446409821510315,-1.3950839042663574,1.6727888584136963,-440.5517578125,51.20849609375,293.701171875
7.861886024475098,-1266251831,1,-0.7247273325920105,-0.5244353413581848,0.4644794464111328,89.2333984375,-120.7275390625,-218.32275390625
7.862000226974487,-1266251812,1,-0.4024617075920105,-0.8757537007331848,0.3170185089111328,48.583984375,-117.00439453125,-214.84375
7.893606901168823,-1266251793,0,0.8729124665260315,-1.4710116386413574,1.8390486240386963,-460.51025390625,117.3095703125,290.22216796875
7.896018981933594,-1266251793,1,-0.4434773325920105,-1.0383514165878296,0.4193134307861328,63.5986328125,-105.28564453125,-259.82666015625
7.919837951660156,-1266251774,1,-0.6331745982170105,-1.0185760259628296,0.6981220245361328,60.11962890625,-104.79736328125,-341.064453125
7.920730113983154,-1266251755,1,-0.6959187388420105,-0.9223845601081848,0.7391376495361328,109.9853515625,-121.03271484375,-393.73779296875
7.946281909942627,-1266251774,0,1.1685668230056763,-1.6101717948913574,1.9547712802886963,-482.48291015625,144.287109375,301.26953125
7.946331977844238,-1266251755,0,1.2471801042556763,-1.6441073417663574,1.7208845615386963,-470.76416015625,99.9755859375,337.09716796875
7.946338176727295,-1266251736,0,1.3714476823806763,-1.7647128105163574,1.5380232334136963,-419.921875,19.6533203125,395.3857421875
7.950185060501099,-1266251736,1,-1.1217000484466553,-0.9201872944831848,0.8507099151611328,54.19921875,-157.28759765625,-403.80859375
7.973217964172363,-1266251717,0,1.5164672136306763,-1.9634432792663574,1.5404646396636963,-356.689453125,-45.654296875,463.0126953125
7.973283052444458,-1266251698,0,1.6177855730056763,-1.9270663261413574,1.5463240146636963,-281.1279296875,-145.08056640625,581.84814453125
7.990665912628174,-1266251717,1,-1.4063680171966553,-0.9446013569831848,0.6356220245361328,-33.02001953125,-189.39208984375,-356.50634765625
8.004492998123169,-1266251679,0,1.8719359636306763,-1.7703280448913574,1.6771833896636963,-213.07373046875,-208.19091796875,616.39404296875
8.012048244476318,-1266251698,1,-1.5562703609466553,-2.00685715675354,0.12048531323671341,-55.6640625,-183.9599609375,-393.310546875
8.012247085571289,-1266251679,1,-1.6873738765716553,-1.5256561040878296,0.7222919464111328,-72.44873046875,-155.94482421875,-447.6318359375
8.01227593421936,-1266251660,1,-1.5455281734466553,-1.1186736822128296,1.0845966339111328,-77.33154296875,-191.7724609375,-490.29541015625
8.042761087417603,-1266251660,0,1.9766722917556763,-1.5210604667663574,2.0656111240386963,-119.0185546875,-212.646484375,582.275390625
8.042768239974976,-1266251641,0,1.2256957292556763,-1.6133456230163574,2.4823591709136963,52.06298828125,-154.9072265625,626.220703125
8.048557043075562,-1266251641,1,-1.9522664546966553,-2.01637864112854,0.7874774932861328,-278.076171875,-244.81201171875,-391.7236328125
8.062891960144043,-1266251622,0,0.7493773102760315,-1.8489413261413574,2.1513044834136963,199.27978515625,-76.84326171875,757.080078125
8.070094108581543,-1266251622,1,-1.9566609859466553,-2.26125168800354,1.1143817901611328,-394.95849609375,-237.73193359375,-321.6552734375
8.097074031829834,-1266251586,0,1.4752074480056763,-1.9849276542663574,1.2921736240386963,133.97216796875,218.017578125,511.29150390625
8.100178956985474,-1266251586,1,-1.5264852046966553,-2.09059739112854,1.6866474151611328,-481.01806640625,-123.046875,-176.45263671875
8.122935056686401,-1266251567,0,1.9005004167556763,-1.4041171073913574,0.6012556552886963,125.48828125,96.49658203125,385.31494140625
8.123073101043701,-1266251548,0,2.2027463912963867,-2.4966464042663574,1.0055525302886963,256.53076171875,-214.4775390625,339.05029296875
8.1407949924469,-1266251567,1,-0.9427449107170105,-2.27565598487854,2.237916946411133,-579.89501953125,-144.4091796875,-51.7578125
8.140804052352905,-1266251548,1,-1.0665242671966553,-4.010763645172119,2.644655227661133,-754.57763671875,-343.68896484375,61.70654296875
8.152841091156006,-1266251529,0,1.6143676042556763,-1.9197421073913574,0.6959822177886963,276.91650390625,-358.7646484375,472.16796875
8.163049936294556,-1266251529,1,0.2008097767829895,-3.44899582862854,2.048952102661133,-877.685546875,-300.29296875,104.4921875
8.163059949874878,-1266251510,1,0.2276652455329895,-3.52467942237854,2.959840774536133,-687.07275390625,-19.47021484375,89.4775390625
8.192754030227661,-1266251510,0,1.0992308855056763,-1.7854647636413574,0.6410505771636963,205.62744140625,-260.498046875,485.83984375
8.193709135055542,-1266251491,0,0.9842405915260315,-1.5130038261413574,0.3041364848613739,102.72216796875,-79.52880859375,334.228515625
8.197053909301758,-1266251491,1,0.2137492299079895,-3.37306809425354,2.909303665161133,-541.32080078125,178.5888671875,35.21728515625
8.21310305595398,-1266251472,0,1.2210570573806763,-1.1118807792663574,0.2050153911113739,71.96044921875,-52.1240234375,165.283203125
8.21320390701294,-1266251453,0,0.7166624665260315,-0.9392734169960022,0.4430525004863739,117.5537109375,-118.408203125,77.20947265625
8.220777034759521,-1266251472,1,-0.4149128794670105,-2.30177903175354,3.206422805786133,-408.02001953125,215.02685546875,-24.169921875
8.220847129821777,-1266251453,1,-0.3228718638420105,-1.7614959478378296,2.443239212036133,-491.63818359375,46.44775390625,5.92041015625
8.245168209075928,-1266251434,0,0.2850218713283539,0.3676113784313202,1.3407576084136963,204.345703125,-198.91357421875,94.66552734375
8.271858930587769,-1266251415,0,-0.7640504240989685,-0.8047519326210022,0.3768903911113739,121.52099609375,-153.076171875,190.61279296875
8.272886991500854,-1266251396,0,-0.3719605505466461,-0.4580722153186798,0.2990095317363739,14.95361328125,-178.40576171875,276.0009765625
8.289583206176758,-1266251434,1,0.3919718861579895,-2.67653489112854,2.206178665161133,-606.5673828125,-96.19140625,96.98486328125
8.289613008499146,-1266251415,1,0.8026164174079895,-2.45216965675354,2.463014602661133,-527.2216796875,-32.40966796875,72.1435546875
8.289621114730835,-1266251396,1,0.5916789174079895,-2.11427903175354,2.701051712036133,-325.927734375,78.06396484375,-2.44140625
8.302908897399902,-1266251377,0,-0.7337769865989685,0.105404332280159,0.5458357334136963,16.11328125,-166.9921875,220.03173828125
8.310277938842773,-1266251377,1,0.0806925892829895,-1.2129119634628296,2.631715774536133,-190.36865234375,51.513671875,-25.32958984375
8.342664957046509,-1266251358,0,-0.6593140959739685,0.013851601630449295,0.1574079692363739,-28.6865234375,-170.8984375,178.03955078125
8.348653078079224,-1266251358,1,-0.031612101942300797,-1.3645232915878296,2.407106399536133,-181.57958984375,-84.53369140625,6.28662109375
8.363049983978271,-1266251322,0,-0.7349976897239685,-0.3020663559436798,1.0988142490386963,-109.86328125,-204.9560546875,253.7841796875
8.363157987594604,-1266251303,0,-0.5667847990989685,0.6283535361289978,1.6840193271636963,14.34326171875,-150.69580078125,259.58251953125
8.370408058166504,-1266251322,1,-0.2445027232170105,-1.0888885259628296,1.9786396026611328,-241.2109375,-173.9501953125,-30.57861328125
8.370443105697632,-1266251303,1,-1.2791707515716553,-0.4179900586605072,0.5382099151611328,-375.18310546875,-118.59130859375,151.79443359375
8.398591041564941,-1266251284,0,-0.6876344084739685,0.7640957236289978,2.1185896396636963,182.43408203125,-49.74365234375,167.66357421875
8.400143146514893,-1266251284,1,-0.5623738169670105,-1.7946990728378296,1.0084247589111328,-437.5,-191.34521484375,124.8779296875
8.452268123626709,-1266251265,0,-0.6395387053489685,-0.2949862778186798,0.9774763584136963,77.0263671875,-6.591796875,159.60693359375
8.453706979751587,-1266251246,0,-0.6705445647239685,-0.242251917719841,0.8644392490386963,-100.09765625,-107.421875,270.8740234375
8.453851222991943,-1266251227,0,-0.6307496428489685,-0.113345667719841,0.7731306552886963,-129.39453125,-158.0810546875,347.71728515625
8.45392107963562,-1266251208,0,-0.3651246130466461,-0.2637362778186798,0.8493025302886963,-120.361328125,-146.66748046875,341.12548828125
8.460988998413086,-1266251265,1,0.033817585557699203,-1.5971893072128296,1.0142841339111328,-314.8193359375,-242.0654296875,-22.27783203125
8.46103286743164,-1266251246,1,-0.6236531138420105,-1.8369354009628296,1.1868915557861328,-255.67626953125,-170.41015625,-123.71826171875
8.461138010025024,-1266251227,1,-0.9339558482170105,-1.5403045415878296,1.3397235870361328,-142.333984375,-133.72802734375,-243.59130859375
8.4618821144104,-1266251208,1,-1.3399617671966553,-1.3398650884628296,1.3443622589111328,-95.21484375,-160.70556640625,-315.49072265625
8.492809057235718,-1266251189,0,-0.1671265810728073,-0.249087855219841,1.1539900302886963,-99.91455078125,-86.60888671875,299.9267578125
8.496124982833862,-1266251189,1,-1.8692586421966553,-1.0705779790878296,1.4981708526611328,-102.84423828125,-244.93408203125,-352.294921875
8.513543844223022,-1266251170,0,-0.011364858597517014,-0.4507479965686798,0.9713728427886963,-173.15673828125,-50.96435546875,254.33349609375
8.513638973236084,-1266251151,0,0.08311755955219269,-0.5112949013710022,1.0951521396636963,-256.89697265625,-73.05908203125,226.74560546875
8.520283222198486,-1266251170,1,-2.2291219234466553,-0.7575896382331848,1.5611591339111328,-167.236328125,-342.041015625,-336.36474609375
8.520401000976562,-1266251151,1,-2.3995320796966553,-0.6657927632331848,1.4974384307861328,-237.36572265625,-375.0,-267.88330078125
8.545480012893677,-1266251132,0,0.12120349705219269,-0.177066370844841,1.7145369052886963,-215.02685546875,-108.642578125,264.46533203125
8.55255389213562,-1266251132,1,-2.3895223140716553,-0.7063201069831848,1.3822040557861328,-271.78955078125,-360.83984375,-253.7841796875
8.573028087615967,-1266251113,0,0.4761839807033539,-0.3723788559436798,1.4813826084136963,-199.8291015625,-118.10302734375,250.6103515625
8.573137998580933,-1266251094,0,0.4957152307033539,-0.7285800576210022,1.7181990146636963,-279.47998046875,-138.61083984375,229.30908203125
8.592246055603027,-1266251113,1,-2.2120320796966553,-0.4831756055355072,1.4725360870361328,-244.62890625,-308.59375,-282.470703125
8.592273950576782,-1266251094,1,-2.1441609859466553,-0.4204314649105072,1.7313251495361328,-187.255859375,-263.0615234375,-286.19384765625
8.60926604270935,-1266251058,1,-2.2337605953216553,-0.4736541211605072,2.027467727661133,-154.23583984375,-272.52197265625,-386.77978515625
8.640342950820923,-1266251058,0,0.5545530915260315,-0.4785800278186798,2.6876814365386963,-306.57958984375,-103.08837890625,213.56201171875
8.640352010726929,-1266251039,0,0.8633909821510315,-0.8416171669960022,2.0731794834136963,-306.45751953125,-108.58154296875,176.7578125
8.644593954086304,-1266251039,1,-2.4954793453216553,-0.4424041211605072,2.141725540161133,-130.55419921875,-269.6533203125,-424.560546875
8.663274049758911,-1266251020,0,0.3707152307033539,-0.8521152138710022,2.6090681552886963,-356.8115234375,-173.03466796875,181.82373046875
8.663378953933716,-1266251001,0,0.2982054650783539,-0.5786777138710022,2.7116072177886963,-264.83154296875,-100.03662109375,237.1826171875
8.671880960464478,-1266251020,1,-2.9361531734466553,-0.5322478413581848,2.045045852661133,-102.72216796875,-267.76123046875,-398.8037109375
8.671956062316895,-1266251001,1,-2.1297566890716553,-1.1411346197128296,1.8804950714111328,53.955078125,-224.18212890625,-382.2021484375
8.699109077453613,-1266250982,0,1.3218871355056763,-1.3379549980163574,1.6996443271636963,-481.4453125,-153.6865234375,-289.61181640625
8.701743125915527,-1266250982,1,-2.9639852046966553,-0.8405974507331848,2.721803665161133,235.595703125,-132.87353515625,-602.47802734375
8.725152015686035,-1266250963,0,0.3714476525783539,-1.9436678886413574,2.2130720615386963,-199.03564453125,-132.14111328125,-51.81884765625
8.725161075592041,-1266250944,0,-0.7484254240989685,-1.6306796073913574,2.2575056552886963,-312.31689453125,-162.41455078125,-325.8056640625
8.742183923721313,-1266250963,1,-3.3199422359466553,-0.9514372944831848,2.263795852661133,337.34130859375,-213.07373046875,-627.25830078125
8.74219298362732,-1266250944,1,-3.4901082515716553,-1.4890350103378296,2.271120071411133,392.7001953125,-203.06396484375,-570.3125
8.752899169921875,-1266250925,0,-1.9642456769943237,-2.1170077323913574,1.7211287021636963,-362.4267578125,-188.5986328125,-182.06787109375
8.760288000106812,-1266250925,1,-2.9581258296966553,-1.8217986822128296,1.9029560089111328,616.5771484375,-124.755859375,-545.166015625
8.794680118560791,-1266250906,0,-0.8844117522239685,-3.0913729667663574,1.3497908115386963,-478.08837890625,-172.05810546875,-175.47607421875
8.794687032699585,-1266250887,0,-1.1515015363693237,-2.7329745292663574,1.5355818271636963,-521.66748046875,-138.7939453125,-348.6328125
8.797182083129883,-1266250906,1,-2.8914754390716553,-1.9636443853378296,1.0291767120361328,673.33984375,-48.76708984375,-521.30126953125
8.79718804359436,-1266250887,1,-2.9315145015716553,-1.4780486822128296,0.1961688995361328,551.6357421875,-9.21630859375,-382.568359375
8.814681053161621,-1266250868,0,-2.0865602493286133,-2.6990389823913574,1.7865583896636963,-512.20703125,-84.16748046875,-390.5029296875
8.821842908859253,-1266250868,1,-2.8109090328216553,-1.1299041509628296,-0.3438701629638672,395.751953125,51.26953125,-235.83984375
8.821960926055908,-1266250849,1,-2.1639363765716553,-1.7715057134628296,0.7440204620361328,359.31396484375,106.689453125,-42.41943359375
8.845520973205566,-1266250849,0,-2.9818239212036133,-2.0239901542663574,1.9396345615386963,-425.72021484375,-50.537109375,-263.427734375
8.845529079437256,-1266250830,0,-2.3531618118286133,-2.2100253105163574,1.6093122959136963,-346.923828125,-0.732421875,-250.0
8.850200176239014,-1266250830,1,-0.6927449107170105,-1.8347381353378296,0.8138446807861328,432.9833984375,129.150390625,-42.05322265625
8.874589920043945,-1266250794,0,-2.2325563430786133,-1.8384432792663574,1.3016951084136963,-412.90283203125,113.8916015625,-241.8212890625
8.891725063323975,-1266250794,1,0.7318156361579895,-1.2173064947128296,-0.2208232879638672,257.14111328125,114.74609375,-132.9345703125
8.904788970947266,-1266250775,0,-2.1646852493286133,-1.0952792167663574,1.8478376865386963,-340.2099609375,72.93701171875,-173.33984375
8.9117910861969,-1266250775,1,0.3123820424079895,-1.8791717290878296,0.0013446882367134094,66.10107421875,273.92578125,-51.08642578125
