sync_time,timestamp_ms,device_id,ax,ay,az,gx,gy,gz
0.019665956497192383,-1268610847,0,0.9647093415260315,-0.6004062294960022,0.6351912021636963,-155.2734375,139.83154296875,-176.26953125
0.034021854400634766,-1268610849,1,1.2620890140533447,0.0827423632144928,0.8323993682861328,53.5888671875,111.2060546875,-22.705078125
0.04830479621887207,-1268610828,0,0.9922972321510315,-0.5584140419960022,0.6854841709136963,-153.3203125,95.27587890625,-208.251953125
0.04840397834777832,-1268610809,0,1.0333129167556763,-0.4536776840686798,0.7040388584136963,-127.9296875,40.1611328125,-247.13134765625
0.055587053298950195,-1268610830,1,1.2911417484283447,0.1183868944644928,0.9874286651611328,58.16650390625,110.53466796875,-15.07568359375
0.05562591552734375,-1268610811,1,1.1700479984283447,0.1857697069644928,1.0875263214111328,59.02099609375,88.623046875,-7.75146484375
0.08417892456054688,-1268610790,0,1.0992308855056763,-0.4524569809436798,0.7431013584136963,-117.7978515625,18.4326171875,-265.44189453125
0.08618497848510742,-1268610792,1,1.0218546390533447,0.2292267382144928,1.1727313995361328,62.43896484375,40.8935546875,-8.6669921875
0.08619189262390137,-1268610773,1,0.8734171986579895,0.3115021288394928,1.1395282745361328,60.72998046875,-8.72802734375,-11.71875
0.10823702812194824,-1268610771,0,1.1392699480056763,-0.4224276840686798,0.7391951084136963,-110.9619140625,32.71484375,-258.4228515625
0.10838079452514648,-1268610752,0,1.1092406511306763,-0.4929843246936798,0.7575056552886963,-99.91455078125,48.52294921875,-246.39892578125
0.11548280715942383,-1268610754,1,0.7420695424079895,0.3283478319644928,1.0120868682861328,61.95068359375,-43.51806640625,-14.0380859375
0.138200044631958,-1268610733,0,1.0958129167556763,-0.3696933090686798,0.7413923740386963,-71.59423828125,50.1708984375,-243.71337890625
0.14572477340698242,-1268610735,1,0.8944132924079895,0.3066193163394928,0.8455829620361328,67.0166015625,-64.208984375,4.33349609375
0.18164777755737305,-1268610697,0,0.9339476227760315,-0.207095667719841,0.7770369052886963,-13.36669921875,81.60400390625,-230.5908203125
0.1841731071472168,-1268610699,1,0.8580363392829895,0.2914825975894928,0.8109149932861328,65.85693359375,-71.533203125,35.58349609375
0.19846606254577637,-1268610678,0,0.8152952790260315,-0.188052698969841,0.8527204990386963,-12.5732421875,65.185546875,-208.92333984375
0.19857311248779297,-1268610659,0,0.8321409821510315,-0.162906214594841,0.8534529209136963,-13.427734375,44.12841796875,-207.763671875
0.20572805404663086,-1268610680,1,0.9227336049079895,0.2240997850894928,0.8450946807861328,66.95556640625,-76.7822265625,53.16162109375
0.2057819366455078,-1268610661,1,0.8866007924079895,0.1323029100894928,0.8302021026611328,46.2646484375,-75.50048828125,56.33544921875
0.23481082916259766,-1268610640,0,0.8831663727760315,-0.099917933344841,0.8219587802886963,2.0751953125,22.88818359375,-210.99853515625
0.23692584037780762,-1268610642,1,0.8294718861579895,0.0649200975894928,0.7989521026611328,38.87939453125,-88.07373046875,48.33984375
0.23693275451660156,-1268610623,1,0.8497355580329895,0.045632991939783096,0.7926044464111328,47.54638671875,-100.76904296875,38.2080078125
0.25829601287841797,-1268610621,0,0.9290648102760315,0.003109414130449295,0.7089216709136963,24.0478515625,11.962890625,-193.115234375
0.25838494300842285,-1268610602,0,0.9791136384010315,0.037044961005449295,0.7011091709136963,53.3447265625,22.216796875,-152.03857421875
0.2654609680175781,-1268610604,1,0.8509562611579895,-0.0005095861852169037,0.8402118682861328,46.630859375,-111.9384765625,26.4892578125
0.2891809940338135,-1268610583,0,0.9639769196510315,0.091976597905159,0.6940290927886963,79.77294921875,38.75732421875,-129.7607421875
0.295529842376709,-1268610585,1,0.8499796986579895,0.037576351314783096,0.8114032745361328,32.1044921875,-124.1455078125,-6.9580078125
0.2956058979034424,-1268610566,1,0.8868449330329895,0.0815216600894928,0.7252216339111328,18.12744140625,-143.24951171875,-39.794921875
0.31830286979675293,-1268610564,0,0.9495726227760315,0.2653164565563202,0.6876814365386963,99.67041015625,51.33056640625,-127.38037109375
0.3184068202972412,-1268610545,0,0.9463987946510315,0.4130215346813202,0.6278669834136963,93.93310546875,47.8515625,-136.90185546875
0.3362870216369629,-1268610547,1,1.0001261234283447,0.034890804439783096,0.6998310089111328,7.26318359375,-126.0986328125,-67.56591796875
0.348585844039917,-1268610526,0,0.8797484040260315,0.4230313003063202,0.7120954990386963,68.66455078125,41.1376953125,-153.80859375
0.34868288040161133,-1268610507,0,0.8821898102760315,0.3634609878063202,0.7296736240386963,46.2646484375,38.75732421875,-162.90283203125
0.3576498031616211,-1268610528,1,0.9556925892829895,0.008767757564783096,0.5899677276611328,13.61083984375,-75.0732421875,-105.1025390625
0.35765981674194336,-1268610509,1,0.9246867299079895,-0.0945037305355072,0.3573017120361328,53.1005859375,-61.70654296875,-136.71875
0.384509801864624,-1268610488,0,0.9471312165260315,0.3678555190563202,0.6315290927886963,34.3017578125,53.3447265625,-164.0625
0.3865368366241455,-1268610490,1,0.9862101674079895,0.025369320064783096,0.3048114776611328,100.341796875,-83.92333984375,-118.10302734375
0.38654494285583496,-1268610471,1,0.8858683705329895,0.1908966600894928,0.2960224151611328,108.5205078125,-60.60791015625,-97.10693359375
0.40874195098876953,-1268610469,0,0.8765745759010315,0.4047207534313202,0.6603376865386963,31.494140625,69.9462890625,-162.65869140625
0.43705177307128906,-1268610433,0,0.7020140290260315,0.3773770034313202,0.6268904209136963,29.78515625,72.509765625,-154.6630859375
0.4459497928619385,-1268610435,1,0.8692668080329895,0.2253204882144928,0.3267841339111328,124.755859375,-13.916015625,-56.45751953125
0.44603991508483887,-1268610416,1,0.8785441517829895,0.2355743944644928,0.3602313995361328,125.42724609375,-11.41357421875,-38.02490234375
0.46840691566467285,-1268610414,0,0.6768675446510315,0.3864102065563202,0.6295759677886963,35.58349609375,58.2275390625,-154.78515625
0.4685359001159668,-1268610395,0,0.6517210602760315,0.3898281753063202,0.6307966709136963,43.76220703125,54.19921875,-155.45654296875
0.4839169979095459,-1268610397,1,0.8883097767829895,0.2197052538394928,0.3128681182861328,125.91552734375,-6.8359375,-33.50830078125
0.49841880798339844,-1268610376,0,0.6207152009010315,0.4789395034313202,0.5895369052886963,46.08154296875,54.0771484375,-152.16064453125
0.4985389709472656,-1268610357,0,0.5054808259010315,0.5001797080039978,0.5380232334136963,36.9873046875,40.95458984375,-148.62060546875
0.505640983581543,-1268610378,1,0.7974894642829895,0.2031036913394928,0.1783466339111328,122.1923828125,39.48974609375,-29.4189453125
0.505742073059082,-1268610359,1,0.7530558705329895,0.1828400194644928,0.1492938995361328,130.859375,57.80029296875,-41.50390625
0.5361368656158447,-1268610338,0,0.4847289025783539,0.5358242392539978,0.5084822177886963,29.23583984375,24.658203125,-150.08544921875
0.5378768444061279,-1268610340,1,0.8145793080329895,0.1528107225894928,0.2266864776611328,141.41845703125,76.171875,-42.90771484375
0.5582997798919678,-1268610319,0,0.4361449182033539,0.4813809096813202,0.5128767490386963,17.15087890625,14.09912109375,-143.37158203125
0.5584189891815186,-1268610300,0,0.3470335900783539,0.5116543173789978,0.5255720615386963,6.28662109375,13.3056640625,-132.50732421875
0.565727949142456,-1268610321,1,0.7249796986579895,0.1652618944644928,0.3504657745361328,131.53076171875,92.6513671875,-34.97314453125
0.5658128261566162,-1268610302,1,0.5487101674079895,0.1406036913394928,0.4359149932861328,101.25732421875,73.486328125,-53.466796875
0.5904769897460938,-1268610281,0,0.3382445275783539,0.5465664267539978,0.5524275302886963,-3.35693359375,6.103515625,-122.74169921875
0.5957660675048828,-1268610283,1,0.5853312611579895,0.2846466600894928,0.3834247589111328,66.0400390625,35.70556640625,-90.33203125
0.595836877822876,-1268610264,1,0.6287882924079895,0.2770783007144928,0.3577899932861328,47.4853515625,7.4462890625,-106.75048828125
0.631403923034668,-1268610262,0,0.3401976525783539,0.4867520034313202,0.5795271396636963,-10.498046875,12.51220703125,-117.73681640625
0.6314108371734619,-1268610243,0,0.3165160119533539,0.3993496596813202,0.5614607334136963,-16.4794921875,21.05712890625,-97.412109375
0.6354959011077881,-1268610245,1,0.6170695424079895,0.1323029100894928,0.3536396026611328,42.6025390625,-13.12255859375,-100.7080078125
0.6482949256896973,-1268610224,0,0.3414183557033539,0.212826207280159,0.4823591411113739,-8.23974609375,40.6494140625,-52.42919921875
0.6484208106994629,-1268610205,0,0.3189574182033539,0.224056676030159,0.3973982036113739,28.25927734375,44.5556640625,14.58740234375
0.6560399532318115,-1268610226,1,0.5780070424079895,0.0722443163394928,0.3028583526611328,56.82373046875,-31.79931640625,-109.19189453125
0.656242847442627,-1268610207,1,0.5643351674079895,0.2028595507144928,0.2962665557861328,62.8662109375,-21.78955078125,-131.7138671875
0.6875479221343994,-1268610171,1,0.4075968861579895,0.2306915819644928,0.11779976636171341,53.1005859375,7.50732421875,-124.81689453125
0.7101268768310547,-1268610169,0,0.2505980432033539,0.3280605971813202,0.4794294536113739,83.06884765625,67.81005859375,46.08154296875
0.7101359367370605,-1268610150,0,0.2032347470521927,0.4083828628063202,0.4791853129863739,82.58056640625,69.64111328125,39.97802734375
0.7155137062072754,-1268610152,1,0.2642863392829895,0.2219025194644928,0.08435250073671341,46.7529296875,12.02392578125,-124.32861328125
0.7381057739257812,-1268610131,0,0.1920042783021927,0.4288906753063202,0.4830915629863739,65.85693359375,63.232421875,36.62109375
0.7458508014678955,-1268610133,1,0.2503703236579895,0.2404572069644928,0.08044625073671341,26.79443359375,21.3623046875,-141.66259765625
0.7459640502929688,-1268610114,1,0.2701457142829895,0.2365509569644928,0.02087593823671341,-3.23486328125,35.0341796875,-141.41845703125
0.7683768272399902,-1268610112,0,0.1985960751771927,0.4769863784313202,0.4833357036113739,42.48046875,60.11962890625,35.888671875
0.7684407234191895,-1268610093,0,0.1917601376771927,0.5197109580039978,0.4501325786113739,22.27783203125,54.6875,35.94970703125
0.7840509414672852,-1268610095,1,0.2567179799079895,0.2348419725894928,0.005495078861713409,-19.47021484375,43.5791015625,-116.51611328125
0.7987709045410156,-1268610074,0,0.1998167783021927,0.5228847861289978,0.4630720317363739,-9.33837890625,44.37255859375,40.10009765625
0.7989068031311035,-1268610055,0,0.2515746057033539,0.5160488486289978,0.4884626567363739,-35.46142578125,41.07666015625,43.8232421875
0.8056879043579102,-1268610076,1,0.2008097767829895,0.2221466600894928,0.0018329694867134094,-31.06689453125,50.78125,-91.97998046875
0.8058109283447266,-1268610057,1,0.1700480580329895,0.2497345507144928,-0.0003642961382865906,-46.142578125,58.89892578125,-77.20947265625
0.834399938583374,-1268610036,0,0.2505980432033539,0.5433925986289978,0.5590193271636963,-59.14306640625,40.83251953125,48.7060546875
0.8363981246948242,-1268610038,1,0.2042277455329895,0.2497345507144928,0.0006122663617134094,-68.84765625,73.486328125,-58.837890625
0.8584780693054199,-1268610017,0,0.2393675595521927,0.5441250205039978,0.5966169834136963,-77.1484375,40.22216796875,55.17578125
0.8585989475250244,-1268609998,0,0.2435179501771927,0.5941738486289978,0.6376326084136963,-90.02685546875,30.57861328125,65.0634765625
0.8655600547790527,-1268610019,1,0.2481730580329895,0.2687775194644928,0.05237007886171341,-81.787109375,92.83447265625,-38.2080078125
0.8656377792358398,-1268610000,1,0.2943156361579895,0.2992950975894928,0.1512470245361328,-87.2802734375,112.9150390625,-22.216796875
0.888577938079834,-1268609979,0,0.2479124814271927,0.6395840048789978,0.7528669834136963,-105.52978515625,5.4931640625,68.84765625
0.8957879543304443,-1268609981,1,0.3243449330329895,0.2846466600894928,0.2674579620361328,-87.46337890625,122.4365234375,-14.70947265625
0.8958940505981445,-1268609962,1,0.3599894642829895,0.3217560350894928,0.3919696807861328,-87.46337890625,133.6669921875,-18.4326171875
0.9182777404785156,-1268609960,0,0.3619261682033539,0.6242031455039978,0.8903181552886963,-122.13134765625,-29.84619140625,74.70703125
0.9184408187866211,-1268609941,0,0.4537230432033539,0.5944179892539978,0.9865095615386963,-130.55419921875,-50.96435546875,80.13916015625
0.9342789649963379,-1268609943,1,0.3116496205329895,0.4614044725894928,0.4935321807861328,-100.03662109375,126.0986328125,-23.5595703125
0.9481449127197266,-1268609905,0,0.5655394196510315,0.4711270034313202,1.0180037021636963,-133.9111328125,-64.3310546875,87.40234375
0.9554569721221924,-1268609907,1,0.3656046986579895,0.5722443461418152,0.7264423370361328,-143.9208984375,71.22802734375,-0.8544921875
1.0073957443237305,-1268609886,0,0.5958128571510315,0.4723477065563202,1.0658552646636963,-130.0048828125,-76.5380859375,90.6982421875
1.0084259510040283,-1268609867,0,0.6551390290260315,0.5475429892539978,1.0773298740386963,-125.79345703125,-91.61376953125,101.01318359375
1.0085740089416504,-1268609848,0,0.6971312165260315,0.6110195517539978,1.0700056552886963,-122.74169921875,-107.666015625,104.8583984375
1.015976905822754,-1268609888,1,0.4224894642829895,0.5597931742668152,0.9002704620361328,-170.654296875,49.01123046875,-10.68115234375
1.0161058902740479,-1268609869,1,0.3834269642829895,0.5307404398918152,1.0594501495361328,-178.7109375,43.0908203125,-35.5224609375
1.016124963760376,-1268609850,1,0.3887980580329895,0.6659943461418152,1.2630634307861328,-187.98828125,27.40478515625,-65.0634765625
1.038093090057373,-1268609829,0,0.7076292634010315,0.6088222861289978,1.0060408115386963,-116.8212890625,-122.25341796875,100.15869140625
1.0674989223480225,-1268609810,0,0.7515745759010315,0.6447109580039978,0.9359724521636963,-107.0556640625,-133.11767578125,83.06884765625
1.0799150466918945,-1268609791,0,0.8494749665260315,0.7897304892539978,0.9855329990386963,-106.8115234375,-122.4365234375,29.78515625
1.0816969871520996,-1268609831,1,0.5299113392829895,0.6064240336418152,1.4215106964111328,-230.1025390625,12.51220703125,-96.74072265625
1.08170485496521,-1268609812,1,0.4801066517829895,0.5634552836418152,1.5684833526611328,-229.98046875,25.20751953125,-127.5634765625
1.0817101001739502,-1268609793,1,0.3770793080329895,0.5766388773918152,1.6597919464111328,-203.91845703125,22.03369140625,-161.0107421875
1.1011979579925537,-1268609772,0,0.8470335602760315,0.7406582236289978,1.0690290927886963,-133.97216796875,-93.75,6.53076171875
1.1057789325714111,-1268609774,1,0.1888468861579895,0.6305939555168152,1.8282489776611328,-159.3017578125,-11.65771484375,-180.96923828125
1.1058249473571777,-1268609755,1,0.022342976182699203,0.7211701273918152,1.8614521026611328,-123.779296875,-72.32666015625,-180.419921875
1.1354780197143555,-1268609753,0,0.8194456696510315,0.6786465048789978,1.1669294834136963,-154.4189453125,-49.49951171875,2.50244140625
1.1354889869689941,-1268609734,0,0.7234984040260315,0.6032070517539978,1.2438337802886963,-150.69580078125,-31.92138671875,-7.38525390625
1.1359868049621582,-1268609736,1,-0.043330851942300797,0.7970978617668152,1.7386493682861328,-94.78759765625,-129.39453125,-162.4755859375
1.1582667827606201,-1268609715,0,0.6566038727760315,0.4777188003063202,1.2816755771636963,-120.17822265625,-33.26416015625,-14.58740234375
1.1583926677703857,-1268609696,0,0.6107054352760315,0.4760098159313202,1.2933943271636963,-80.38330078125,-50.1708984375,-15.869140625
1.1655709743499756,-1268609717,1,-0.1212117075920105,0.7692658305168152,1.6202411651611328,-85.8154296875,-156.494140625,-147.64404296875
1.165687084197998,-1268609698,1,-0.1844441294670105,0.7807404398918152,1.4239521026611328,-75.62255859375,-166.3818359375,-136.71875
1.191169023513794,-1268609677,0,0.6465941071510315,0.5201992392539978,1.2719099521636963,-40.1611328125,-67.56591796875,-29.72412109375
1.195943832397461,-1268609679,1,-0.2879597544670105,0.8105255961418152,1.2686786651611328,-57.55615234375,-153.86962890625,-134.3994140625
1.2181448936462402,-1268609641,0,0.6741819977760315,0.6698574423789978,1.2741072177886963,-27.03857421875,-53.28369140625,-47.05810546875
1.2360990047454834,-1268609643,1,-0.3507038950920105,0.6684357523918152,0.9495868682861328,-11.41357421875,-93.56689453125,-141.41845703125
1.2481200695037842,-1268609622,0,0.6915159821510315,0.6574062705039978,1.2770369052886963,-30.45654296875,-40.1611328125,-48.828125
1.2558658123016357,-1268609624,1,-0.2960163950920105,0.6196076273918152,0.8504657745361328,3.7841796875,-56.2744140625,-136.77978515625
1.2559287548065186,-1268609605,1,-0.3155476450920105,0.5595490336418152,0.8983173370361328,9.94873046875,-24.84130859375,-124.45068359375
1.2881889343261719,-1268609603,0,0.6697874665260315,0.5997890830039978,1.2745954990386963,-17.333984375,-19.71435546875,-61.46240234375
1.2881958484649658,-1268609584,0,0.5535765290260315,0.5177578330039978,1.1854841709136963,0.91552734375,-3.35693359375,-67.19970703125
1.2898917198181152,-1268609586,1,-0.3543660044670105,0.5466095805168152,0.9415302276611328,14.58740234375,-13.61083984375,-124.51171875
1.3082799911499023,-1268609565,0,0.4776488244533539,0.5211758017539978,1.0878279209136963,23.98681640625,1.15966796875,-59.6923828125
1.308384895324707,-1268609546,0,0.4749632775783539,0.6303066611289978,0.7289412021636963,-1.46484375,-22.705078125,-80.13916015625
1.3170979022979736,-1268609567,1,-0.3372761607170105,0.5470978617668152,0.9664325714111328,19.8974609375,-6.4697265625,-120.849609375
1.3171088695526123,-1268609548,1,-0.5037800669670105,0.5219513773918152,1.2008075714111328,21.6064453125,-24.23095703125,-132.8125
1.3384919166564941,-1268609527,0,0.2923460900783539,0.3119473159313202,0.5861189365386963,-34.423828125,-48.88916015625,-89.2333984375
1.3455359935760498,-1268609529,1,-0.5758015513420105,0.8893830180168152,0.9432392120361328,55.84716796875,-39.55078125,-24.5361328125
1.3682160377502441,-1268609508,0,0.2862425744533539,0.4598965346813202,0.6312849521636963,0.91552734375,-70.1904296875,-52.55126953125
1.3683419227600098,-1268609489,0,0.2994261682033539,0.4103359878063202,0.7015974521636963,23.3154296875,-88.8671875,-18.310546875
1.3838720321655273,-1268609510,1,-0.5457722544670105,0.5607697367668152,0.7698993682861328,48.583984375,-2.50244140625,-23.13232421875
1.383880853652954,-1268609491,1,-0.2147175669670105,0.3356720507144928,0.7828388214111328,47.05810546875,55.48095703125,-35.888671875
1.398439884185791,-1268609470,0,0.3875609338283539,0.2992520034313202,0.7572615146636963,33.02001953125,-91.73583984375,15.19775390625
1.4056687355041504,-1268609472,1,-0.1680867075920105,0.2365509569644928,0.9359149932861328,51.6357421875,79.833984375,-65.73486328125
1.4057419300079346,-1268609453,1,-0.1612507700920105,0.1811310350894928,0.9654560089111328,32.8369140625,60.546875,-74.70703125
1.4359428882598877,-1268609451,0,0.3865843713283539,0.243343785405159,0.8185408115386963,44.37255859375,-93.505859375,42.48046875
1.4359538555145264,-1268609432,0,0.4285765588283539,0.184750035405159,0.9039900302886963,47.66845703125,-78.2470703125,53.77197265625
1.4364349842071533,-1268609434,1,-0.1180378794670105,0.1550079882144928,0.9285907745361328,18.00537109375,33.75244140625,-75.01220703125
1.458225965499878,-1268609413,0,0.3599730432033539,0.136166051030159,0.9230329990386963,52.67333984375,-56.5185546875,65.7958984375
1.465475082397461,-1268609415,1,-0.0806843638420105,0.1259552538394928,0.8685321807861328,10.68115234375,14.09912109375,-96.5576171875
1.4910640716552734,-1268609377,0,0.5958128571510315,0.193783238530159,0.8119490146636963,45.34912109375,23.74267578125,60.791015625
1.4956517219543457,-1268609379,1,-0.1768757700920105,0.2819611132144928,0.7012958526611328,-12.51220703125,52.79541015625,-78.4912109375
1.5182337760925293,-1268609358,0,0.5045042634010315,0.219173863530159,0.7775251865386963,40.283203125,25.5126953125,58.10546875
1.5183448791503906,-1268609339,0,0.5213499665260315,0.236263707280159,0.7098982334136963,48.33984375,7.62939453125,55.23681640625
1.534303903579712,-1268609360,1,-0.2132527232170105,0.2316681444644928,0.7447528839111328,-22.3388671875,81.11572265625,-54.01611328125
1.5343117713928223,-1268609341,1,0.045780476182699203,0.4579865038394928,0.5460224151611328,-38.63525390625,72.021484375,-48.9501953125
1.5481081008911133,-1268609320,0,0.4278441369533539,-0.001285117119550705,0.8378279209136963,61.279296875,-24.0478515625,38.2080078125
1.555588722229004,-1268609322,1,-0.2559773325920105,0.2409454882144928,0.7191181182861328,-77.45361328125,63.4765625,-25.5126953125
1.555677890777588,-1268609303,1,-0.2525593638420105,0.1918732225894928,0.8980731964111328,-64.3310546875,24.5361328125,-10.19287109375
1.5873301029205322,-1268609301,0,0.6951780915260315,0.182308629155159,0.6061384677886963,90.02685546875,-51.08642578125,42.8466796875
1.5873370170593262,-1268609282,0,0.6424437165260315,0.5065273642539978,0.6000349521636963,106.01806640625,-35.0341796875,32.958984375
1.5888209342956543,-1268609284,1,-0.2066609263420105,0.4509064257144928,0.7918720245361328,-58.28857421875,42.236328125,-3.60107421875
1.608139991760254,-1268609263,0,0.8113890290260315,0.5905117392539978,0.6083357334136963,80.322265625,-17.2119140625,22.5830078125
1.6156518459320068,-1268609265,1,-0.3194538950920105,0.3456818163394928,0.8167743682861328,-23.98681640625,54.19921875,42.1142578125
1.615746021270752,-1268609246,1,-0.3099324107170105,0.3815704882144928,0.9302997589111328,-4.94384765625,63.90380859375,59.2041015625
1.6409258842468262,-1268609244,0,0.7479124665260315,0.5248379111289978,0.7479841709136963,47.8515625,1.46484375,-18.310546875
1.6409337520599365,-1268609225,0,0.8194456696510315,0.3292813003063202,0.6881697177886963,70.49560546875,-6.4697265625,-37.41455078125
1.6455209255218506,-1268609227,1,-0.3736531138420105,0.3737579882144928,1.0396747589111328,-13.427734375,62.19482421875,69.580078125
1.6812260150909424,-1268609206,0,0.9710569977760315,0.4830898940563202,0.7445662021636963,101.1962890625,-26.123046875,-34.72900390625
1.6812338829040527,-1268609187,0,1.0645629167556763,0.6766933798789978,0.7599470615386963,98.08349609375,-30.21240234375,-34.48486328125
1.6839258670806885,-1268609208,1,-0.3785359263420105,0.4045197069644928,1.0228290557861328,-10.1318359375,38.0859375,68.29833984375
1.6839327812194824,-1268609189,1,-0.3597370982170105,0.5187775492668152,1.1317157745361328,9.33837890625,8.60595703125,83.92333984375
1.6973340511322021,-1268609168,0,1.0696898698806763,0.8036465048789978,0.7045271396636963,64.0869140625,-18.61572265625,-43.701171875
1.7062430381774902,-1268609170,1,-0.2767292857170105,0.7206818461418152,1.2103290557861328,32.958984375,4.94384765625,96.37451171875
1.7062509059906006,-1268609151,1,-0.2623249888420105,0.8005158305168152,1.2650165557861328,39.73388671875,11.90185546875,106.62841796875
1.7366619110107422,-1268609149,0,1.0496703386306763,0.7709316611289978,0.6386091709136963,38.330078125,-3.173828125,-62.92724609375
1.7584559917449951,-1268609113,0,1.1280394792556763,0.8483242392539978,0.5397322177886963,22.8271484375,-0.244140625,-70.068359375
1.7660610675811768,-1268609115,1,-0.1627156138420105,0.7851349711418152,1.1829853057861328,3.2958984375,23.4375,138.12255859375
1.7661397457122803,-1268609096,1,-0.1204792857170105,0.8322541117668152,1.1993427276611328,12.5732421875,30.45654296875,143.24951171875
1.7881898880004883,-1268609094,0,1.2181273698806763,0.8546718955039978,0.4943220317363739,26.91650390625,7.50732421875,-64.697265625
1.7883028984069824,-1268609075,0,1.1441527605056763,0.8353847861289978,0.4703962504863739,36.0107421875,45.8984375,-61.1572265625
1.795515775680542,-1268609077,1,-0.0867878794670105,0.7712189555168152,1.2393817901611328,48.88916015625,26.9775390625,122.6806640625
1.8311328887939453,-1268609056,0,1.1356078386306763,0.8803066611289978,0.4125349223613739,44.0673828125,57.80029296875,-70.1904296875
1.8311407566070557,-1268609037,0,1.1392699480056763,0.9401211142539978,0.3890974223613739,42.90771484375,46.38671875,-91.6748046875
1.8339109420776367,-1268609058,1,0.0057414136826992035,0.8942658305168152,1.1927509307861328,69.580078125,10.498046875,118.83544921875
1.8339169025421143,-1268609039,1,0.049930866807699203,0.9699494242668152,1.2220478057861328,84.04541015625,10.31494140625,126.0986328125
1.8482248783111572,-1268609018,0,1.1270629167556763,0.9181484580039978,0.4369489848613739,38.87939453125,52.55126953125,-112.12158203125
1.8557970523834229,-1268609020,1,0.1717570424079895,1.0146270990371704,1.2012958526611328,91.9189453125,16.845703125,129.0283203125
1.8558979034423828,-1268609001,1,0.2415812611579895,0.8683869242668152,1.2454853057861328,97.83935546875,37.9638671875,109.06982421875
1.8847198486328125,-1268608999,0,1.1187621355056763,0.8766445517539978,0.4464704692363739,39.55078125,53.1005859375,-119.9951171875
1.884727954864502,-1268608980,0,1.1321898698806763,0.8510097861289978,0.4613630473613739,36.376953125,54.0771484375,-116.88232421875
1.8883121013641357,-1268608982,1,0.2877238392829895,0.7538849711418152,1.1854267120361328,99.4873046875,33.50830078125,91.30859375
1.908160924911499,-1268608961,0,1.0860472917556763,0.8436855673789978,0.4706403911113739,23.92578125,65.73486328125,-115.66162109375
1.9155597686767578,-1268608963,1,0.2706339955329895,0.7900177836418152,1.1073017120361328,109.31396484375,35.7666015625,83.31298828125
1.9156527519226074,-1268608944,1,0.2618449330329895,0.8515412211418152,0.9801044464111328,120.7275390625,50.47607421875,56.33544921875
1.9436008930206299,-1268608942,0,0.9847288727760315,0.7243008017539978,0.4830915629863739,14.09912109375,73.30322265625,-113.09814453125
1.9436097145080566,-1268608923,0,0.9263792634010315,0.6893886923789978,0.4916364848613739,12.51220703125,72.021484375,-107.11669921875
1.9455957412719727,-1268608925,1,0.2811320424079895,0.8454377055168152,0.8797626495361328,147.27783203125,53.8330078125,36.19384765625
1.9682269096374512,-1268608904,0,0.9183226227760315,0.6237148642539978,0.5353376865386963,14.16015625,76.47705078125,-111.328125
1.9812939167022705,-1268608885,0,0.8065062165260315,0.6124843955039978,0.4996931254863739,6.04248046875,76.96533203125,-105.52978515625
1.983788013458252,-1268608906,1,0.1387980580329895,0.6481720805168152,0.8780536651611328,191.7724609375,49.9267578125,32.5927734375
1.983794927597046,-1268608887,1,0.1832316517829895,0.6303498148918152,0.7188739776611328,205.322265625,22.76611328125,25.5126953125
2.004578113555908,-1268608851,1,0.2777140736579895,0.6530548930168152,0.6055927276611328,203.06396484375,44.73876953125,4.2724609375
2.057184934616089,-1268608849,0,0.7874632477760315,0.5927090048789978,0.4442732036113739,8.48388671875,68.4814453125,-106.689453125
2.058403730392456,-1268608830,0,0.6495237946510315,0.5890468955039978,0.4186384379863739,5.0048828125,74.462890625,-117.7978515625
2.058488130569458,-1268608811,0,0.5191527009010315,0.6188320517539978,0.4144880473613739,-5.92041015625,79.40673828125,-123.59619140625
2.0595319271087646,-1268608792,0,0.4478636682033539,0.5429043173789978,0.3746931254863739,-15.869140625,64.39208984375,-102.5390625
2.066251039505005,-1268608832,1,0.2806437611579895,0.6943146586418152,0.6016864776611328,195.86181640625,63.1103515625,-13.12255859375
2.0663397312164307,-1268608813,1,0.2432902455329895,0.6181427836418152,0.5186786651611328,189.3310546875,42.3583984375,-29.84619140625
2.066391944885254,-1268608794,1,0.2132609486579895,0.6027619242668152,0.4918231964111328,156.67724609375,20.44677734375,-54.443359375
2.088120698928833,-1268608773,0,0.4324828088283539,0.6061367392539978,0.3922712504863739,-19.04296875,71.1669921875,-91.12548828125
2.0979347229003906,-1268608775,1,0.1431925892829895,0.6886994242668152,0.5167255401611328,124.69482421875,6.9580078125,-44.61669921875
2.1318540573120117,-1268608754,0,0.3660765588283539,0.6085781455039978,0.4127790629863739,-21.240234375,61.58447265625,-72.509765625
2.131861925125122,-1268608735,0,0.3221312463283539,0.5433925986289978,0.3793317973613739,-25.08544921875,59.26513671875,-63.1103515625
2.1345038414001465,-1268608756,1,0.0694621205329895,0.5192658305168152,0.3699970245361328,84.41162109375,-9.58251953125,-38.51318359375
2.1345107555389404,-1268608737,1,0.0042765699326992035,0.4245392382144928,0.1395282745361328,49.1943359375,-7.01904296875,-20.01953125
2.1482059955596924,-1268608716,0,0.2061644345521927,0.5419277548789978,0.3595564067363739,-6.28662109375,69.2138671875,-48.76708984375
2.1556947231292725,-1268608718,1,0.1341593861579895,0.4001251757144928,0.01672554761171341,41.259765625,-10.498046875,-19.6533203125
2.184945821762085,-1268608697,0,0.10264880955219269,0.6117519736289978,0.3514997661113739,9.8876953125,67.0166015625,-35.94970703125
2.18664813041687,-1268608678,0,0.029894907027482986,0.7267422080039978,0.3571150004863739,21.17919921875,62.19482421875,-51.81884765625
2.187288999557495,-1268608699,1,0.1666300892829895,0.4460236132144928,0.01257515698671341,52.06298828125,5.2490234375,-43.212890625
2.187295913696289,-1268608680,1,0.1104777455329895,0.4824005663394928,0.03772164136171341,67.93212890625,13.3056640625,-77.94189453125
2.2082149982452393,-1268608659,0,-0.025036733597517014,0.7819179892539978,0.3937360942363739,17.51708984375,46.5087890625,-70.1904296875
2.215533971786499,-1268608661,1,0.0836222767829895,0.4755646288394928,0.0035419538617134094,65.85693359375,-2.38037109375,-87.70751953125
2.2156548500061035,-1268608642,1,0.054081257432699203,0.4933868944644928,-0.02746390551328659,60.11962890625,-26.611328125,-109.9853515625
2.238513946533203,-1268608640,0,0.007922250777482986,0.7846035361289978,0.4110700786113739,9.765625,22.705078125,-81.11572265625
2.2385218143463135,-1268608621,0,-0.0074586085975170135,0.7655605673789978,0.4435407817363739,12.87841796875,17.9443359375,-96.61865234375
2.2453927993774414,-1268608623,1,0.023807819932699203,0.5658966898918152,-0.08556937426328659,54.443359375,-49.13330078125,-141.4794921875
2.2689578533172607,-1268608585,0,-0.035290639847517014,0.6784023642539978,0.4296247661113739,20.44677734375,3.11279296875,-102.4169921875
2.2849059104919434,-1268608587,1,-0.1087605357170105,0.7385041117668152,-0.1473369598388672,8.544921875,-40.34423828125,-136.65771484375
2.2981669902801514,-1268608566,0,-0.047253530472517014,0.7421230673789978,0.3309919536113739,18.85986328125,2.62451171875,-86.24267578125
2.3053739070892334,-1268608568,1,-0.1458699107170105,0.7460724711418152,-0.10680960863828659,-17.76123046875,-15.31982421875,-119.384765625
2.3356518745422363,-1268608547,0,-0.016247671097517014,0.7721523642539978,0.3434431254863739,9.46044921875,4.0283203125,-71.10595703125
2.335660934448242,-1268608528,0,0.022326547652482986,0.7079433798789978,0.4469587504863739,-1.5869140625,5.37109375,-57.55615234375
2.338129758834839,-1268608549,1,-0.2266804575920105,0.7626740336418152,-0.09826468676328659,-19.287109375,6.8359375,-108.09326171875
2.3381378650665283,-1268608530,1,-0.2047078013420105,0.7116486430168152,0.0006122663617134094,-5.79833984375,34.0576171875,-79.58984375
2.3585808277130127,-1268608509,0,0.039416391402482986,0.7130703330039978,0.3973982036113739,-5.126953125,5.92041015625,-41.9921875
2.365651845932007,-1268608511,1,-0.2674519419670105,0.6896759867668152,0.10608101636171341,12.20703125,45.7763671875,-78.857421875
2.365726947784424,-1268608492,1,-0.3006550669670105,0.7253205180168152,0.08166695386171341,21.1181640625,42.54150390625,-79.40673828125
2.388305902481079,-1268608490,0,0.049426157027482986,0.6825527548789978,0.3790876567363739,-5.43212890625,15.2587890625,-31.92138671875
2.3883979320526123,-1268608471,0,0.3992796838283539,0.6232265830039978,-0.1409318745136261,-7.2021484375,19.95849609375,-14.0380859375
2.3988778591156006,-1268608473,1,-1.0699422359466553,1.0317169427871704,0.10388375073671341,17.02880859375,44.49462890625,-40.0390625
2.4309608936309814,-1268608452,0,-0.10755626857280731,0.8322109580039978,-0.011781476438045502,-3.7841796875,18.310546875,33.3251953125
2.433487892150879,-1268608454,1,-0.5748249888420105,0.8024689555168152,-0.1544170379638672,-11.04736328125,58.53271484375,-21.3623046875
2.433495044708252,-1268608435,1,-0.3533894419670105,0.6059357523918152,-0.04308890551328659,-29.052734375,24.71923828125,24.96337890625
2.4483389854431152,-1268608433,0,-0.07655040919780731,0.7169765830039978,0.3512556254863739,-11.65771484375,20.5078125,22.88818359375
2.448438882827759,-1268608414,0,0.07750232517719269,0.7194179892539978,0.3859235942363739,-43.88427734375,-15.380859375,30.2734375
2.4554548263549805,-1268608416,1,-0.3057820200920105,0.6552521586418152,-0.05383109301328659,-17.2119140625,4.8828125,17.51708984375
2.486395835876465,-1268608395,0,0.2210570126771927,0.6305508017539978,0.3622419536113739,-48.03466796875,0.3662109375,53.955078125
2.486407995223999,-1268608376,0,0.1548949033021927,0.6449550986289978,0.3561384379863739,-39.24560546875,8.36181640625,72.509765625
2.488131046295166,-1268608397,1,-0.1917683482170105,0.7319123148918152,-0.06213187426328659,-33.87451171875,-7.32421875,44.37255859375
2.4881370067596436,-1268608378,1,-0.029658976942300797,0.6808869242668152,-0.07458304613828659,-62.31689453125,8.97216796875,56.396484375
2.508253812789917,-1268608357,0,0.12218005955219269,0.6073574423789978,0.3453962504863739,-26.91650390625,-1.28173828125,89.17236328125
2.51577091217041,-1268608359,1,0.0838664174079895,0.5368439555168152,-0.03307913988828659,-73.54736328125,31.73828125,54.99267578125
2.538969039916992,-1268608321,0,0.2757445275783539,0.8341640830039978,0.2391950786113739,-20.01953125,-39.1845703125,87.34130859375
2.5461249351501465,-1268608323,1,0.0045207105576992035,0.6186310648918152,0.1868915557861328,-69.82421875,12.451171875,3.23486328125
2.5723159313201904,-1268608302,0,0.3985472619533539,0.8480800986289978,0.2169782817363739,-57.373046875,-57.80029296875,85.3271484375
2.5898690223693848,-1268608304,1,-0.029658976942300797,0.7695099711418152,0.1373310089111328,-91.12548828125,2.74658203125,2.62451171875
2.5898780822753906,-1268608285,1,-0.020137492567300797,0.7702423930168152,0.10681343823671341,-112.36572265625,-10.25390625,27.16064453125
2.598249912261963,-1268608283,0,0.5767698884010315,0.7860683798789978,0.2033064067363739,-99.67041015625,-49.9267578125,109.55810546875
2.5983810424804688,-1268608264,0,0.5186644196510315,0.7267422080039978,0.2894880473613739,-129.638671875,-33.87451171875,138.00048828125
2.605604887008667,-1268608266,1,0.0928996205329895,0.7277619242668152,0.1700458526611328,-122.6806640625,-5.37109375,34.60693359375
2.635037899017334,-1268608245,0,0.5882444977760315,0.5336269736289978,0.3532087504863739,-149.169921875,-38.75732421875,157.65380859375
2.6365580558776855,-1268608226,0,0.6421995759010315,0.4176602065563202,0.4164411723613739,-132.9345703125,-54.50439453125,143.798828125
2.6371378898620605,-1268608247,1,0.1507609486579895,0.7321564555168152,0.3299579620361328,-139.16015625,11.16943359375,44.12841796875
2.6371450424194336,-1268608228,1,0.1068156361579895,0.7297150492668152,0.4986591339111328,-160.0341796875,7.080078125,44.25048828125
2.6583428382873535,-1268608207,0,0.8389769196510315,0.4030117690563202,0.5917341709136963,-103.45458984375,-73.486328125,109.7412109375
2.6658618450164795,-1268608209,1,0.2699015736579895,0.6462189555168152,0.5169696807861328,-188.232421875,25.7568359375,38.51318359375
2.688326835632324,-1268608188,0,0.8946409821510315,0.4362148940563202,0.7206404209136963,-97.0458984375,-66.10107421875,96.61865234375
2.6883487701416016,-1268608169,0,0.7635374665260315,0.4972500503063202,0.5665876865386963,-105.224609375,-80.6884765625,106.3232421875
2.695690870285034,-1268608190,1,0.2896769642829895,0.5800568461418152,0.6273212432861328,-177.6123046875,48.64501953125,32.2265625
2.695781946182251,-1268608171,1,0.5033000111579895,0.4448029100894928,0.9544696807861328,-181.15234375,34.66796875,-18.1884765625
2.7320828437805176,-1268608150,0,0.9500609040260315,0.238949254155159,0.5761091709136963,-112.3046875,-112.4267578125,119.7509765625
2.734736919403076,-1268608152,1,0.1295207142829895,0.5532013773918152,0.9469013214111328,-171.875,29.541015625,-29.60205078125
2.734744071960449,-1268608133,1,0.1568644642829895,0.5251252055168152,1.0579853057861328,-172.119140625,-15.2587890625,-26.611328125
2.7482388019561768,-1268608131,0,0.9979124665260315,0.3036465346813202,0.5934431552886963,-93.6279296875,-130.06591796875,117.00439453125
2.7483558654785156,-1268608112,0,1.0584594011306763,0.3156094253063202,0.6710798740386963,-82.03125,-151.611328125,105.5908203125
2.7554900646209717,-1268608114,1,0.016971882432699203,0.5141388773918152,1.1285419464111328,-162.841796875,-28.13720703125,-43.39599609375
2.7853918075561523,-1268608093,0,1.1746703386306763,0.3546719253063202,0.6693708896636963,-93.07861328125,-164.12353515625,99.609375
2.788074016571045,-1268608095,1,-0.0843464732170105,0.4809357225894928,1.2552509307861328,-165.10009765625,-29.72412109375,-49.560546875
2.8081719875335693,-1268608057,0,1.3087035417556763,0.3795742690563202,0.6771833896636963,-140.93017578125,-143.49365234375,116.39404296875
2.8155529499053955,-1268608059,1,-0.1321980357170105,0.4526154100894928,1.5115985870361328,-149.90234375,-64.27001953125,-102.35595703125
2.8395769596099854,-1268608038,0,1.3719359636306763,0.245296910405159,0.7443220615386963,-161.56005859375,-135.498046875,130.7373046875
2.839586019515991,-1268608019,0,1.4088011980056763,0.147396519780159,0.8969099521636963,-162.2314453125,-137.63427734375,133.6669921875
2.8455989360809326,-1268608040,1,-0.2012898325920105,0.4928986132144928,1.5892353057861328,-137.14599609375,-92.46826171875,-108.33740234375
2.845735788345337,-1268608021,1,-0.3426472544670105,0.4404083788394928,1.6153583526611328,-129.0283203125,-109.19189453125,-119.0185546875
2.878142833709717,-1268608000,0,1.3668090105056763,0.197201207280159,1.0387556552886963,-145.56884765625,-145.56884765625,119.44580078125
2.886178970336914,-1268608002,1,-0.5093953013420105,0.4672638475894928,1.6380634307861328,-111.51123046875,-121.9482421875,-163.57421875
2.886185884475708,-1268607983,1,-0.6802937388420105,0.4455353319644928,1.7076435089111328,-70.9228515625,-134.46044921875,-203.4912109375
2.898345947265625,-1268607981,0,1.4622679948806763,0.231625035405159,1.1041853427886963,-124.51171875,-146.484375,86.3037109375
2.898409843444824,-1268607962,0,1.3782836198806763,0.3800625503063202,1.2177107334136963,-118.896484375,-135.19287109375,50.6591796875
2.9054970741271973,-1268607964,1,-0.7474324107170105,0.5973908305168152,1.6710224151611328,-30.82275390625,-148.98681640625,-229.67529296875
2.93680477142334,-1268607943,0,1.4461547136306763,0.3275723159313202,1.1242048740386963,-118.22509765625,-118.71337890625,22.52197265625
2.93847393989563,-1268607945,1,-0.8250691294670105,0.6723420023918152,1.6815204620361328,-14.0380859375,-180.6640625,-228.3935546875
2.9384799003601074,-1268607926,1,-0.8773152232170105,0.6474396586418152,1.6502704620361328,7.75146484375,-210.63232421875,-199.64599609375
2.9581758975982666,-1268607924,0,1.3497191667556763,0.5153164267539978,1.1596052646636963,-114.31884765625,-94.3603515625,7.50732421875
2.9583029747009277,-1268607905,0,1.2855101823806763,0.7904629111289978,1.1688826084136963,-128.72314453125,-49.560546875,-29.541015625
2.9657280445098877,-1268607907,1,-1.0770223140716553,0.6598908305168152,1.3761005401611328,-10.68115234375,-164.12353515625,-135.19287109375
2.988316774368286,-1268607886,0,1.0479613542556763,0.8356289267539978,1.2304060459136963,-134.033203125,-47.18017578125,-55.72509765625
2.988370895385742,-1268607867,0,1.0821410417556763,0.7328457236289978,1.2604353427886963,-125.244140625,-52.3681640625,-79.40673828125
2.995783805847168,-1268607888,1,-1.0555379390716553,0.5759064555168152,1.4740009307861328,60.1806640625,-180.23681640625,-163.6962890625
2.995896816253662,-1268607869,1,-0.9063679575920105,0.6769806742668152,1.4090595245361328,99.67041015625,-178.3447265625,-172.05810546875
3.0474398136138916,-1268607848,0,1.0845824480056763,0.4933438003063202,1.1644880771636963,-94.8486328125,-51.57470703125,-89.17236328125
3.0482170581817627,-1268607829,0,1.0359984636306763,0.5949062705039978,1.3756697177886963,-27.16064453125,-57.31201171875,-131.53076171875
3.0557329654693604,-1268607850,1,-1.2083699703216553,0.9028107523918152,1.2513446807861328,129.69970703125,-176.57470703125,-130.67626953125
3.0558409690856934,-1268607831,1,-1.0347859859466553,0.8476349711418152,0.9991474151611328,101.13525390625,-143.73779296875,-61.70654296875
3.1077449321746826,-1268607793,0,0.8902464509010315,0.9401211142539978,1.2218611240386963,-0.79345703125,-39.00146484375,-173.03466796875
3.108449935913086,-1268607774,0,1.0096312761306763,0.5358242392539978,1.1390974521636963,-14.83154296875,-50.72021484375,-211.0595703125
3.115954875946045,-1268607795,1,-0.7960163950920105,0.6718537211418152,1.1683368682861328,120.42236328125,-121.52099609375,4.0283203125
3.1160898208618164,-1268607776,1,-0.7540242075920105,0.8493439555168152,1.0609149932861328,119.81201171875,-135.25390625,10.07080078125
3.1162049770355225,-1268607757,1,-0.6607624888420105,0.5568634867668152,1.1448993682861328,113.4033203125,-108.7646484375,35.94970703125
3.116950035095215,-1268607738,1,-0.6119343638420105,0.5573517680168152,1.1304950714111328,159.48486328125,-50.10986328125,35.2783203125
3.1391549110412598,-1268607755,0,0.7508421540260315,0.6923183798789978,1.2252790927886963,1.8310546875,-27.7099609375,-214.17236328125
3.13916277885437,-1268607736,0,0.7628050446510315,0.5675625205039978,1.2123396396636963,7.9345703125,9.09423828125,-212.40234375
3.139166831970215,-1268607717,0,0.6487913727760315,0.4943203628063202,1.0575544834136963,33.99658203125,25.146484375,-228.759765625
3.1454877853393555,-1268607719,1,-0.4883992075920105,0.5480744242668152,1.1959247589111328,192.0166015625,-15.380859375,31.43310546875
3.168627977371216,-1268607698,0,0.6334105134010315,0.5001797080039978,0.9840681552886963,38.2080078125,27.77099609375,-241.51611328125
3.185746908187866,-1268607700,1,-0.4063679575920105,0.3310333788394928,1.0933856964111328,191.89453125,-0.9765625,32.470703125
3.18575382232666,-1268607681,1,-0.3651081919670105,0.4968048632144928,1.0845966339111328,212.5244140625,14.70947265625,25.634765625
3.198380947113037,-1268607679,0,0.5535765290260315,0.6110195517539978,0.9779646396636963,16.357421875,56.70166015625,-231.93359375
3.1984519958496094,-1268607660,0,0.5482054352760315,0.5321621298789978,1.0660994052886963,3.60107421875,67.87109375,-223.20556640625
3.205751895904541,-1268607662,1,-0.3897663950920105,0.5768830180168152,0.9722919464111328,239.68505859375,55.908203125,22.03369140625
3.236372947692871,-1268607641,0,0.6053343415260315,0.3937344253063202,1.0780622959136963,13.36669921875,87.0361328125,-237.36572265625
3.239445924758911,-1268607643,1,-0.3243367075920105,0.5468537211418152,0.9608173370361328,248.1689453125,87.5244140625,35.2783203125
3.239452838897705,-1268607624,1,-0.3914753794670105,0.5915314555168152,1.0186786651611328,234.31396484375,96.98486328125,70.9228515625
3.2581748962402344,-1268607622,0,0.6089964509010315,0.4476895034313202,1.1478865146636963,39.794921875,76.171875,-246.4599609375
3.258321762084961,-1268607603,0,0.6724730134010315,0.5109218955039978,1.1969587802886963,51.513671875,87.58544921875,-251.953125
3.2657759189605713,-1268607605,1,-0.3101765513420105,0.5473420023918152,0.9608173370361328,203.91845703125,90.576171875,109.06982421875
3.2882118225097656,-1268607584,0,0.5796995759010315,0.4630703628063202,1.0438826084136963,67.9931640625,100.4638671875,-226.1962890625
3.2883450984954834,-1268607565,0,0.5447874665260315,0.4960293471813202,0.9618513584136963,86.60888671875,98.5107421875,-204.1015625
3.2957518100738525,-1268607586,1,-0.2244831919670105,0.4743439257144928,0.9888935089111328,188.65966796875,65.97900390625,83.8623046875
3.2958457469940186,-1268607567,1,-0.1553913950920105,0.5544220805168152,0.8792743682861328,163.63525390625,81.787109375,97.47314453125
3.3328349590301514,-1268607531,1,-0.0775105357170105,0.5285431742668152,0.8277606964111328,204.65087890625,130.92041015625,98.44970703125
3.350526809692383,-1268607529,0,0.5601683259010315,0.4645352065563202,0.9254744052886963,85.38818359375,147.3388671875,-193.78662109375
3.350536823272705,-1268607510,0,0.5877562165260315,0.4550137221813202,0.9562361240386963,107.421875,162.841796875,-197.69287109375
3.355478048324585,-1268607512,1,0.028690632432699203,0.5319611430168152,0.8853778839111328,242.24853515625,150.81787109375,105.3466796875
3.3838629722595215,-1268607491,0,0.6658812165260315,0.5763515830039978,0.8209822177886963,127.38037109375,176.8798828125,-163.6962890625
3.385869026184082,-1268607493,1,0.0011027418076992035,0.6835724711418152,0.8443622589111328,237.79296875,142.7001953125,125.54931640625
3.385877847671509,-1268607474,1,0.030887898057699203,0.4584747850894928,0.7257099151611328,207.3974609375,137.0849609375,139.58740234375
3.408221960067749,-1268607472,0,0.7469359040260315,0.7748379111289978,0.8180525302886963,99.4873046875,201.66015625,-152.9541015625
3.4083478450775146,-1268607453,0,0.5999632477760315,0.247494176030159,0.9479353427886963,124.0234375,228.21044921875,-120.91064453125
3.4155778884887695,-1268607455,1,0.0694621205329895,0.5649201273918152,0.8531513214111328,191.71142578125,91.796875,172.9736328125
3.438271999359131,-1268607434,0,0.5181761384010315,0.161556676030159,0.9276716709136963,193.66455078125,223.2666015625,-103.8818359375
3.4413399696350098,-1268607415,0,0.4061156213283539,0.2575039565563202,0.6461775302886963,243.1640625,220.88623046875,-72.509765625
3.445611000061035,-1268607436,1,0.0767863392829895,0.3534943163394928,0.5614032745361328,191.89453125,80.99365234375,204.2236328125
3.4457528591156006,-1268607417,1,0.056766804307699203,0.2060333788394928,0.4547138214111328,160.7666015625,85.8154296875,209.28955078125
3.481847047805786,-1268607396,0,0.3870726525783539,0.239193394780159,0.5592634677886963,245.849609375,225.64697265625,-32.8369140625
3.484386920928955,-1268607398,1,0.1124308705329895,0.0822540819644928,0.3856220245361328,139.34326171875,103.271484375,213.43994140625
3.498332977294922,-1268607377,0,0.5840941071510315,0.146175816655159,0.4486677348613739,249.08447265625,241.943359375,-2.01416015625
3.4984047412872314,-1268607358,0,0.6841917634010315,0.130794957280159,0.2977888286113739,289.61181640625,260.3759765625,-1.40380859375
3.5055978298187256,-1268607379,1,0.1883586049079895,0.010720882564783096,0.4239521026611328,117.85888671875,124.3896484375,231.14013671875
3.5056567192077637,-1268607360,1,0.3919718861579895,-0.2290252149105072,0.3416767120361328,111.99951171875,143.4326171875,249.32861328125
3.5370519161224365,-1268607339,0,0.9427366852760315,0.2572598159313202,0.1593610942363739,314.453125,263.0615234375,-13.916015625
3.5387797355651855,-1268607341,1,0.6192668080329895,-0.7466033101081848,0.2413349151611328,106.0791015625,146.17919921875,218.81103515625
3.5387871265411377,-1268607322,1,0.6959269642829895,-0.5847380757331848,0.4217548370361328,106.62841796875,164.00146484375,180.23681640625
3.5587069988250732,-1268607320,0,0.7803831696510315,0.015316445380449295,-0.0537736639380455,286.0107421875,296.7529296875,-27.52685546875
3.5588269233703613,-1268607301,0,0.7505980134010315,0.082455113530159,-0.1873185932636261,291.748046875,272.03369140625,-13.61083984375
3.566398859024048,-1268607303,1,0.5697062611579895,-0.2790740430355072,0.4058856964111328,33.50830078125,121.826171875,189.453125
3.588164806365967,-1268607265,0,0.9241819977760315,-0.3110995590686798,-0.3145158588886261,265.0146484375,265.44189453125,-42.05322265625
3.595759868621826,-1268607267,1,0.8324015736579895,-0.6328337788581848,0.1263446807861328,84.28955078125,195.00732421875,26.79443359375
3.6331608295440674,-1268607246,0,0.7620726227760315,-0.3865390121936798,-0.5159318447113037,280.76171875,301.45263671875,15.380859375
3.6351099014282227,-1268607248,1,0.8841593861579895,-0.2346404492855072,0.2403583526611328,78.67431640625,213.19580078125,-1.46484375
3.648331880569458,-1268607227,0,0.4261351525783539,-0.7156406044960022,-0.4734514057636261,316.0400390625,273.13232421875,73.73046875
3.648447036743164,-1268607208,0,0.5496702790260315,-0.7100253701210022,-0.5994279384613037,384.21630859375,186.21826171875,84.3505859375
3.655869960784912,-1268607229,1,0.9774211049079895,-0.2693084180355072,0.3065204620361328,12.51220703125,176.6357421875,22.5830078125
3.655958890914917,-1268607210,1,1.0318644046783447,-0.3274138867855072,0.2706317901611328,-36.19384765625,159.3017578125,39.9169921875
3.6860830783843994,-1268607189,0,0.6121702790260315,-0.7278476357460022,-0.5139787197113037,417.1142578125,180.5419921875,99.42626953125
3.6866507530212402,-1268607191,1,1.0870401859283447,-0.2016814649105072,0.2447528839111328,-57.43408203125,171.38671875,82.82470703125
3.6866579055786133,-1268607172,1,1.0052530765533447,-0.1469939649105072,0.2716083526611328,-76.47705078125,180.6640625,103.759765625
3.708655834197998,-1268607170,0,0.7828245759010315,-0.9583163857460022,-0.5674455165863037,439.8193359375,194.3359375,117.00439453125
3.708772897720337,-1268607151,0,0.9378538727760315,-0.8386874794960022,-0.7586076259613037,460.87646484375,179.50439453125,111.9384765625
3.7155158519744873,-1268607153,1,1.1229288578033447,0.040261898189783096,0.3663349151611328,-72.509765625,201.2939453125,114.2578125
3.7399449348449707,-1268607132,0,1.5628539323806763,-0.198306605219841,-1.1089494228363037,418.39599609375,182.18994140625,53.22265625
3.7456419467926025,-1268607134,1,1.0325968265533447,-0.2617400586605072,0.00012398511171340942,-108.7646484375,260.55908203125,136.5966796875
3.745785713195801,-1268607115,1,1.0201456546783447,-0.3645232617855072,0.5640888214111328,-80.87158203125,263.48876953125,138.5498046875
3.7683980464935303,-1268607113,0,1.3155394792556763,-0.6209140419960022,-0.8360002040863037,343.32275390625,145.81298828125,-7.9345703125
3.768543004989624,-1268607094,0,1.0799437761306763,-1.4610018730163574,-0.7910783290863037,347.0458984375,90.4541015625,-3.60107421875
3.787886142730713,-1268607096,1,1.2559854984283447,-0.0786345899105072,0.9735126495361328,-66.2841796875,253.90625,66.83349609375
3.798240900039673,-1268607075,0,1.0916625261306763,-1.1983065605163574,-0.8218400478363037,378.84521484375,48.33984375,18.310546875
3.7983298301696777,-1268607056,0,1.1578246355056763,-0.6643710732460022,-0.9805314540863037,344.8486328125,47.2412109375,-24.23095703125
3.8057327270507812,-1268607077,1,1.3077433109283447,0.3710724413394928,1.1214618682861328,-49.6826171875,201.84326171875,68.78662109375
3.8057949542999268,-1268607058,1,1.3917276859283447,0.2612091600894928,1.0423603057861328,-87.21923828125,144.53125,137.5732421875
3.837779998779297,-1268607037,0,0.9764280915260315,-0.5318027138710022,-0.9566056728363037,241.39404296875,66.34521484375,-88.80615234375
3.840052843093872,-1268607039,1,1.3958780765533447,0.1984650194644928,1.0103778839111328,-79.2236328125,108.7646484375,136.53564453125
3.8583648204803467,-1268607001,0,0.7894163727760315,-1.2923007011413574,-0.5381486415863037,185.72998046875,59.02099609375,-104.3701171875
3.8657329082489014,-1268607003,1,1.4627726078033447,0.3622833788394928,1.0416278839111328,-34.11865234375,60.791015625,123.53515625
3.8907968997955322,-1268606982,0,0.9317503571510315,-1.0540194511413574,-0.5928361415863037,191.650390625,55.0537109375,-87.40234375
3.895622968673706,-1268606984,1,1.5387003421783447,0.4733673632144928,1.0118427276611328,-11.41357421875,43.02978515625,133.6669921875
3.8957359790802,-1268606965,1,1.5931437015533447,0.4284454882144928,1.1724872589111328,10.009765625,50.10986328125,167.66357421875
3.934760808944702,-1268606963,0,1.2193480730056763,-0.8723788857460022,-0.5383927822113037,167.724609375,51.7578125,-95.703125
3.9347689151763916,-1268606944,0,1.2850219011306763,-0.9475741982460022,-0.4898088276386261,136.77978515625,62.80517578125,-111.6943359375
3.935797929763794,-1268606946,1,1.6241495609283447,0.3903595507144928,1.3670673370361328,74.27978515625,40.58837890625,192.81005859375
3.9483509063720703,-1268606925,0,1.3323851823806763,-0.9527011513710022,-0.4610002338886261,114.56298828125,45.59326171875,-138.73291015625
3.9484829902648926,-1268606906,0,1.2437621355056763,-0.7251620888710022,-1.1062638759613037,34.5458984375,19.1650390625,-170.2880859375
3.9559717178344727,-1268606927,1,1.5025675296783447,0.3027130663394928,1.3482685089111328,112.48779296875,13.61083984375,210.14404296875
3.956078052520752,-1268606908,1,1.0677530765533447,-0.010031070560216904,1.0040302276611328,93.505859375,-12.451171875,251.15966796875
3.9849069118499756,-1268606887,0,1.3602172136306763,-0.9685702919960022,-0.3338029682636261,29.541015625,-21.42333984375,-212.890625
3.987064838409424,-1268606889,1,1.0303995609283447,0.1738068163394928,1.2032489776611328,158.99658203125,-31.92138671875,227.96630859375
3.987071990966797,-1268606870,1,0.9471476674079895,0.1950470507144928,1.2166767120361328,188.4765625,3.41796875,214.9658203125
4.008339881896973,-1268606868,0,1.3821898698806763,-0.6170077919960022,-0.2630021870136261,59.75341796875,-17.15087890625,-259.033203125
4.008415937423706,-1268606849,0,1.0894652605056763,-0.236880823969841,-0.5986955165863037,21.91162109375,-16.29638671875,-292.96875
4.015491724014282,-1268606851,1,0.7896769642829895,0.2905060350894928,1.1536884307861328,191.0400390625,-12.5732421875,222.7783203125
4.042620897293091,-1268606830,0,1.1973754167556763,0.163753941655159,-0.4898088276386261,-15.44189453125,-100.15869140625,-385.07080078125
4.045673847198486,-1268606832,1,0.5992472767829895,0.2719513475894928,0.9864521026611328,108.88671875,24.658203125,249.6337890625
4.0458149909973145,-1268606813,1,0.4410441517829895,-0.5693572163581848,1.1812763214111328,131.28662109375,34.60693359375,222.22900390625
4.081012964248657,-1268606811,0,0.9556761384010315,-0.3482089340686798,-0.3428361713886261,-91.24755859375,-127.9296875,-331.60400390625
4.081019878387451,-1268606792,0,1.4752074480056763,0.069271519780159,-0.2263810932636261,-75.98876953125,-143.1884765625,-386.5966796875
4.083705902099609,-1268606794,1,0.6368449330329895,-0.6186736226081848,0.9740009307861328,207.8857421875,84.9609375,153.13720703125
4.09800386428833,-1268606773,0,1.4351683855056763,0.201107457280159,-0.2715471088886261,-142.88330078125,-98.388671875,-440.97900390625
4.105565786361694,-1268606775,1,0.4420207142829895,-0.6894744038581848,1.2227802276611328,269.53125,100.341796875,87.70751953125
4.138577938079834,-1268606737,0,0.8223753571510315,0.016048867255449295,-0.4216935932636261,-238.8916015625,-120.7275390625,-412.90283203125
4.141053915023804,-1268606739,1,0.7777140736579895,-0.9763396382331848,1.5159931182861328,249.32861328125,-122.00927734375,69.76318359375
4.158365964889526,-1268606718,0,0.8799925446510315,-0.3062167465686798,-0.0899064764380455,-223.7548828125,-176.57470703125,-366.39404296875
4.158506870269775,-1268606699,0,1.0208617448806763,-0.172671839594841,-0.0513322576880455,-198.66943359375,-183.04443359375,-310.60791015625
4.165604829788208,-1268606720,1,0.7064250111579895,-1.0129607915878296,1.3714618682861328,305.419921875,-192.0166015625,-4.39453125
4.165656089782715,-1268606701,1,0.8802531361579895,-0.9089568257331848,0.8709735870361328,422.119140625,-191.0400390625,-56.15234375
4.194933891296387,-1268606682,1,1.0782511234283447,-0.9399626851081848,0.5396747589111328,438.232421875,-145.44677734375,-141.357421875
4.195766925811768,-1268606663,1,0.9957316517829895,-0.7849333882331848,0.3714618682861328,387.5732421875,-128.47900390625,-182.92236328125
4.218287706375122,-1268606680,0,1.0901976823806763,0.001400429755449295,-0.0310685858130455,-190.12451171875,-175.4150390625,-283.02001953125
4.218400001525879,-1268606661,0,1.0572386980056763,0.163265660405159,-0.0508439764380455,-159.72900390625,-157.40966796875,-295.5322265625
4.232179880142212,-1268606642,0,1.7811156511306763,-0.3975253403186798,-0.5479142665863037,-181.82373046875,-154.4189453125,-117.61474609375
4.234126806259155,-1268606644,1,1.1104776859283447,-0.5988982319831848,-0.2059307098388672,384.70458984375,-126.953125,-288.02490234375
4.24813175201416,-1268606623,0,0.7457152009010315,0.070980504155159,-0.1780412495136261,-127.50244140625,-94.66552734375,-131.16455078125
4.2588958740234375,-1268606625,1,0.5084269642829895,0.014138851314783096,0.1451435089111328,212.58544921875,-58.28857421875,-197.08251953125
4.25890588760376,-1268606606,1,0.7957804799079895,-0.1816619336605072,0.2664813995361328,189.39208984375,-82.6416015625,-157.1044921875
4.286296129226685,-1268606604,0,0.4986449182033539,0.3165859878063202,-0.2622697651386261,-72.021484375,-178.1005859375,-161.31591796875
4.2863030433654785,-1268606585,0,0.7034788727760315,0.6722988486289978,-0.3809221088886261,-144.4091796875,-212.2802734375,-177.734375
4.287821054458618,-1268606587,1,0.9820597767829895,-0.2119353711605072,0.3255634307861328,185.4248046875,-73.91357421875,-199.951171875
4.308197736740112,-1268606566,0,0.8719359040260315,0.3153652846813202,0.0790388360619545,-205.56640625,-153.50341796875,-174.62158203125
4.308316946029663,-1268606547,0,0.7366819977760315,0.2902188003063202,0.1976911723613739,-223.5107421875,-73.2421875,-187.31689453125
4.315823793411255,-1268606568,1,0.7838175892829895,-0.051534976810216904,0.3306903839111328,187.1337890625,-72.3876953125,-240.66162109375
4.315929889678955,-1268606549,1,0.6524699330329895,0.030740413814783096,0.4630146026611328,161.92626953125,-43.701171875,-248.046875
4.3381218910217285,-1268606528,0,0.5496702790260315,0.3058438003063202,0.1398298442363739,-234.80224609375,-61.8896484375,-199.64599609375
4.345956802368164,-1268606530,1,0.7230265736579895,0.055642757564783096,0.6485614776611328,125.54931640625,-74.27978515625,-266.66259765625
4.346076965332031,-1268606511,1,0.6129191517829895,0.1513458788394928,0.7271747589111328,101.07421875,-107.23876953125,-261.8408203125
4.3681206703186035,-1268606509,0,0.5621214509010315,0.3283047378063202,-0.1057756170630455,-219.05517578125,-99.67041015625,-184.5703125
4.397061824798584,-1268606473,0,0.5975218415260315,0.4410977065563202,0.0651228204369545,-252.9296875,-159.423828125,-150.20751953125
4.406029939651489,-1268606475,1,0.5108683705329895,-0.1423552930355072,0.3511981964111328,13.0615234375,-206.787109375,-150.81787109375
4.4061009883880615,-1268606456,1,0.6143839955329895,-0.2094939649105072,0.3536396026611328,30.09033203125,-158.935546875,-187.8662109375
4.434935092926025,-1268606454,0,0.7020140290260315,0.2946133315563202,0.0961286798119545,-290.4052734375,-185.4248046875,-146.30126953125
4.434983968734741,-1268606435,0,0.6424437165260315,0.135677769780159,0.1273786723613739,-274.4140625,-191.5283203125,-125.8544921875
4.457618951797485,-1268606416,0,0.5037718415260315,0.031918007880449295,0.2177107036113739,-257.8125,-207.45849609375,-100.341796875
4.4584739208221436,-1268606397,0,0.4778929650783539,-0.091861292719841,0.4301130473613739,-253.90625,-227.5390625,-77.94189453125
4.465775728225708,-1268606437,1,0.4044230580329895,-0.1967986524105072,0.5972919464111328,28.80859375,-128.84521484375,-259.09423828125
4.465832948684692,-1268606418,1,0.2042277455329895,-0.1848357617855072,0.7259540557861328,19.8974609375,-154.35791015625,-313.5986328125
4.466777086257935,-1268606399,1,0.041385944932699203,-0.1921599805355072,0.8094501495361328,-1.46484375,-197.8759765625,-366.76025390625
4.490587949752808,-1268606378,0,0.4879027307033539,-0.235660120844841,0.6229841709136963,-262.451171875,-237.4267578125,-68.54248046875
4.495835781097412,-1268606380,1,-0.0692097544670105,-0.1421111524105072,0.8587665557861328,-17.88330078125,-228.08837890625,-398.5595703125
4.495950698852539,-1268606361,1,-0.2310749888420105,-0.1274627149105072,0.9268817901611328,-39.24560546875,-250.48828125,-404.23583984375
4.533109903335571,-1268606359,0,0.3511839807033539,-0.4624667465686798,0.9096052646636963,-270.8740234375,-246.58203125,-47.18017578125
4.533116817474365,-1268606340,0,0.2249632626771927,-0.5742831826210022,1.2328474521636963,-249.08447265625,-267.9443359375,-24.90234375
4.534941911697388,-1268606342,1,-0.4686238169670105,-0.1779998242855072,1.0535907745361328,-44.677734375,-250.48828125,-409.66796875
4.548196792602539,-1268606321,0,0.3394652307033539,-0.2800936996936798,1.3512556552886963,-205.01708984375,-292.48046875,-22.52197265625
4.555759906768799,-1268606323,1,-0.8319050669670105,-0.1714080274105072,1.1226825714111328,-38.26904296875,-255.126953125,-417.96875
4.555864095687866,-1268606304,1,-0.8936726450920105,-0.2253631055355072,1.1827411651611328,-46.2646484375,-280.94482421875,-415.8935546875
4.586185932159424,-1268606302,0,0.5330687165260315,-0.096499964594841,1.5541365146636963,-189.75830078125,-327.880859375,-20.263671875
4.586197853088379,-1268606283,0,0.7420530915260315,0.019222695380449295,1.8021833896636963,-172.36328125,-327.57568359375,18.12744140625
4.586724758148193,-1268606285,1,-1.0435750484466553,-0.2685759961605072,1.2520771026611328,-42.724609375,-268.98193359375,-429.26025390625
4.60870099067688,-1268606264,0,0.7908812165260315,0.090755894780159,1.8810408115386963,-152.03857421875,-290.1611328125,60.791015625
4.608814716339111,-1268606245,0,0.9893675446510315,0.231869176030159,2.2228376865386963,-149.2919921875,-191.83349609375,64.02587890625
4.615670919418335,-1268606266,1,-1.2611043453216553,-0.1784881055355072,1.4305438995361328,-15.19775390625,-263.85498046875,-416.015625
4.615816831588745,-1268606247,1,-1.4056355953216553,-0.1347869336605072,1.5355243682861328,36.7431640625,-248.9013671875,-389.58740234375
4.667529821395874,-1268606209,0,0.5455198884010315,0.5502285361289978,2.2064802646636963,-149.658203125,-103.33251953125,52.734375
4.6798529624938965,-1268606190,0,0.4100218713283539,0.7113613486289978,2.0744001865386963,-145.5078125,-114.80712890625,6.7138671875
4.68157172203064,-1268606211,1,-2.1029012203216553,0.2111603319644928,1.9112567901611328,90.6982421875,-283.26416015625,-294.73876953125
4.681578874588013,-1268606192,1,-2.3050496578216553,0.4013458788394928,1.8319110870361328,111.328125,-371.52099609375,-205.810546875
4.698171854019165,-1268606171,0,0.6407347321510315,0.9176601767539978,2.1212751865386963,-126.8310546875,-91.00341796875,-68.42041015625
4.705593824386597,-1268606173,1,-2.2308309078216553,0.2028595507144928,1.3660907745361328,85.8154296875,-456.60400390625,-71.8994140625
4.705687999725342,-1268606154,1,-1.9883992671966553,0.031716976314783096,1.0589618682861328,65.12451171875,-411.7431640625,-38.02490234375
4.735332727432251,-1268606152,0,0.4761839807033539,0.8148769736289978,2.0263044834136963,-111.02294921875,-43.212890625,-90.27099609375
4.735345840454102,-1268606133,0,0.1392699033021927,0.7836269736289978,1.8143904209136963,-103.1494140625,-15.93017578125,-70.556640625
4.737549066543579,-1268606135,1,-1.7838094234466553,0.0937286913394928,0.9989032745361328,94.6044921875,-291.93115234375,-49.560546875
4.758455038070679,-1268606114,0,-0.028698842972517014,0.6361660361289978,1.6054060459136963,-96.00830078125,-13.97705078125,-82.8857421875
4.7586259841918945,-1268606095,0,-0.1558961123228073,0.6989101767539978,1.4406111240386963,-79.833984375,-37.17041015625,-109.86328125
4.765620946884155,-1268606116,1,-1.5911824703216553,0.1594025194644928,1.0042743682861328,113.22021484375,-231.5673828125,-47.9736328125
4.7657270431518555,-1268606097,1,-1.2759969234466553,0.1520783007144928,0.9173603057861328,107.60498046875,-192.68798828125,-28.80859375
4.789286851882935,-1268606076,0,-0.2017945498228073,0.6747402548789978,1.4684431552886963,-72.57080078125,-75.62255859375,-113.22021484375
4.795577764511108,-1268606078,1,-0.8873249888420105,0.013162288814783096,0.8936786651611328,104.18701171875,-157.5927734375,-36.68212890625
4.821769952774048,-1268606057,0,0.037707407027482986,0.6854824423789978,1.2958357334136963,-71.83837890625,-88.31787109375,-107.97119140625
4.8217809200286865,-1268606038,0,0.1827269345521927,0.5558437705039978,1.1803572177886963,-76.5380859375,-56.09130859375,-163.2080078125
4.836929082870483,-1268606059,1,-0.8944050669670105,0.2736603319644928,1.0653095245361328,90.4541015625,-167.3583984375,-21.05712890625
4.836935997009277,-1268606040,1,-1.2950398921966553,0.5947052836418152,1.1229267120361328,65.24658203125,-195.6787109375,53.89404296875
4.848160982131958,-1268606019,0,-0.2393922060728073,0.9413418173789978,1.0543806552886963,-75.98876953125,-93.68896484375,-172.119140625
4.855568885803223,-1268606021,1,-0.4334675669670105,-0.3369353711605072,0.7357196807861328,60.24169921875,-138.0615234375,70.37353515625
4.855586051940918,-1268606002,1,-0.8831745982170105,0.7101837992668152,1.3714618682861328,79.9560546875,-105.712890625,28.25927734375
4.885484933853149,-1268606000,0,0.1258421689271927,0.008968789130449295,1.3949568271636963,-54.50439453125,-107.97119140625,-121.58203125
4.885495901107788,-1268605981,0,0.1590452939271927,0.106625035405159,1.5502302646636963,31.55517578125,-84.65576171875,-138.36669921875
4.887948036193848,-1268605983,1,-0.9717976450920105,0.8986603617668152,1.2017841339111328,62.01171875,-75.3173828125,112.97607421875
4.9080047607421875,-1268605945,0,0.06431873142719269,-0.038638632744550705,1.4020369052886963,0.0,-34.66796875,-93.1396484375
4.915544033050537,-1268605947,1,-0.8677937388420105,0.7782990336418152,0.9044208526611328,69.88525390625,42.48046875,43.212890625
4.9380269050598145,-1268605926,0,0.3853636682033539,-0.5305820107460022,1.7973005771636963,79.833984375,-32.89794921875,-143.1884765625
4.945544004440308,-1268605928,1,-0.5667683482170105,0.4023224413394928,1.6641864776611328,142.15087890625,14.6484375,114.8681640625
4.968241930007935,-1268605907,0,0.6046019196510315,1.2042813301086426,1.0324079990386963,227.84423828125,-23.86474609375,-183.89892578125
4.968353986740112,-1268605888,0,0.3567992150783539,-0.3672519028186798,1.8973982334136963,73.8525390625,68.78662109375,-179.931640625
4.9839558601379395,-1268605909,1,-0.4007527232170105,0.2062775194644928,1.7965106964111328,165.283203125,-61.767578125,137.51220703125
4.983963966369629,-1268605890,1,-0.3443562388420105,0.0995880663394928,0.9754657745361328,122.98583984375,-94.78759765625,153.1982421875
4.998086929321289,-1268605869,0,-0.021130483597517014,-0.184634730219841,1.2677595615386963,176.513671875,-21.1181640625,-126.0986328125
5.005735874176025,-1268605871,1,-0.5604206919670105,0.2753693163394928,1.1951923370361328,168.64013671875,-56.0302734375,168.02978515625
5.005843877792358,-1268605852,1,-0.6873738169670105,0.2814728319644928,1.1553974151611328,211.97509765625,-69.82421875,222.47314453125
5.034174919128418,-1268605850,0,0.08018787205219269,0.2680020034313202,1.3429548740386963,287.65869140625,-25.0244140625,-75.13427734375
5.034182786941528,-1268605831,0,0.3213988244533539,0.5702480673789978,1.0658552646636963,297.9736328125,25.93994140625,-68.90869140625
5.036381959915161,-1268605833,1,-0.4654499888420105,0.1425568163394928,0.9005146026611328,222.7783203125,-62.8662109375,247.13134765625
5.058250904083252,-1268605812,0,-0.07801525294780731,0.5067715048789978,0.9196150302886963,237.60986328125,75.74462890625,-37.65869140625
5.065680742263794,-1268605814,1,-0.5406453013420105,-0.2690642774105072,0.7794208526611328,210.87646484375,4.08935546875,214.9658203125
5.0658087730407715,-1268605795,1,-0.2513386607170105,-0.0761931836605072,0.7484149932861328,191.650390625,87.646484375,192.44384765625
5.089159965515137,-1268605793,0,0.1295042783021927,0.4745449721813202,1.0033552646636963,212.0361328125,46.7529296875,-27.40478515625
5.089167833328247,-1268605774,0,0.1763792783021927,0.7194179892539978,1.1295759677886963,222.2900390625,102.84423828125,-36.376953125
5.095844745635986,-1268605776,1,-0.3821980357170105,-0.1501677930355072,0.4097919464111328,134.3994140625,104.248046875,211.73095703125
5.1332738399505615,-1268605755,0,-0.08729259669780731,0.7098965048789978,0.8654158115386963,192.138671875,81.787109375,-7.568359375
5.1332831382751465,-1268605736,0,-0.043347280472517014,0.5014004111289978,1.0294783115386963,183.89892578125,54.38232421875,-69.82421875
5.136866092681885,-1268605757,1,0.2684367299079895,-0.4206756055355072,0.3228778839111328,191.162109375,206.97021484375,149.10888671875
5.136873960494995,-1268605738,1,0.1060832142829895,-0.1592009961605072,0.5958271026611328,164.12353515625,191.89453125,123.046875
5.148223876953125,-1268605717,0,0.059191782027482986,0.3749355971813202,1.1456892490386963,155.2734375,2.01416015625,-121.76513671875
5.155516862869263,-1268605719,1,0.1593058705329895,-0.1609099805355072,0.6304950714111328,143.5546875,187.80517578125,169.189453125
5.185942888259888,-1268605683,1,0.4481242299079895,-0.6340544819831848,0.5284442901611328,-7.75146484375,83.8623046875,275.5126953125
5.209804058074951,-1268605681,0,0.2557249963283539,-0.022769492119550705,1.3529646396636963,204.65087890625,-20.93505859375,-149.7802734375
5.2098119258880615,-1268605662,0,0.4127074182033539,-0.210757777094841,1.0180037021636963,266.7236328125,-55.11474609375,-178.77197265625
5.209816932678223,-1268605643,0,0.5950804352760315,-0.3286776840686798,0.9342634677886963,297.91259765625,-38.330078125,-133.72802734375
5.215598821640015,-1268605664,1,0.4381144642829895,-0.2876189649105072,0.5216083526611328,46.32568359375,130.2490234375,187.43896484375
5.215705871582031,-1268605645,1,0.3785441517829895,-0.1286834180355072,0.5267353057861328,40.6494140625,159.24072265625,152.89306640625
5.23860502243042,-1268605624,0,0.7628050446510315,-0.4236483871936798,0.8324568271636963,325.68359375,13.671875,-69.39697265625
5.267560958862305,-1268605605,0,0.8865843415260315,-0.5733066201210022,0.5214216709136963,385.009765625,87.58544921875,17.9443359375
5.279948949813843,-1268605586,0,0.8729124665260315,-0.7383456826210022,0.0848982110619545,460.9375,148.3154296875,104.248046875
5.281770944595337,-1268605626,1,0.3665812611579895,0.043435726314783096,0.5504169464111328,-0.9765625,175.78125,161.7431640625
5.2817769050598145,-1268605607,1,0.3502238392829895,0.1791779100894928,0.7718524932861328,-39.73388671875,183.9599609375,219.8486328125
5.281781911849976,-1268605588,1,0.5399211049079895,0.2209259569644928,0.9554462432861328,-55.11474609375,185.24169921875,277.77099609375
5.298127889633179,-1268605567,0,1.1028929948806763,-1.0130038261413574,-0.4517228901386261,542.6025390625,160.82763671875,205.50537109375
5.305543899536133,-1268605569,1,0.5780070424079895,0.2092072069644928,1.0682392120361328,-55.7861328125,182.55615234375,293.9453125
5.335495948791504,-1268605548,0,1.4598265886306763,-1.3882479667663574,-0.9060685634613037,602.6611328125,161.865234375,237.6708984375
5.336596965789795,-1268605529,0,1.6705199480056763,-1.5608553886413574,-1.4849259853363037,668.8232421875,144.83642578125,234.80224609375
5.338360786437988,-1268605550,1,0.6490519642829895,0.2277618944644928,1.1641864776611328,-58.7158203125,146.728515625,294.37255859375
5.338368892669678,-1268605531,1,0.8272746205329895,0.2604767382144928,1.1656513214111328,-52.79541015625,107.421875,298.583984375
5.35847282409668,-1268605510,0,1.7608519792556763,-1.4656405448913574,-1.7713029384613037,696.83837890625,72.08251953125,202.392578125
5.3660337924957275,-1268605512,1,0.9600871205329895,0.2626740038394928,1.1971454620361328,-52.3681640625,97.96142578125,298.4619140625
5.366111993789673,-1268605493,1,1.1202433109283447,0.3222443163394928,1.2286396026611328,-38.51318359375,96.00830078125,285.33935546875
5.389498710632324,-1268605491,0,1.9124633073806763,-0.4622226059436798,-2.0132462978363037,641.11328125,15.31982421875,82.33642578125
5.389507055282593,-1268605472,0,1.8377562761306763,0.045589882880449295,-1.7349259853363037,514.0380859375,28.74755859375,-80.6884765625
5.395569801330566,-1268605474,1,1.1138956546783447,0.1435333788394928,1.2706317901611328,-21.78955078125,80.078125,295.166015625
5.417997121810913,-1268605453,0,1.6592894792556763,-0.6167636513710022,-1.3067033290863037,309.2041015625,114.3798828125,-178.1005859375
5.435196876525879,-1268605455,1,1.2733194828033447,0.0907990038394928,1.1617450714111328,-22.39990234375,49.9267578125,279.60205078125
5.448176860809326,-1268605417,0,1.6390258073806763,-0.9922519326210022,-1.2085587978363037,261.962890625,188.78173828125,-247.802734375
5.455787897109985,-1268605419,1,1.5448038578033447,0.0942169725894928,1.1971454620361328,19.287109375,7.26318359375,213.07373046875
5.48741888999939,-1268605398,0,1.6067992448806763,-0.8374667763710022,-1.4265763759613037,189.27001953125,211.181640625,-289.9169921875
5.487426042556763,-1268605379,0,1.3931761980056763,-0.9763827919960022,-1.4519670009613037,127.99072265625,206.11572265625,-300.96435546875
5.489784002304077,-1268605400,1,1.4940226078033447,0.2099396288394928,1.0184345245361328,94.7265625,10.55908203125,182.4951171875
5.489789962768555,-1268605381,1,1.1502726078033447,0.4670197069644928,0.8001728057861328,87.95166015625,-6.9580078125,224.91455078125
5.507985830307007,-1268605360,0,1.3690062761306763,-0.8552890419960022,-1.5654923915863037,89.599609375,170.5322265625,-320.61767578125
5.515613794326782,-1268605362,1,0.9102824330329895,0.3991486132144928,0.8145771026611328,53.955078125,-39.6728515625,286.07177734375
5.515719890594482,-1268605343,1,0.9866984486579895,0.2045685350894928,0.7511005401611328,67.68798828125,-49.6826171875,315.0634765625
5.5381669998168945,-1268605341,0,1.4195433855056763,-0.8352695107460022,-1.6206681728363037,18.37158203125,166.44287109375,-324.951171875
5.538285970687866,-1268605322,0,1.1160765886306763,-0.8897128701210022,-1.6560685634613037,-44.25048828125,138.61083984375,-304.01611328125
5.545624017715454,-1268605324,1,0.9285929799079895,0.042215023189783096,0.6856708526611328,118.22509765625,6.103515625,290.1611328125
5.568140029907227,-1268605303,0,1.2379027605056763,-0.5554843544960022,-1.6970841884613037,-68.29833984375,72.3876953125,-320.3125
5.583971738815308,-1268605305,1,0.6312296986579895,0.0632111132144928,0.8272724151611328,155.70068359375,39.306640625,262.939453125
5.59946084022522,-1268605284,0,1.1368285417556763,-0.4390292465686798,-1.5530412197113037,-134.521484375,23.98681640625,-354.736328125
5.599470138549805,-1268605265,0,0.9891234040260315,-0.4876132309436798,-1.3064591884613037,-186.82861328125,-4.94384765625,-362.12158203125
5.605670928955078,-1268605286,1,0.6207316517829895,-0.2331756055355072,0.9783954620361328,143.5546875,51.81884765625,272.39990234375
5.605742692947388,-1268605267,1,0.6053507924079895,-0.5886443257331848,1.1226825714111328,134.33837890625,16.7236328125,238.22021484375
5.635861873626709,-1268605246,0,0.5357542634010315,-0.6550937294960022,-0.8806779384613037,-160.888671875,-56.5185546875,-359.80224609375
5.635918140411377,-1268605227,0,0.2825804650783539,-0.5071445107460022,-0.6382462978363037,-90.8203125,-119.5068359375,-370.9716796875
5.636425971984863,-1268605248,1,0.8607218861579895,-0.6867888569831848,1.1522235870361328,172.4853515625,7.99560546875,205.62744140625
5.636432886123657,-1268605229,1,0.2015421986579895,-0.3869841992855072,0.8646259307861328,161.7431640625,0.42724609375,188.53759765625
5.6584389209747314,-1268605208,0,0.3458128869533539,0.225521519780159,-0.7859513759613037,-120.78857421875,-151.123046875,-373.96240234375
5.717489957809448,-1268605189,0,0.2772093713283539,-0.059634726494550705,-0.6091935634613037,-185.05859375,-145.69091796875,-373.53515625
5.7185070514678955,-1268605153,0,-0.3214234411716461,-0.7512851357460022,-0.4463517963886261,-234.0087890625,-201.66015625,-331.54296875
5.7186439037323,-1268605134,0,-0.4478882849216461,-0.9592929482460022,-0.0454728826880455,-119.140625,-249.755859375,-303.52783203125
5.732311010360718,-1268605210,1,0.7283976674079895,-0.9851287007331848,1.0198993682861328,179.5654296875,-35.94970703125,111.38916015625
5.732317924499512,-1268605191,1,0.7313273549079895,-0.9192107319831848,1.0335712432861328,226.98974609375,-16.41845703125,-40.8935546875
5.748172044754028,-1268605115,0,-0.3797730505466461,-0.8696933388710022,0.1703474223613739,-41.32080078125,-257.8125,-250.91552734375
5.755687952041626,-1268605155,1,-0.008174601942300797,-0.1384490430355072,0.3631610870361328,100.09765625,-75.01220703125,-7.01904296875
5.7557806968688965,-1268605136,1,0.2574504017829895,-0.5363982319831848,0.11804390698671341,-0.48828125,-59.5703125,-75.8056640625
5.757059097290039,-1268605117,1,-0.0784870982170105,-0.3725799024105072,0.4420185089111328,17.578125,27.16064453125,-140.7470703125
5.789029836654663,-1268605096,0,-0.2074097841978073,-0.5923495888710022,0.3995954692363739,-34.7900390625,-196.77734375,-110.65673828125
5.789036989212036,-1268605077,0,0.10655505955219269,-0.3985019028186798,0.6195662021636963,-103.69873046875,-86.97509765625,36.62109375
5.791434049606323,-1268605098,1,-0.1485554575920105,-0.1965545117855072,0.6925067901611328,103.759765625,77.08740234375,-183.7158203125
5.791439771652222,-1268605079,1,-0.3526570200920105,0.1264435350894928,0.4657001495361328,187.56103515625,173.583984375,-229.6142578125
5.80815577507019,-1268605058,0,0.1839476376771927,-0.2981601059436798,0.7418806552886963,-180.11474609375,-24.0478515625,97.7783203125
5.815642833709717,-1268605060,1,-0.2354695200920105,0.3764435350894928,0.7677021026611328,149.7802734375,135.1318359375,-232.36083984375
5.8157958984375,-1268605041,1,-0.2025105357170105,0.1540314257144928,1.1173114776611328,-41.1376953125,64.3310546875,-156.982421875
5.838238954544067,-1268605039,0,0.2525511682033539,-0.2859530746936798,0.7702009677886963,-215.27099609375,-34.66796875,103.57666015625
5.838294982910156,-1268605020,0,0.5294066071510315,-0.3242831528186798,0.7489607334136963,-207.09228515625,-104.4921875,110.65673828125
5.845431089401245,-1268605022,1,-0.048946086317300797,-0.022726383060216904,1.3768329620361328,-178.5888671875,-51.08642578125,-111.572265625
5.868150949478149,-1268605001,0,0.8165159821510315,-0.242251917719841,0.7418806552886963,-157.04345703125,-166.68701171875,139.34326171875
5.884274959564209,-1268605003,1,0.059696491807699203,-0.053976383060216904,1.3746356964111328,-191.10107421875,-100.15869140625,-86.181640625
5.884282827377319,-1268604984,1,0.4129679799079895,-0.1008513867855072,1.1959247589111328,-137.87841796875,-90.27099609375,-70.00732421875
5.8982579708099365,-1268604982,0,1.0809203386306763,-0.103335902094841,0.6471540927886963,-108.45947265625,-182.7392578125,189.453125
5.898429870605469,-1268604963,0,1.4817992448806763,0.017025429755449295,0.4515974223613739,-50.29296875,-186.6455078125,293.3349609375
5.905480861663818,-1268604965,1,0.6466105580329895,-0.1711638867855072,1.3773212432861328,-117.98095703125,-32.470703125,-64.51416015625
5.934948921203613,-1268604944,0,2.0054807662963867,0.046810586005449295,0.2477400004863739,49.86572265625,-173.33984375,437.56103515625
5.937057971954346,-1268604925,0,2.3499631881713867,0.3046230971813202,0.0507185235619545,208.740234375,-114.990234375,505.55419921875
5.937582731246948,-1268604946,1,0.8084757924079895,0.0759064257144928,1.6136493682861328,-133.11767578125,-53.5888671875,-54.0771484375
5.937601089477539,-1268604927,1,1.0335733890533447,0.1965118944644928,1.6304950714111328,-116.51611328125,-93.994140625,-7.87353515625
5.96492600440979,-1268604891,1,1.3792765140533447,0.4430939257144928,1.1746845245361328,29.052734375,-73.486328125,14.09912109375
5.990354776382446,-1268604889,0,2.9158811569213867,0.5541347861289978,-0.5598771572113037,377.3193359375,65.673828125,561.46240234375
5.990363836288452,-1268604870,0,2.6890745162963867,0.7828945517539978,-0.6943986415863037,372.4365234375,126.953125,505.7373046875
5.9955949783325195,-1268604872,1,1.4078409671783447,0.7560822367668152,1.0784931182861328,76.47705078125,-17.822265625,-0.91552734375
6.0340399742126465,-1268604853,1,1.4791300296783447,1.1142364740371704,1.1146259307861328,131.591796875,13.3056640625,20.263671875
6.034049987792969,-1268604834,1,1.5633585453033447,1.1801544427871704,1.1719989776611328,175.9033203125,-6.8359375,49.74365234375
6.0482048988342285,-1268604851,0,2.4293088912963867,0.6725429892539978,-1.0217912197113037,312.1337890625,143.12744140625,371.64306640625
6.048269987106323,-1268604832,0,2.3287229537963867,0.8222011923789978,-1.2449357509613037,239.92919921875,136.04736328125,225.830078125
6.049408912658691,-1268604813,0,2.1556272506713867,0.7350429892539978,-1.1221330165863037,175.96435546875,139.83154296875,89.90478515625
6.055447101593018,-1268604815,1,1.5897257328033447,1.2375274896621704,1.1080341339111328,208.3740234375,-37.9638671875,48.64501953125
6.088146924972534,-1268604794,0,2.1702756881713867,0.4342617690563202,-0.8992326259613037,122.6806640625,166.259765625,2.8076171875
6.088153839111328,-1268604775,0,1.8763304948806763,0.3336758315563202,-0.6895158290863037,76.416015625,234.68017578125,-34.60693359375
6.090456962585449,-1268604796,1,1.7247354984283447,1.1052032709121704,0.9073505401611328,264.34326171875,-60.24169921875,42.724609375
6.090463876724243,-1268604777,1,2.0877726078033447,0.5759064555168152,0.2291278839111328,259.27734375,-17.27294921875,-11.16943359375
6.108121871948242,-1268604756,0,1.5557738542556763,0.3497891128063202,-0.5669572353363037,36.43798828125,260.7421875,-94.78759765625
6.117712736129761,-1268604758,1,1.5667765140533447,0.7067658305168152,-0.2640361785888672,187.6220703125,163.0859375,-85.51025390625
6.138309955596924,-1268604737,0,1.2454711198806763,0.237972691655159,-0.5405900478363037,29.35791015625,240.1123046875,-161.865234375
6.138416767120361,-1268604718,0,0.9761839509010315,0.222347691655159,-0.4783342182636261,15.68603515625,200.927734375,-182.92236328125
6.145601987838745,-1268604739,1,1.0706827640533447,0.1921173632144928,-0.4525127410888672,191.0400390625,239.07470703125,-79.4677734375
6.1456849575042725,-1268604720,1,0.6309855580329895,-0.1443084180355072,-0.5321025848388672,192.81005859375,248.779296875,-52.978515625
6.168110132217407,-1268604699,0,0.7823362946510315,0.2599453628063202,-0.4275529682636261,-5.06591796875,135.55908203125,-183.4716796875
6.184347867965698,-1268604701,1,0.7957804799079895,0.3176056444644928,-0.1541728973388672,146.728515625,97.59521484375,77.94189453125
6.184355735778809,-1268604682,1,1.1346476078033447,-0.2739470899105072,-0.04406546801328659,46.5087890625,-21.1181640625,222.47314453125
6.198599815368652,-1268604680,0,0.4979124963283539,0.2538418471813202,-0.0686662420630455,-32.28759765625,21.91162109375,-218.1396484375
6.198661804199219,-1268604661,0,0.06480701267719269,-0.198794886469841,-0.2466447651386261,-66.650390625,-23.25439453125,-83.984375
6.205572843551636,-1268604663,1,1.4456827640533447,-1.0049041509628296,-0.03185843676328659,83.251953125,17.08984375,203.67431640625
6.236818790435791,-1268604627,1,0.8778117299079895,-0.8952849507331848,0.9459247589111328,307.7392578125,229.6142578125,30.76171875
6.25830078125,-1268604625,0,0.5440550446510315,0.133724644780159,0.0375349298119545,-69.4580078125,-76.7822265625,-166.32080078125
6.258415937423706,-1268604606,0,0.2652464807033539,-0.2610507309436798,0.2304060161113739,-14.5263671875,-110.595703125,-131.04248046875
6.265796899795532,-1268604608,1,0.7652629017829895,-1.1826385259628296,1.0848407745361328,349.609375,150.93994140625,39.00146484375
6.290641784667969,-1268604587,0,0.3585081994533539,-0.064029261469841,0.2926618754863739,82.8857421875,-178.22265625,-141.357421875
6.290650844573975,-1268604568,0,0.5057249665260315,0.070248082280159,0.3129255473613739,99.609375,-205.4443359375,-135.31494140625
6.295913934707642,-1268604589,1,1.1514933109283447,-2.77419114112854,1.6717548370361328,377.5634765625,115.78369140625,-104.67529296875
6.296132802963257,-1268604570,1,-2.1155965328216553,0.058572445064783096,-0.2947978973388672,241.5771484375,119.0185546875,-28.80859375
6.318159818649292,-1268604549,0,0.6617308259010315,0.236996129155159,0.4293806254863739,85.99853515625,-174.25537109375,-105.16357421875
6.3339760303497314,-1268604551,1,1.2020304203033447,-1.6272186040878296,2.423952102661133,29.1748046875,18.00537109375,18.73779296875
6.333983898162842,-1268604532,1,-0.2252156138420105,-1.4619354009628296,2.147340774536133,210.5712890625,-22.0947265625,-255.2490234375
6.348188877105713,-1268604530,0,0.9009886384010315,0.4813809096813202,0.3268415629863739,31.3720703125,-121.9482421875,-119.68994140625
6.348288059234619,-1268604511,0,1.1519652605056763,0.5094570517539978,0.2531110942363739,-20.751953125,-70.3125,-162.53662109375
6.355853080749512,-1268604513,1,-0.7764851450920105,-1.0608123540878296,2.141725540161133,274.84130859375,-61.46240234375,-389.58740234375
6.38692307472229,-1268604492,0,1.1722289323806763,0.4423184096813202,0.0961286798119545,-32.8369140625,-25.69580078125,-193.66455078125
6.387373924255371,-1268604494,1,-1.2703816890716553,-0.7905486226081848,2.349245071411133,244.140625,-146.97265625,-375.79345703125
6.3873820304870605,-1268604475,1,-1.5970418453216553,-0.8569548726081848,2.292116165161133,239.6240234375,-270.20263671875,-401.4892578125
6.408524036407471,-1268604473,0,1.1114379167556763,0.6102871298789978,-0.1663224995136261,-33.75244140625,-8.30078125,-214.78271484375
6.408628940582275,-1268604454,0,0.9996214509010315,0.9088711142539978,-0.4590471088886261,-62.744140625,-32.2265625,-243.408203125
6.415413856506348,-1268604456,1,-2.1124227046966553,-0.9045622944831848,2.171754837036133,266.7236328125,-339.35546875,-452.2705078125
6.441178798675537,-1268604435,0,1.0020629167556763,0.9752773642539978,-0.5574357509613037,-124.81689453125,-70.9228515625,-268.4326171875
6.441187858581543,-1268604416,0,1.3150511980056763,0.6766933798789978,-0.5745255947113037,-176.69677734375,-108.82568359375,-221.74072265625
6.445729970932007,-1268604437,1,-2.6466023921966553,-0.9634001851081848,1.9818134307861328,336.60888671875,-388.671875,-519.10400390625
6.445785760879517,-1268604418,1,-3.2657430171966553,-1.1169646978378296,1.7552509307861328,421.2646484375,-400.20751953125,-525.69580078125
6.48186182975769,-1268604397,0,1.2969847917556763,0.5966152548789978,-0.4324357807636261,-197.75390625,-23.193359375,-152.28271484375
6.484623908996582,-1268604399,1,-3.9576375484466553,-1.4936736822128296,1.3778095245361328,488.09814453125,-436.1572265625,-542.05322265625
6.498210906982422,-1268604361,0,0.8409300446510315,1.1256680488586426,-0.9199845790863037,-299.74365234375,179.8095703125,14.5263671875
6.507552862167358,-1268604363,1,-4.096309185028076,-2.63844895362854,0.4625263214111328,587.0361328125,-479.18701171875,-603.82080078125
6.535260915756226,-1268604342,0,0.6563597321510315,1.5048184394836426,-1.1941545009613037,-422.54638671875,136.8408203125,52.6123046875
6.537401914596558,-1268604344,1,-4.252315044403076,-3.13283371925354,0.02282906323671341,630.0048828125,-463.68408203125,-692.7490234375
6.537420034408569,-1268604325,1,-3.9876668453216553,-3.18630051612854,-0.10778617113828659,655.45654296875,-394.53125,-711.60888671875
6.558719873428345,-1268604323,0,0.8235960602760315,1.4235196113586426,-1.1785295009613037,-463.5009765625,-34.423828125,-20.32470703125
6.558742046356201,-1268604304,0,1.1795531511306763,1.0829434394836426,-0.9627091884613037,-481.3232421875,-119.62890625,-80.50537109375
6.565776824951172,-1268604306,1,-3.5609090328216553,-3.18190598487854,-0.5994853973388672,765.93017578125,-231.4453125,-587.46337890625
6.588248014450073,-1268604285,0,1.6505004167556763,0.9188808798789978,-0.6604630947113037,-475.40283203125,-190.49072265625,-156.3720703125
6.588334083557129,-1268604266,0,2.0118284225463867,0.8993496298789978,-0.3589494526386261,-504.2724609375,-203.91845703125,-202.20947265625
6.596127033233643,-1268604287,1,-3.8341023921966553,-2.64772629737854,-0.9344463348388672,782.16552734375,-76.0498046875,-541.44287109375
6.5961878299713135,-1268604268,1,-3.2244832515716553,-1.3845428228378296,-0.8409404754638672,543.3349609375,2.74658203125,-468.32275390625
6.618061065673828,-1268604247,0,2.2108030319213867,0.7606777548789978,-0.1008928045630455,-519.8974609375,-224.54833984375,-303.03955078125
6.633924722671509,-1268604249,1,-1.7611043453216553,-2.03127121925354,-2.375852584838867,183.349609375,291.07666015625,-120.66650390625
6.64825177192688,-1268604228,0,1.9117308855056763,0.4020352065563202,0.3534528911113739,-524.35302734375,-307.31201171875,-397.4609375
6.648379802703857,-1268604209,0,2.3289670944213867,-0.055240195244550705,0.3436872661113739,-537.2314453125,-167.41943359375,-359.55810546875
6.655805826187134,-1268604230,1,-2.8519246578216553,-1.4370330572128296,1.0946063995361328,201.66015625,500.3662109375,-93.6279296875
6.65591287612915,-1268604211,1,-0.047969523817300797,-3.50832200050354,0.8011493682861328,11.16943359375,346.13037109375,44.5556640625
6.689399003982544,-1268604190,0,1.2178832292556763,-0.9651523232460022,-0.5266740322113037,-576.5380859375,6.65283203125,-362.36572265625
6.691150903701782,-1268604192,1,-0.3851277232170105,-0.1535857617855072,1.5072040557861328,142.333984375,123.35205078125,207.58056640625
6.691158056259155,-1268604173,1,-0.5611531138420105,-0.7549040913581848,0.2559833526611328,125.732421875,57.31201171875,352.5390625
6.7085230350494385,-1268604171,0,1.0755492448806763,-1.5186190605163574,-0.013246320188045502,-433.04443359375,-98.81591796875,-411.2548828125
6.708662986755371,-1268604152,0,0.8035765290260315,-1.9807772636413574,0.5756208896636963,-273.98681640625,-136.3525390625,-461.5478515625
6.715406894683838,-1268604154,1,-0.3839070200920105,-1.0034393072128296,-0.3753643035888672,138.97705078125,152.4658203125,377.13623046875
6.740195035934448,-1268604133,0,0.6363402009010315,-1.8806796073913574,1.0465681552886963,-75.0732421875,-160.15625,-436.58447265625
6.76740288734436,-1268604097,0,0.6199827790260315,-0.9563632607460022,1.4816267490386963,97.47314453125,-147.88818359375,-298.828125
6.783766984939575,-1268604135,1,-0.3934285044670105,-0.9763396382331848,-0.4290752410888672,113.22021484375,271.17919921875,287.109375
6.783780813217163,-1268604099,1,-0.1710163950920105,-0.3447478711605072,-0.4691143035888672,54.87060546875,314.14794921875,297.607421875
6.783785820007324,-1268604080,1,-0.037227336317300797,-0.2827361524105072,-0.6075420379638672,-7.87353515625,282.71484375,366.88232421875
6.798330783843994,-1268604078,0,0.5272093415260315,-0.8015781044960022,1.1705915927886963,24.7802734375,-138.85498046875,-216.064453125
6.7984349727630615,-1268604059,0,0.6685667634010315,-0.5696445107460022,1.3610212802886963,27.28271484375,-160.5224609375,-155.76171875
6.805449962615967,-1268604061,1,-0.1119343638420105,-0.2785857617855072,-0.5506572723388672,-39.0625,269.34814453125,446.77734375
6.835538864135742,-1268604040,0,0.6385374665260315,-0.5972324013710022,1.3915388584136963,85.44921875,-157.40966796875,-128.72314453125
6.837759971618652,-1268604042,1,-0.1585652232170105,-0.8362029194831848,-0.10754203051328659,-156.31103515625,256.28662109375,513.36669921875
6.837767839431763,-1268604023,1,0.1507609486579895,-0.9243376851081848,0.006227500736713409,-237.4267578125,242.61474609375,461.24267578125
6.858189105987549,-1268604021,0,0.5728636384010315,-0.4016757309436798,0.9098494052886963,170.5322265625,-159.97314453125,-75.37841796875
6.858325958251953,-1268604002,0,0.3978148400783539,-0.2815585434436798,0.6373884677886963,187.3779296875,-157.89794921875,24.84130859375
6.8658287525177,-1268604004,1,0.0755656361579895,-0.7307341694831848,0.2159442901611328,-264.6484375,248.71826171875,424.49951171875
6.8881049156188965,-1268603983,0,0.3238402307033539,-0.177554652094841,0.4259626567363739,146.6064453125,-134.033203125,103.45458984375
6.896972894668579,-1268603985,1,-0.053340617567300797,-0.6352751851081848,0.5928974151611328,-295.10498046875,218.1396484375,347.22900390625
6.896984100341797,-1268603966,1,0.1148722767829895,-0.5915740132331848,0.7049579620361328,-307.80029296875,159.423828125,226.37939453125
6.934043884277344,-1268603947,1,0.055790241807699203,-0.3899138867855072,0.9244403839111328,-270.1416015625,151.55029296875,83.1298828125
6.94858193397522,-1268603964,0,0.4791136682033539,-0.143619105219841,0.2411482036113739,64.27001953125,-104.736328125,207.70263671875
6.948715925216675,-1268603945,0,0.7359495759010315,-0.2861972153186798,0.3204939067363739,-23.49853515625,-57.373046875,290.1611328125
6.948794841766357,-1268603926,0,0.9156370759010315,-0.248111292719841,0.4303571879863739,-64.453125,-1.28173828125,332.94677734375
6.949338912963867,-1268603907,0,1.0818969011306763,-0.165835902094841,0.4645368754863739,-77.63671875,24.658203125,337.34130859375
6.95604681968689,-1268603928,1,-0.0914265513420105,-0.1980193555355072,1.1441669464111328,-231.14013671875,137.8173828125,-38.02490234375
6.956141948699951,-1268603909,1,-0.2415730357170105,-0.057638492435216904,1.3006610870361328,-216.6748046875,98.876953125,-121.9482421875
6.985838890075684,-1268603888,0,1.2249633073806763,-0.117984339594841,0.5621931552886963,-95.3369140625,42.3583984375,354.4921875
6.987932920455933,-1268603890,1,-0.5157429575920105,0.1559845507144928,1.5196552276611328,-230.5908203125,7.62939453125,-204.04052734375
6.9884138107299805,-1268603871,1,-0.9605671763420105,0.2211700975894928,1.6077899932861328,-274.169921875,-83.3740234375,-271.66748046875
7.039536952972412,-1268603869,0,1.5848265886306763,0.206722691655159,0.7538435459136963,-121.7041015625,42.48046875,345.8251953125
7.039978981018066,-1268603833,0,2.0003538131713867,0.168392613530159,1.5890486240386963,-149.23095703125,68.17626953125,211.9140625
7.039986848831177,-1268603814,0,1.9376097917556763,0.044613320380449295,1.8192732334136963,-50.96435546875,88.19580078125,149.5361328125
7.045499801635742,-1268603835,1,-1.6651570796966553,0.7678009867668152,1.7005634307861328,-223.2666015625,-153.86962890625,-369.93408203125
7.045619964599609,-1268603816,1,-1.8839070796966553,1.0060821771621704,1.4366474151611328,-105.16357421875,-138.73291015625,-357.5439453125
7.07056188583374,-1268603795,0,2.0543088912963867,0.4474453628063202,1.8463728427886963,29.96826171875,96.74072265625,103.94287109375
7.085775852203369,-1268603797,1,-1.9713094234466553,1.1594024896621704,1.3521747589111328,-78.61328125,-125.30517578125,-327.45361328125
7.098551988601685,-1268603776,0,1.9988890886306763,0.9327968955039978,1.9110701084136963,72.44873046875,136.23046875,-15.31982421875
7.098649024963379,-1268603757,0,1.7232543230056763,1.1522793769836426,1.8878767490386963,16.11328125,143.6767578125,-112.97607421875
7.1055989265441895,-1268603778,1,-1.7371785640716553,1.1828399896621704,1.3428974151611328,-111.572265625,-172.79052734375,-220.52001953125
7.105688095092773,-1268603759,1,-1.7562215328216553,0.9152619242668152,1.1719989776611328,-135.6201171875,-202.7587890625,-146.728515625
7.1363608837127686,-1268603738,0,1.2706176042556763,1.1537442207336426,1.8651716709136963,37.65869140625,110.9619140625,-171.44775390625
7.137951850891113,-1268603740,1,-1.9041707515716553,1.1086212396621704,0.9588642120361328,-174.01123046875,-255.67626953125,-11.962890625
7.137958765029907,-1268603721,1,-1.2352254390716553,0.7548615336418152,1.0509052276611328,-127.9296875,-288.14697265625,-24.23095703125
7.158567905426025,-1268603719,0,0.8323851227760315,1.3451504707336426,1.6683943271636963,40.22216796875,55.908203125,-176.69677734375
7.15870475769043,-1268603700,0,0.6924925446510315,1.4367032051086426,1.0316755771636963,12.0849609375,-79.345703125,-169.37255859375
7.165694952011108,-1268603702,1,-0.8375203013420105,0.5156037211418152,0.9217548370361328,-32.77587890625,-240.478515625,-63.78173828125
7.187982797622681,-1268603681,0,0.2935667932033539,1.4069180488586426,1.3402693271636963,-2.685546875,-176.94091796875,-249.81689453125
7.1956868171691895,-1268603683,1,-1.1563680171966553,0.7048127055168152,0.8529071807861328,-14.95361328125,-175.048828125,-108.09326171875
7.195814847946167,-1268603664,1,-1.1195027828216553,0.8022248148918152,0.9852313995361328,27.40478515625,-141.11328125,-114.990234375
7.218232870101929,-1268603662,0,0.3582640588283539,0.6976894736289978,1.2575056552886963,-58.28857421875,-219.482421875,-229.91943359375
7.219758749008179,-1268603643,0,0.3746214807033539,0.120541051030159,1.4359724521636963,-105.8349609375,-126.89208984375,-240.3564453125
7.23381781578064,-1268603645,1,-1.1837117671966553,0.9330841898918152,0.9290790557861328,49.6826171875,-150.20751953125,-82.3974609375
7.248175859451294,-1268603624,0,-0.016003530472517014,0.101498082280159,1.3380720615386963,-96.98486328125,-21.91162109375,-257.2021484375
7.248311996459961,-1268603605,0,-0.2728394567966461,-0.153384730219841,1.2299177646636963,-100.341796875,-27.03857421875,-281.005859375
7.255599737167358,-1268603626,1,-1.0992391109466553,0.8376252055168152,0.8292255401611328,43.02978515625,-170.2880859375,-4.08935546875
7.255688905715942,-1268603607,1,-0.8460652232170105,0.6247345805168152,0.8189716339111328,40.46630859375,-147.8271484375,44.12841796875
7.287338972091675,-1268603571,1,-0.4637410044670105,0.5165802836418152,0.8951435089111328,101.5625,-95.3369140625,45.83740234375
7.308305978775024,-1268603569,0,0.3267699182033539,-0.124820277094841,1.4288923740386963,-91.97998046875,-98.5107421875,-374.20654296875
7.308372974395752,-1268603550,0,0.2750121057033539,-0.2512851059436798,0.7418806552886963,-166.56494140625,-82.94677734375,-371.88720703125
7.315367937088013,-1268603552,1,-0.1907917857170105,0.3664337694644928,0.7576923370361328,60.85205078125,-107.2998046875,64.63623046875
7.339512825012207,-1268603531,0,0.7457152009010315,-0.3997226059436798,1.0463240146636963,-168.27392578125,-26.55029296875,-459.04541015625
7.345557928085327,-1268603533,1,-0.3553425669670105,0.3698517382144928,0.6636981964111328,78.43017578125,-58.77685546875,46.56982421875
7.345637798309326,-1268603514,1,0.2408488392829895,-0.4968474805355072,0.6322040557861328,74.64599609375,-9.033203125,-36.92626953125
7.368130922317505,-1268603512,0,0.9300413727760315,-1.0691561698913574,1.4249861240386963,-134.94873046875,1.46484375,-554.8095703125
7.368262767791748,-1268603493,0,0.5992308259010315,-1.0745272636413574,1.0499861240386963,-90.02685546875,17.822265625,-511.1083984375
7.3862268924713135,-1268603495,1,-0.1170613169670105,0.6493927836418152,0.6661396026611328,157.3486328125,12.02392578125,-101.5625
7.398171901702881,-1268603474,0,0.8362913727760315,-0.4153476059436798,0.4428083598613739,-157.1044921875,-9.46044921875,-482.666015625
7.398269891738892,-1268603455,0,0.8812132477760315,-1.4229159355163574,1.6967146396636963,-135.7421875,43.76220703125,-519.47021484375
7.405569076538086,-1268603476,1,-0.3778035044670105,0.3749786913394928,0.7537860870361328,57.0068359375,-30.82275390625,49.072265625
7.405646085739136,-1268603457,1,-0.2694050669670105,0.1176544725894928,0.7186298370361328,41.3818359375,-72.265625,52.79541015625
7.435663938522339,-1268603436,0,0.5777464509010315,-1.4973788261413574,1.8334333896636963,16.845703125,91.6748046875,-371.826171875
7.438062906265259,-1268603438,1,-0.3433796763420105,0.2690216600894928,0.6756610870361328,74.951171875,-72.8759765625,21.54541015625
7.459508895874023,-1268603417,0,0.7315550446510315,-1.6738924980163574,1.5507185459136963,155.33447265625,160.2783203125,-126.52587890625
7.459518909454346,-1268603398,0,1.0723754167556763,-1.2603182792663574,1.1910994052886963,208.92333984375,194.580078125,53.955078125
7.4659318923950195,-1268603419,1,-0.5377156138420105,0.5468537211418152,0.7637958526611328,95.88623046875,-59.5703125,44.25048828125
7.466058015823364,-1268603400,1,-1.0804402828216553,0.3996368944644928,0.4549579620361328,109.06982421875,-61.03515625,127.9296875
7.48803186416626,-1268603379,0,1.6356078386306763,-0.9277988076210022,1.0936872959136963,224.7314453125,207.45849609375,177.91748046875
7.495945930480957,-1268603381,1,-2.3902547359466553,-0.2771209180355072,-0.5999736785888672,83.0078125,-78.61328125,213.0126953125
7.496063947677612,-1268603362,1,-1.0042684078216553,0.0790802538394928,0.3319110870361328,58.04443359375,27.16064453125,212.95166015625
7.518718957901001,-1268603360,0,2.5672483444213867,-1.1817049980163574,0.6591169834136963,309.08203125,182.9833984375,194.4580078125
7.52031683921814,-1268603341,0,3.2025022506713867,-1.0344882011413574,0.1034528985619545,458.984375,310.72998046875,152.64892578125
7.534090042114258,-1268603343,1,-0.5540730357170105,0.2924591600894928,0.9056415557861328,56.640625,114.501953125,163.6962890625
7.548022031784058,-1268603305,0,3.1385374069213867,-1.0960116386413574,-1.1956193447113037,660.5224609375,615.966796875,58.89892578125
7.555430889129639,-1268603307,1,-0.4800984263420105,0.5248810648918152,1.1583271026611328,56.33544921875,201.11083984375,182.55615234375
7.5850818157196045,-1268603286,0,3.3192014694213867,-1.5508456230163574,-2.0994279384613037,755.2490234375,704.40673828125,147.15576171875
7.587805986404419,-1268603288,1,-0.4927937388420105,0.6147248148918152,1.2701435089111328,55.419921875,211.181640625,221.0693359375
7.608316898345947,-1268603267,0,3.3585081100463867,-2.3826327323913574,-3.4800431728363037,919.12841796875,695.9228515625,201.416015625
7.6085569858551025,-1268603248,0,2.7208127975463867,-2.5088534355163574,-4.378969192504883,986.26708984375,584.228515625,258.7890625
7.615773916244507,-1268603269,1,-0.5535847544670105,0.6677033305168152,1.2889423370361328,16.7236328125,197.1435546875,295.83740234375
7.615909814834595,-1268603250,1,-0.5565144419670105,0.5978791117668152,1.3770771026611328,-35.0341796875,162.90283203125,355.46875
7.638926029205322,-1268603229,0,2.4605588912963867,-2.1587557792663574,-4.458803176879883,959.1064453125,432.373046875,286.92626953125
7.645725965499878,-1268603231,1,-0.4134480357170105,0.5395295023918152,1.4769306182861328,-85.38818359375,105.46875,383.544921875
7.645816087722778,-1268603212,1,-0.1343953013420105,0.7411896586418152,1.4803485870361328,-70.12939453125,72.93701171875,395.32470703125
7.6680908203125,-1268603210,0,0.9974241852760315,-1.1292147636413574,-4.013246536254883,1033.75244140625,117.00439453125,-44.98291015625
7.668195724487305,-1268603191,0,1.7061644792556763,-0.9329257607460022,-2.8113420009613037,888.427734375,29.4189453125,-364.80712890625
7.685166835784912,-1268603193,1,-0.1592976450920105,0.7900177836418152,1.4510517120361328,-24.59716796875,78.9794921875,412.29248046875
7.69822096824646,-1268603172,0,1.6651488542556763,0.067562535405159,-2.5484025478363037,442.7490234375,350.15869140625,-184.326171875
7.705513000488281,-1268603174,1,-0.059932414442300797,0.7140900492668152,1.4237079620361328,19.287109375,87.0361328125,401.2451171875
7.7055439949035645,-1268603155,1,0.011600788682699203,0.7721955180168152,1.4058856964111328,80.56640625,109.2529296875,379.08935546875
7.737735986709595,-1268603153,0,0.8895140290260315,-0.4600253403186798,-3.1441056728363037,192.3828125,225.2197265625,-206.11572265625
7.737743854522705,-1268603134,0,0.7369261384010315,-1.4700350761413574,-2.4151017665863037,69.76318359375,24.0478515625,-135.80322265625
7.740231990814209,-1268603136,1,-0.0030476488173007965,1.0290313959121704,1.4178485870361328,106.62841796875,93.32275390625,363.46435546875
7.758204936981201,-1268603115,0,1.3389769792556763,-1.2083163261413574,-1.5750138759613037,138.48876953125,-171.56982421875,-223.6328125
7.7583088874816895,-1268603096,0,1.2903929948806763,-0.8826327919960022,-1.0039689540863037,90.33203125,-115.17333984375,-234.43603515625
7.766082048416138,-1268603117,1,-0.1038777232170105,1.3151642084121704,1.3009052276611328,101.318359375,64.208984375,427.30712890625
7.766181945800781,-1268603098,1,-0.3758503794670105,1.4201446771621704,1.0377216339111328,71.77734375,53.64990234375,522.94921875
7.788881778717041,-1268603077,0,1.2269164323806763,-0.3233065903186798,-0.8069474697113037,112.97607421875,-89.05029296875,-293.9453125
7.817138910293579,-1268603041,0,0.9656859040260315,-0.130923792719841,-0.7759416103363037,-47.66845703125,-79.77294921875,-410.70556640625
7.833069086074829,-1268603079,1,-1.4029500484466553,1.4177032709121704,0.03015328198671341,-70.86181640625,102.84423828125,747.25341796875
7.8330769538879395,-1268603043,1,-0.5184285044670105,-1.2212127447128296,1.3470478057861328,31.3720703125,56.0302734375,587.0361328125
7.849284887313843,-1268603022,0,0.9669066071510315,-0.5520663857460022,-0.6062638759613037,-128.72314453125,-108.3984375,-443.78662109375
7.855933904647827,-1268603024,1,-0.1317097544670105,-1.1543182134628296,1.4927997589111328,210.693359375,10.25390625,370.91064453125
7.856054067611694,-1268603005,1,-0.008662883192300797,-1.1838592290878296,1.1658954620361328,233.21533203125,-11.474609375,270.93505859375
7.8854899406433105,-1268603003,0,0.6461058259010315,-0.6502109169960022,-0.4653947651386261,-152.16064453125,-78.61328125,-420.59326171875
7.885498762130737,-1268602984,0,0.1463499814271927,-0.5213046669960022,-0.6431291103363037,-185.97412109375,-52.30712890625,-388.61083984375
7.887192964553833,-1268602986,1,0.2540324330329895,-1.3799041509628296,1.0452899932861328,207.94677734375,20.69091796875,195.37353515625
7.908246994018555,-1268602965,0,-0.5687379240989685,-0.6140781044960022,-0.9146134853363037,-233.154296875,-76.47705078125,-339.29443359375
7.90838885307312,-1268602946,0,-0.9539918303489685,-1.0012850761413574,-0.8911759853363037,-259.94873046875,-184.814453125,-273.5595703125
7.915609121322632,-1268602967,1,0.2628214955329895,-0.7490447163581848,1.0836200714111328,216.97998046875,100.2197265625,120.54443359375
7.915721893310547,-1268602948,1,0.1197550892829895,-0.9262908101081848,1.0399188995361328,169.73876953125,97.16796875,154.9072265625
7.944421768188477,-1268602929,1,0.041874226182699203,-0.8957732319831848,0.9671649932861328,143.37158203125,101.6845703125,134.3994140625
7.968328952789307,-1268602927,0,-0.5650758147239685,-1.3552889823913574,-0.3450334370136261,-209.8388671875,-287.17041015625,-182.0068359375
7.96843695640564,-1268602908,0,-0.2052125185728073,-1.1057772636413574,0.1591169536113739,-143.12744140625,-272.0947265625,-101.50146484375
7.985027074813843,-1268602910,1,0.1004679799079895,-0.8420622944831848,0.8946552276611328,150.45166015625,121.4599609375,122.25341796875
7.987346887588501,-1268602891,1,0.3436320424079895,-1.0732635259628296,0.9032001495361328,168.701171875,111.75537109375,48.828125
7.998189926147461,-1268602889,0,-0.09071056544780731,-0.4934726059436798,0.4169294536113739,-107.5439453125,-189.5751953125,-28.01513671875
7.99833083152771,-1268602870,0,0.043810922652482986,0.037044961005449295,0.3724958598613739,-141.05224609375,-147.15576171875,-15.380859375
8.005610942840576,-1268602872,1,0.1839640736579895,-0.7136443257331848,0.8260517120361328,203.369140625,105.8349609375,-58.41064453125
8.005750894546509,-1268602853,1,0.012577351182699203,-0.4536345899105072,0.8326435089111328,174.1943359375,62.43896484375,-129.638671875
8.036924839019775,-1268602851,0,0.2894164025783539,0.080746129155159,0.1942732036113739,-227.47802734375,-130.06591796875,18.85986328125
8.03693175315857,-1268602832,0,0.4952269494533539,-0.050601523369550705,0.2152692973613739,-281.18896484375,-125.1220703125,79.77294921875
8.038662910461426,-1268602834,1,-0.0811726450920105,-0.2544158399105072,0.7926044464111328,104.91943359375,31.31103515625,-151.611328125
8.058264017105103,-1268602813,0,0.5960569977760315,-0.086734339594841,0.3495466411113739,-287.2314453125,-78.67431640625,124.51171875
8.065701723098755,-1268602815,1,-0.1185261607170105,-0.1316131055355072,0.7662372589111328,54.19921875,16.66259765625,-157.16552734375
8.088043928146362,-1268602777,0,0.6207152009010315,0.088802769780159,0.2907087504863739,-282.8369140625,-71.6552734375,191.162109375
8.095530033111572,-1268602779,1,-0.2012898325920105,-0.061544742435216904,0.8841571807861328,20.01953125,36.2548828125,-179.13818359375
8.118125915527344,-1268602758,0,0.7227659821510315,-0.018374960869550705,0.3632185161113739,-272.705078125,-92.1630859375,215.02685546875
8.118210077285767,-1268602739,0,0.8443480134010315,-0.097964808344841,0.5182478427886963,-229.55322265625,-108.0322265625,237.36572265625
8.133804082870483,-1268602760,1,-0.1263386607170105,0.034890804439783096,0.9698505401611328,20.5078125,33.99658203125,-199.03564453125
8.133810997009277,-1268602741,1,-0.1321980357170105,0.1137482225894928,1.1805438995361328,-19.6533203125,-15.9912109375,-221.8017578125
8.148077964782715,-1268602720,0,1.0157347917556763,-0.153384730219841,0.6032087802886963,-184.87548828125,-125.6103515625,257.01904296875
8.155580759048462,-1268602722,1,-0.1597859263420105,0.3603302538394928,1.4273700714111328,-85.0830078125,-100.40283203125,-242.98095703125
8.155678987503052,-1268602703,1,-0.0933796763420105,0.5949494242668152,1.6207294464111328,-146.66748046875,-184.26513671875,-230.5908203125
8.18529486656189,-1268602701,0,1.3641234636306763,-0.3277011215686798,0.6891462802886963,-103.57666015625,-128.90625,294.5556640625
8.185341835021973,-1268602682,0,1.7479125261306763,-0.161197230219841,0.6444685459136963,40.71044921875,-119.9951171875,361.63330078125
8.187450885772705,-1268602684,1,0.1331828236579895,0.8298127055168152,1.6510028839111328,-197.1435546875,-280.517578125,-175.1708984375
8.208554029464722,-1268602663,0,2.2523069381713867,-0.020083945244550705,0.3497907817363739,183.77685546875,-119.7509765625,397.5830078125
8.215832948684692,-1268602665,1,0.5391886830329895,0.8862091898918152,1.8507099151611328,-133.544921875,-310.302734375,-106.689453125
8.215914964675903,-1268602646,1,0.8221476674079895,0.9916779398918152,1.7547626495361328,13.7939453125,-298.2177734375,-70.80078125
8.240306854248047,-1268602644,0,2.7083616256713867,0.3329434096813202,-0.2525041401386261,322.32666015625,-80.9326171875,402.2216796875
8.240314722061157,-1268602625,0,2.5171995162963867,0.4349941909313202,-0.5020158290863037,381.77490234375,-4.33349609375,354.55322265625
8.245349884033203,-1268602627,1,1.0387003421783447,1.4494415521621704,1.7845478057861328,105.712890625,-290.58837890625,-64.39208984375
8.268395900726318,-1268602606,0,2.5389280319213867,0.7797207236289978,-0.9673478603363037,331.9091796875,69.15283203125,249.6337890625
8.268450021743774,-1268602587,0,2.3204221725463867,0.8595547080039978,-1.1707170009613037,299.01123046875,142.333984375,152.587890625
8.2839937210083,-1268602608,1,1.1033976078033447,1.7909942865371704,1.1112079620361328,210.44921875,-217.71240234375,-48.583984375
8.284003019332886,-1268602589,1,0.9613078236579895,2.16819167137146,0.1712665557861328,191.22314453125,-114.1357421875,10.986328125
8.298098802566528,-1268602568,0,2.0279417037963867,0.5441250205039978,-1.0979630947113037,252.13623046875,185.791015625,87.21923828125
8.305691957473755,-1268602570,1,1.0040323734283447,2.03074049949646,-0.1536846160888672,160.94970703125,11.90185546875,83.984375
8.305870056152344,-1268602551,1,1.1048624515533447,1.7504669427871704,0.01159859448671341,220.52001953125,127.74658203125,103.02734375
8.337425947189331,-1268602549,0,1.7379027605056763,0.5736660361289978,-1.0169084072113037,217.4072265625,171.142578125,19.71435546875
8.357189893722534,-1268602513,0,1.5933715105056763,0.4850430190563202,-0.8264787197113037,164.0625,119.93408203125,-91.4306640625
8.368215084075928,-1268602515,1,1.3687784671783447,0.8903595805168152,-0.00939749926328659,226.318359375,186.767578125,107.11669921875
8.368224859237671,-1268602496,1,1.3656046390533447,0.4118439257144928,-0.2950420379638672,196.83837890625,181.5185546875,93.6279296875
8.388479948043823,-1268602494,0,1.5445433855056763,0.6459316611289978,-0.7803361415863037,103.515625,172.54638671875,-118.59130859375
8.388580799102783,-1268602475,0,1.4866820573806763,0.6486172080039978,-0.8003556728363037,36.9873046875,232.48291015625,-141.66259765625
8.395517826080322,-1268602477,1,1.1976358890533447,0.1642853319644928,-0.5557842254638672,191.71142578125,197.1435546875,119.44580078125
8.418461799621582,-1268602456,0,1.1675902605056763,0.5736660361289978,-0.8411271572113037,-39.306640625,276.0009765625,-171.32568359375
8.4185631275177,-1268602437,0,0.7650023102760315,0.3583340346813202,-0.7639787197113037,-71.83837890625,244.5068359375,-195.73974609375
8.43331503868103,-1268602458,1,1.4559366703033447,-0.6574919819831848,-0.4410381317138672,171.7529296875,226.37939453125,111.38916015625
8.433325052261353,-1268602439,1,1.5596964359283447,-0.9250701069831848,-0.3370342254638672,221.5576171875,299.13330078125,-22.5830078125
8.448086023330688,-1268602418,0,0.4505492150783539,0.2721523940563202,-0.5425431728363037,-51.57470703125,132.38525390625,-205.078125
8.455785989761353,-1268602420,1,1.4578897953033447,-0.5871794819831848,-0.1444072723388672,259.09423828125,344.1162109375,-107.5439453125
8.455863952636719,-1268602401,1,1.2550089359283447,-0.2524627149105072,0.05945015698671341,266.66259765625,341.12548828125,-132.75146484375
8.48555588722229,-1268602399,0,0.1768675595521927,0.058041054755449295,-0.3770158588886261,-44.7998046875,47.36328125,-154.78515625
8.485568046569824,-1268602380,0,0.07554920017719269,-0.007388632744550705,-0.0535295233130455,-26.30615234375,-31.31103515625,-91.12548828125
8.487651824951172,-1268602382,1,1.0526163578033447,0.012185726314783096,0.2010517120361328,236.9384765625,289.48974609375,-82.3974609375
8.50817084312439,-1268602361,0,0.1553831845521927,0.068294957280159,0.2240583598613739,19.95849609375,-91.36962890625,-91.00341796875
8.515560865402222,-1268602363,1,0.9766886830329895,0.047830257564783096,0.3375263214111328,193.17626953125,259.765625,10.7421875
8.515674829483032,-1268602344,1,0.9473918080329895,-0.1589568555355072,0.4844989776611328,188.65966796875,277.4658203125,69.03076171875
8.540984869003296,-1268602342,0,0.1270628720521927,-0.2964511215686798,0.7885115146636963,119.56787109375,-103.515625,-71.59423828125
8.540993928909302,-1268602323,0,0.3536253869533539,0.196957066655159,0.7550642490386963,164.97802734375,-101.07421875,-77.45361328125
8.545333862304688,-1268602325,1,0.8045695424079895,-0.4194549024105072,0.6778583526611328,185.36376953125,321.044921875,77.2705078125
8.56830096244812,-1268602304,0,0.2386351376771927,0.4266934096813202,0.4786970317363739,145.5078125,-128.35693359375,-29.47998046875
8.568358898162842,-1268602285,0,0.5723753571510315,0.5365566611289978,0.3820173442363739,155.21240234375,-201.66015625,-34.72900390625
8.584300994873047,-1268602306,1,0.7301066517829895,-0.4726775586605072,1.3018817901611328,208.740234375,306.2744140625,-6.28662109375
8.585274934768677,-1268602287,1,0.4207804799079895,-0.1118377149105072,1.4630146026611328,237.79296875,200.37841796875,-154.72412109375
8.604617834091187,-1268602251,1,-0.3599812388420105,-0.4687713086605072,2.401002883911133,173.27880859375,-64.75830078125,-248.53515625
8.634350061416626,-1268602249,0,1.2571898698806763,1.1627774238586426,-0.1943986713886261,89.9658203125,-198.79150390625,-202.880859375
8.635926961898804,-1268602230,0,1.2842894792556763,1.0477871894836426,-0.3247697651386261,1.708984375,-148.193359375,-241.14990234375
8.636400938034058,-1268602232,1,-1.2112996578216553,-0.7080290913581848,1.6683368682861328,15.68603515625,-107.7880859375,-28.38134765625
8.658329725265503,-1268602211,0,1.1419554948806763,0.8160976767539978,-0.5972306728363037,-98.5107421875,-100.2197265625,-250.1220703125
8.66555380821228,-1268602213,1,-0.4612995982170105,-1.1318572759628296,1.5238056182861328,265.7470703125,-133.36181640625,-373.1689453125
8.665656089782715,-1268602194,1,-1.7657430171966553,-0.6655486226081848,1.4368915557861328,481.26220703125,-119.0185546875,-481.50634765625
8.69075894355774,-1268602192,0,0.9715452790260315,0.5336269736289978,-0.6951310634613037,-149.23095703125,-123.22998046875,-187.744140625
8.690766096115112,-1268602173,0,1.0330687761306763,0.3969082534313202,-0.6306779384613037,-142.2119140625,-151.3671875,-122.37548828125
8.695567846298218,-1268602175,1,-2.3775594234466553,-0.4843963086605072,1.2471942901611328,459.77783203125,-226.37939453125,-455.078125
8.718165874481201,-1268602154,0,1.1067992448806763,0.4332852065563202,-0.6047990322113037,-120.78857421875,-160.82763671875,-86.73095703125
8.718322992324829,-1268602135,0,1.1529418230056763,0.6893886923789978,-0.6365373134613037,-117.24853515625,-152.64892578125,-52.67333984375
8.733988761901855,-1268602156,1,-2.6165730953216553,-0.7002165913581848,1.0196552276611328,414.00146484375,-310.302734375,-388.427734375
8.733997106552124,-1268602137,1,-2.8861043453216553,-1.0940154790878296,0.5338153839111328,413.63525390625,-356.0791015625,-334.89990234375
8.748082876205444,-1268602116,0,1.0079222917556763,0.5067715048789978,-0.6128556728363037,-134.46044921875,-108.88671875,-9.94873046875
8.757222890853882,-1268602118,1,-2.9696004390716553,-1.4848846197128296,0.1937274932861328,472.96142578125,-342.46826171875,-332.3974609375
8.786204814910889,-1268602097,0,1.0423461198806763,0.5512050986289978,-0.6406877040863037,-170.34912109375,-57.2509765625,27.099609375
8.786215782165527,-1268602078,0,0.9876585602760315,0.5621914267539978,-0.6753556728363037,-222.900390625,-13.12255859375,69.7021484375
8.788007974624634,-1268602099,1,-3.0364949703216553,-1.6098846197128296,-0.06554984301328659,528.13720703125,-298.52294921875,-343.44482421875
8.788014888763428,-1268602080,1,-3.0687215328216553,-1.6474822759628296,-0.2430400848388672,566.58935546875,-286.80419921875,-321.533203125
8.808003902435303,-1268602059,0,0.8650999665260315,0.6408047080039978,-0.6878068447113037,-296.08154296875,37.109375,129.638671875
8.815678834915161,-1268602061,1,-3.1199910640716553,-1.8813689947128296,-0.3009014129638672,592.1630859375,-339.29443359375,-304.99267578125
8.815733909606934,-1268602042,1,-2.9085652828216553,-2.02004075050354,-0.3402080535888672,558.16650390625,-389.70947265625,-292.78564453125
8.867403984069824,-1268602040,0,0.9268675446510315,0.8368496298789978,-0.8235490322113037,-361.4501953125,32.1044921875,160.21728515625
8.868512868881226,-1268602021,0,0.9075804352760315,0.8214687705039978,-0.9524552822113037,-406.18896484375,-46.20361328125,147.5830078125
8.870133876800537,-1268601985,0,1.2381469011306763,0.7875332236289978,-0.7302873134613037,-386.04736328125,-92.041015625,59.38720703125
8.881667852401733,-1268602023,1,-2.8072469234466553,-2.10939621925354,-0.2891826629638672,540.4052734375,-387.51220703125,-225.2197265625
8.881675004959106,-1268601987,1,-2.7647664546966553,-1.8349822759628296,-0.6419658660888672,455.9326171875,-243.95751953125,-264.09912109375
8.898395776748657,-1268601966,0,1.2703734636306763,0.9970058798789978,-0.5230119228363037,-396.54541015625,-106.01806640625,-11.90185546875
8.905691862106323,-1268601968,1,-2.3465535640716553,-1.4404510259628296,-0.8245830535888672,401.06201171875,-98.08349609375,-213.19580078125
8.936600923538208,-1268601947,0,1.4341918230056763,1.0577969551086426,-0.3211076557636261,-473.2666015625,-152.34375,-107.11669921875
8.937455892562866,-1268601928,0,1.4659301042556763,0.7328457236289978,-0.1497209370136261,-484.0087890625,-159.72900390625,-214.4775390625
8.940645933151245,-1268601949,1,-1.8792684078216553,-1.0620330572128296,-0.6146221160888672,333.1298828125,78.06396484375,-82.6416015625
