sync_time,timestamp_ms,device_id,ax,ay,az,gx,gy,gz
0.014770030975341797,-241705220,0,-0.0675135999917984,-0.3944433331489563,0.9496066570281982,0.3662109375,18.9208984375,24.35302734375
0.014775753021240234,-241705201,0,-0.0443202443420887,-0.3963964581489563,0.9449679851531982,0.18310546875,18.5546875,23.98681640625
0.03480100631713867,-241705200,1,0.18425381183624268,0.016191542148590088,1.037967562675476,-5.43212890625,-8.11767578125,-8.97216796875
0.0348057746887207,-241705181,1,0.19133388996124268,0.009599745273590088,1.025516390800476,-3.5400390625,-10.92529296875,-7.568359375
0.04218602180480957,-241705182,0,-0.0618983693420887,-0.3941991925239563,0.9486300945281982,0.91552734375,17.7001953125,24.47509765625
0.05731701850891113,-241705162,1,0.18718349933624268,0.013505995273590088,1.022098422050476,-3.2958984375,-9.58251953125,-12.75634765625
0.08158493041992188,-241705163,0,-0.0482264943420887,-0.3895605206489563,0.9400851726531982,1.15966796875,17.4560546875,22.27783203125
0.0815896987915039,-241705144,0,-0.0611659474670887,-0.3819921612739563,0.9408175945281982,1.89208984375,18.1884765625,20.56884765625
0.08721494674682617,-241705143,1,0.18840420246124268,0.012773573398590088,1.016971468925476,-3.173828125,-10.31494140625,-12.39013671875
0.08723282814025879,-241705124,1,0.18132412433624268,0.019365370273590088,1.022342562675476,-2.99072265625,-9.70458984375,-12.3291015625
0.10227203369140625,-241705125,0,-0.0470057912170887,-0.3670995831489563,0.9432590007781982,2.0751953125,18.5546875,20.44677734375
0.1023108959197998,-241705106,0,-0.0487147755920887,-0.3639257550239563,0.9596164226531982,2.25830078125,16.9677734375,19.47021484375
0.1301279067993164,-241705105,1,0.18230068683624268,0.022050917148590088,1.018924593925476,-1.8310546875,-11.77978515625,-12.0849609375
0.13533496856689453,-241705087,0,-0.0387050099670887,-0.3880956768989563,0.9513156414031982,1.708984375,14.0380859375,20.3857421875
0.14711689949035645,-241705086,1,0.19621670246124268,0.005937635898590088,1.009891390800476,-1.46484375,-13.427734375,-11.41357421875
0.14716696739196777,-241705067,1,0.21867763996124268,0.002031385898590088,0.9932898879051208,-1.15966796875,-15.9912109375,-14.5263671875
0.16225075721740723,-241705051,0,-0.0098964162170887,-0.4193456768989563,0.9171359539031982,2.86865234375,13.48876953125,15.9912109375
0.1865370273590088,-241705048,1,0.22478115558624268,-0.004316270351409912,0.9949988722801208,-2.0751953125,-16.17431640625,-17.822265625
0.20394611358642578,-241705032,0,-0.0238124318420887,-0.4366796612739563,0.9081027507781982,3.72314453125,17.27294921875,11.474609375
0.20652198791503906,-241705012,1,0.21721279621124268,-0.009199082851409912,1.015262484550476,0.0,-11.71875,-25.08544921875
0.23036599159240723,-241705013,0,-0.0352870412170887,-0.4012792706489563,0.9359347820281982,5.18798828125,18.37158203125,8.4228515625
0.23037075996398926,-241704994,0,-0.0389491505920887,-0.4098241925239563,0.9376437664031982,6.28662109375,18.98193359375,6.28662109375
0.2375781536102295,-241704993,1,0.21159756183624268,0.0008106827735900879,1.020877718925476,1.28173828125,-11.3525390625,-27.099609375
0.2376117706298828,-241704974,1,0.20866787433624268,-0.003095567226409912,1.019412875175476,0.8544921875,-13.85498046875,-29.35791015625
0.25232696533203125,-241704975,0,-0.0186854787170887,-0.4200780987739563,0.9388644695281982,5.7373046875,18.37158203125,4.82177734375
0.2524528503417969,-241704956,0,-0.0284511037170887,-0.4210546612739563,0.9542453289031982,4.57763671875,17.63916015625,1.5869140625
0.2776510715484619,-241704955,1,0.22966396808624268,-0.009687364101409912,1.026737093925476,-0.244140625,-14.83154296875,-31.3720703125
0.283099889755249,-241704937,0,-0.0350429005920887,-0.4247167706489563,0.9413058757781982,4.39453125,15.9912109375,2.0751953125
0.29719090461730957,-241704936,1,0.21941006183624268,-0.013349473476409912,1.034793734550476,1.89208984375,-14.70947265625,-33.0810546875
0.29723095893859863,-241704917,1,0.21989834308624268,-0.005048692226409912,1.025760531425476,2.44140625,-13.36669921875,-35.82763671875
0.31224894523620605,-241704918,0,-0.0228358693420887,-0.4339941143989563,0.9452121257781982,3.84521484375,17.39501953125,0.244140625
0.3122599124908447,-241704899,0,-0.0394374318420887,-0.4339941143989563,0.9459445476531982,6.2255859375,20.93505859375,-3.47900390625
0.33333683013916016,-241704898,1,0.20622646808624268,0.002275526523590088,1.037723422050476,5.0048828125,-12.8173828125,-39.6728515625
0.3333430290222168,-241704879,1,0.20402920246124268,0.007890760898590088,1.026004672050476,4.33349609375,-13.916015625,-42.3583984375
0.3422391414642334,-241704880,0,-0.0347987599670887,-0.4352148175239563,0.9464328289031982,8.9111328125,16.90673828125,-5.92041015625
0.3569018840789795,-241704860,1,0.21110928058624268,0.005205214023590088,1.022098422050476,-1.15966796875,-15.19775390625,-41.80908203125
0.38144993782043457,-241704861,0,-0.0250331349670887,-0.4471777081489563,0.9359347820281982,6.9580078125,13.97705078125,-9.3994140625
0.3814558982849121,-241704842,0,-0.0289393849670887,-0.4388769268989563,0.8692843914031982,9.033203125,20.81298828125,-13.24462890625
0.3876938819885254,-241704841,1,0.22478115558624268,-0.009199082851409912,0.9898719191551208,-1.8310546875,-12.0849609375,-47.9736328125
0.38770484924316406,-241704822,1,0.21086513996124268,-0.028974473476409912,0.9874305129051208,-0.54931640625,-2.50244140625,-59.99755859375
0.40384697914123535,-241704823,0,-0.0384608693420887,-0.4430273175239563,0.8675754070281982,10.1318359375,29.9072265625,-22.39990234375
0.43121790885925293,-241704803,1,0.19694912433624268,-0.011640489101409912,1.009891390800476,5.55419921875,-1.77001953125,-65.97900390625
0.43816399574279785,-241704787,0,-0.0357753224670887,-0.4313085675239563,0.9464328289031982,15.07568359375,28.80859375,-28.3203125
0.44870781898498535,-241704784,1,0.19133388996124268,-0.002607285976409912,1.023319125175476,7.9345703125,-8.60595703125,-64.63623046875
0.4646108150482178,-241704768,0,-0.0186854787170887,-0.4571874737739563,0.9530246257781982,14.83154296875,22.5830078125,-27.89306640625
0.4646170139312744,-241704749,0,-0.0355311818420887,-0.4469335675239563,0.9112765789031982,10.498046875,22.39990234375,-35.21728515625
0.4878408908843994,-241704748,1,0.19035732746124268,0.009599745273590088,1.011844515800476,-1.3427734375,-20.3857421875,-64.697265625
0.48784804344177246,-241704729,1,0.24675381183624268,-0.027753770351409912,0.9901160597801208,-3.47900390625,-17.333984375,-69.2138671875
0.4936530590057373,-241704730,0,-0.005257744342088699,-0.4415624737739563,0.8695285320281982,7.32421875,26.7333984375,-39.85595703125
0.5085089206695557,-241704710,1,0.23479092121124268,-0.03703111410140991,0.9957312941551208,0.48828125,-12.14599609375,-78.30810546875
0.5328898429870605,-241704711,0,0.006216865032911301,-0.4535253643989563,0.8729465007781982,9.94873046875,33.447265625,-42.54150390625
0.5328989028930664,-241704692,0,0.0342930369079113,-0.4510839581489563,0.9261691570281982,12.14599609375,33.75244140625,-49.49951171875
0.5379059314727783,-241704691,1,0.2592049837112427,-0.006025254726409912,0.9925574660301208,4.2724609375,-10.31494140625,-83.92333984375
0.5379118919372559,-241704672,1,0.2765389680862427,0.007890760898590088,1.006473422050476,6.28662109375,-13.12255859375,-84.9609375
0.5521349906921387,-241704673,0,0.0645664781332016,-0.4835546612739563,0.9283664226531982,14.0380859375,31.73828125,-52.978515625
0.5522608757019043,-241704654,0,0.0740879625082016,-0.5028417706489563,0.8946750164031982,12.0849609375,34.85107421875,-56.2744140625
0.5844309329986572,-241704653,1,0.2792245149612427,0.002763807773590088,1.012088656425476,3.173828125,-11.77978515625,-91.9189453125
0.5897369384765625,-241704635,0,0.0694492906332016,-0.5238378643989563,0.8734347820281982,6.9580078125,47.119140625,-64.14794921875
0.5972549915313721,-241704634,1,0.2689706087112427,-0.003583848476409912,0.9835242629051208,4.57763671875,-1.03759765625,-106.689453125
0.597280740737915,-241704615,1,0.20940029621124268,0.11384779214859009,0.9884070754051208,18.98193359375,11.474609375,-113.95263671875
0.6124398708343506,-241704616,0,-0.0311366505920887,-0.2789648175239563,0.8851535320281982,20.44677734375,58.349609375,-62.68310546875
0.6124770641326904,-241704597,0,0.0589512400329113,-0.3993261456489563,1.0028293132781982,37.4755859375,50.35400390625,-72.08251953125
0.6342260837554932,-241704596,1,0.18669521808624268,0.1497364640235901,1.009158968925476,23.681640625,11.77978515625,-115.53955078125
0.6422379016876221,-241704578,0,-0.1751796156167984,-0.3461034893989563,0.9708468914031982,22.52197265625,44.921875,-76.904296875
0.6571097373962402,-241704577,1,0.14690029621124268,0.11873060464859009,1.066776156425476,12.14599609375,2.8076171875,-118.83544921875
0.6571879386901855,-241704558,1,0.21794521808624268,0.1846485733985901,0.9879187941551208,5.06591796875,0.54931640625,-112.6708984375
0.6803958415985107,-241704559,0,0.1519688218832016,-0.2945898175239563,0.9366672039031982,22.4609375,60.302734375,-80.810546875
0.6875920295715332,-241704539,1,0.16423428058624268,0.1680470108985901,0.9935340285301208,2.74658203125,6.7138671875,-110.90087890625
0.6876277923583984,-241704520,1,0.23234951496124268,0.2012501358985901,1.032352328300476,-1.46484375,18.24951171875,-118.71337890625
0.7022578716278076,-241704523,0,0.1756504625082016,-0.4906347393989563,1.0509250164031982,21.484375,101.07421875,-117.12646484375
0.7022969722747803,-241704504,0,0.1690586656332016,-0.4171484112739563,1.0365207195281982,-4.7607421875,116.2109375,-133.544921875
0.7348308563232422,-241704485,0,-0.2032557874917984,-0.2618749737739563,1.1195285320281982,-4.69970703125,128.60107421875,-136.71875
0.7473030090332031,-241704484,1,0.23283779621124268,0.3179493546485901,1.145389437675476,-17.15087890625,1.0986328125,-93.75
0.7474861145019531,-241704465,1,0.22868740558624268,0.2459278702735901,1.097537875175476,-23.25439453125,-10.43701171875,-79.04052734375
0.7648317813873291,-241704466,0,-0.2049647718667984,0.0606347918510437,1.0865695476531982,-6.16455078125,37.4755859375,-72.1435546875
0.7648389339447021,-241704447,0,0.0257481150329113,-0.2325780987739563,1.0438449382781982,-4.08935546875,31.1279296875,-1.40380859375
0.7870018482208252,-241704446,1,0.07927335053682327,0.2718067765235901,1.067020297050476,-13.24462890625,0.1220703125,-55.84716796875
0.7942359447479248,-241704428,0,0.0013340525329113007,-0.5104101300239563,1.1053683757781982,6.2255859375,68.66455078125,-24.35302734375
0.8095278739929199,-241704427,1,0.10490811616182327,0.1878224015235901,1.064334750175476,-7.8125,9.033203125,-64.0869140625
0.809532880783081,-241704408,1,0.09880460053682327,0.2263966202735901,1.094852328300476,-25.81787109375,0.244140625,-75.68359375
0.8323359489440918,-241704409,0,-0.0455409474670887,-0.3263280987739563,1.0560519695281982,13.916015625,71.77734375,-35.21728515625
0.8323419094085693,-241704390,0,0.0401524119079113,-0.5358007550239563,0.9627902507781982,19.4091796875,124.45068359375,-31.31103515625
0.8387548923492432,-241704389,1,0.08049405366182327,0.3579884171485901,0.9671668410301208,-33.63037109375,17.9443359375,-68.84765625
0.8388259410858154,-241704370,1,-0.05402743071317673,0.2781544327735901,1.068973422050476,-57.7392578125,48.583984375,-55.6640625
0.85402512550354,-241704371,0,-0.0594569630920887,-0.4271581768989563,0.8604953289031982,25.57373046875,187.1337890625,-13.5498046875
0.8794219493865967,-241704351,1,0.011158116161823273,0.2095509171485901,1.230838656425476,-76.5380859375,43.51806640625,-39.12353515625
0.883868932723999,-241704352,0,-0.2071620374917984,-0.2257421612739563,0.8748996257781982,54.74853515625,183.65478515625,-0.3662109375
0.8838739395141602,-241704333,0,-0.2174159437417984,-0.1102636456489563,1.0389621257781982,59.99755859375,161.92626953125,-13.73291015625
0.8986520767211914,-241704332,1,0.09001553803682327,-0.03849595785140991,1.173709750175476,-61.03515625,-10.92529296875,-32.5927734375
0.8987107276916504,-241704313,1,0.19524013996124268,-0.11540025472640991,1.052127718925476,-43.0908203125,-19.1650390625,-33.75244140625
0.9269018173217773,-241704314,0,-0.3136073648929596,-0.1075780987739563,1.1698215007781982,45.83740234375,121.15478515625,-45.0439453125
0.926908016204834,-241704295,0,-0.2540370523929596,-0.2057226300239563,0.9986789226531982,18.4326171875,43.64013671875,-51.81884765625
0.9335970878601074,-241704294,1,0.19743740558624268,-0.04289048910140991,1.060184359550476,-26.4892578125,-12.939453125,-49.8046875
0.9569849967956543,-241704275,1,0.16911709308624268,-0.013837754726409912,1.063114047050476,-23.98681640625,-2.8076171875,-55.6640625
0.958590030670166,-241704256,1,0.10368741303682327,-0.002363145351409912,1.041629672050476,-30.517578125,7.99560546875,-65.91796875
0.981604814529419,-241704259,0,-0.2696620523929596,-0.3390234112739563,0.8460910320281982,16.66259765625,31.3720703125,-23.5595703125
0.9816107749938965,-241704240,0,-0.3289882242679596,-0.2218359112739563,0.8385226726531982,17.39501953125,44.7998046875,-34.11865234375
0.9890649318695068,-241704220,1,0.05681241303682327,0.030595839023590088,0.9798621535301208,-18.798828125,14.404296875,-93.81103515625
1.0038049221038818,-241704221,0,-0.3170253336429596,-0.1669042706489563,0.8377902507781982,8.4228515625,48.583984375,-38.26904296875
1.0307350158691406,-241704201,1,0.013843663036823273,0.09968763589859009,0.9561805129051208,-12.5732421875,19.287109375,-92.28515625
1.0390610694885254,-241704202,0,-0.1861659437417984,-0.1012304425239563,0.7533175945281982,-4.82177734375,51.7578125,-34.72900390625
1.039067029953003,-241704183,0,-0.1532069593667984,-0.1229589581489563,0.8084933757781982,-13.7939453125,87.7685546875,-21.728515625
1.0470318794250488,-241704182,1,-0.023021571338176727,0.08723646402359009,0.9373816847801208,-11.77978515625,18.85986328125,-83.1298828125
1.0471198558807373,-241704163,1,-0.09846102446317673,0.04036146402359009,0.8704871535301208,-14.6484375,16.9677734375,-76.7822265625
1.0620958805084229,-241704164,0,-0.3519374430179596,-0.1527441143989563,0.8846652507781982,-19.71435546875,109.0087890625,-26.67236328125
1.0621709823608398,-241704145,0,-0.4347011148929596,-0.1346777081489563,0.9376437664031982,-30.76171875,104.3701171875,-45.95947265625
1.0857250690460205,-241704144,1,-0.15778720378875732,0.06013685464859009,0.8790320754051208,-15.56396484375,30.94482421875,-77.880859375
1.0922157764434814,-241704126,0,-0.4732753336429596,-0.1205175518989563,0.9869601726531982,-48.27880859375,74.15771484375,-73.42529296875
1.1070289611816406,-241704125,1,-0.21418368816375732,0.10505872964859009,0.9032019972801208,-17.02880859375,34.60693359375,-58.16650390625
1.1071140766143799,-241704106,1,-0.2503165006637573,0.1272755265235901,0.9337195754051208,-18.73779296875,28.80859375,-36.92626953125
1.1321160793304443,-241704107,0,-0.5291835069656372,-0.0289648175239563,0.9217746257781982,-79.58984375,18.1884765625,-69.51904296875
1.1321229934692383,-241704088,0,-0.4722987711429596,-0.1046484112739563,0.9178683757781982,-103.94287109375,-10.3759765625,-41.07666015625
1.1369948387145996,-241704087,1,-0.2796133756637573,0.05940443277359009,0.9512977004051208,-15.93017578125,8.48388671875,-10.3759765625
1.1538550853729248,-241704069,0,-0.4159022867679596,-0.0926855206489563,0.7955539226531982,-125.30517578125,-26.42822265625,-11.8408203125
1.1774358749389648,-241704068,1,-0.2549551725387573,0.04890638589859009,0.9285926222801208,-11.90185546875,-2.25830078125,8.1787109375
1.177440881729126,-241704049,1,-0.21149814128875732,0.1370411515235901,0.8885535597801208,-4.0283203125,2.50244140625,23.92578125
1.182013988494873,-241704050,0,-0.3070155680179596,-0.003818333148956299,0.8348605632781982,-197.3876953125,-11.962890625,-39.794921875
1.1820440292358398,-241704031,0,-0.3368007242679596,-0.008212864398956299,0.7237765789031982,-221.19140625,-32.77587890625,-21.30126953125
1.1970860958099365,-241704030,1,-0.3860586881637573,0.09236341714859009,0.7349891066551208,7.8125,19.71435546875,42.29736328125
1.1971070766448975,-241704011,1,-0.21467196941375732,-0.017744004726409912,0.9034461379051208,-0.30517578125,32.40966796875,12.6953125
1.212264060974121,-241703995,0,0.3333652913570404,-0.8905370831489563,0.43202853202819824,-304.13818359375,-98.7548828125,-209.53369140625
1.2305328845977783,-241703992,1,-0.15412509441375732,0.05745130777359009,1.207157015800476,23.193359375,37.353515625,32.89794921875
1.2440929412841797,-241703976,0,-0.0213710255920887,-0.5240820050239563,0.6869113445281982,-317.626953125,-74.951171875,-292.78564453125
1.2585418224334717,-241703956,1,0.3568612337112427,-0.014570176601409912,1.204715609550476,7.26318359375,-58.349609375,-7.75146484375
1.28277587890625,-241703957,0,-0.3743983805179596,-0.7923925518989563,0.6393039226531982,-242.85888671875,-5.43212890625,-287.9638671875
1.282783031463623,-241703938,0,-0.1827479749917984,-1.0541112422943115,0.7557590007781982,-185.05859375,-12.14599609375,-276.4892578125
1.2891080379486084,-241703937,1,0.7345467805862427,-0.1737498641014099,1.058963656425476,6.4697265625,-64.27001953125,-33.75244140625
1.3038628101348877,-241703919,0,1.2901524305343628,-1.0262792110443115,0.20278047025203705,-113.28125,-17.39501953125,-49.9267578125
1.3282759189605713,-241703918,1,0.3890877962112427,0.07722669839859009,1.026737093925476,20.3857421875,-48.7060546875,-17.333984375
1.3282818794250488,-241703899,1,0.18669521808624268,-0.2049998641014099,0.8009070754051208,45.654296875,66.34521484375,-72.08251953125
1.3349499702453613,-241703900,0,0.3533848226070404,-0.9557226300239563,0.5995090007781982,-78.43017578125,-241.8212890625,53.03955078125
1.3349547386169434,-241703881,0,0.9905918836593628,-0.9508398175239563,0.35780978202819824,51.513671875,-263.427734375,155.45654296875
1.3486747741699219,-241703880,1,0.11467374116182327,-0.1412791609764099,1.247440218925476,31.494140625,7.9345703125,-76.5380859375
1.3487069606781006,-241703861,1,0.13713467121124268,0.07722669839859009,1.095828890800476,43.64013671875,17.822265625,-65.12451171875
1.3799738883972168,-241703862,0,0.9905918836593628,-0.7721288800239563,0.23573945462703705,27.64892578125,-40.71044921875,95.27587890625
1.3884968757629395,-241703842,1,0.019703038036823273,-0.05387681722640991,0.9217566847801208,36.0107421875,0.48828125,-75.86669921875
1.3939158916473389,-241703843,0,0.3948887288570404,-1.4999120235443115,0.40956759452819824,9.94873046875,201.416015625,54.50439453125
1.3940010070800781,-241703824,0,0.4124668538570404,-1.2948338985443115,0.5748507976531982,57.18994140625,216.36962890625,75.25634765625
1.40885591506958,-241703823,1,-0.06330477446317673,0.10017591714859009,0.9115027785301208,24.10888671875,6.53076171875,-58.2275390625
1.4089269638061523,-241703804,1,-0.3601797819137573,0.1465626358985901,0.9862098097801208,24.2919921875,1.89208984375,-26.9775390625
1.4325039386749268,-241703805,0,-1.6773768663406372,-0.8126562237739563,1.5487277507781982,183.2275390625,115.1123046875,173.095703125
1.432508945465088,-241703786,0,0.1656406968832016,-0.6478613018989563,0.18764375150203705,204.345703125,-152.587890625,121.64306640625
1.4372549057006836,-241703785,1,-0.3269766569137573,0.4424610733985901,1.059207797050476,62.68310546875,39.9169921875,24.59716796875
1.4522829055786133,-241703767,0,-0.1942225843667984,-0.6849706768989563,0.6905734539031982,134.27734375,135.986328125,-37.41455078125
1.4797730445861816,-241703766,1,-0.6729239225387573,0.2415333390235901,1.086551547050476,32.40966796875,0.9765625,-9.94873046875
1.47977876663208,-241703747,1,-0.4737051725387573,0.2215138077735901,0.9920691847801208,-2.50244140625,-47.18017578125,2.50244140625
1.4854369163513184,-241703731,0,0.2249668687582016,-1.0421483516693115,0.6104953289031982,68.66455078125,51.69677734375,8.7890625
1.4973678588867188,-241703728,1,-0.4270743131637573,0.2918263077735901,0.8529090285301208,-42.17529296875,-65.73486328125,44.73876953125
1.5123119354248047,-241703712,0,0.2423008531332016,-0.9081152081489563,0.7538058757781982,126.5869140625,73.486328125,34.423828125
1.5342469215393066,-241703692,1,-0.4700430631637573,0.11360365152359009,0.8890418410301208,-51.20849609375,-13.7939453125,95.0927734375
1.5422890186309814,-241703693,0,0.2930820882320404,-0.7186620831489563,0.7628390789031982,201.416015625,130.43212890625,44.86083984375
1.5422978401184082,-241703674,0,0.2764805257320404,-0.5150488018989563,0.48451876640319824,247.0703125,119.873046875,38.6962890625
1.5571260452270508,-241703673,1,-0.5879629850387573,0.1360645890235901,0.9029578566551208,-51.57470703125,-6.2255859375,96.6796875
1.5571820735931396,-241703654,1,-0.6658438444137573,0.2993946671485901,1.130252718925476,-52.91748046875,-19.22607421875,103.08837890625
1.5797920227050781,-241703655,0,0.1829746812582016,-0.2298925518989563,0.6319797039031982,255.55419921875,81.48193359375,16.29638671875
1.579798936843872,-241703636,0,0.0579746775329113,-0.0370214581489563,1.0052707195281982,236.572265625,134.521484375,19.6533203125
1.5872700214385986,-241703635,1,-0.5337637662887573,0.3440724015235901,0.9378699660301208,-72.021484375,-21.6064453125,95.27587890625
1.6023077964782715,-241703617,0,0.1622227281332016,-0.1236913800239563,0.9937961101531982,172.8515625,119.384765625,54.6875
1.627553939819336,-241703616,1,-0.4483145475387573,0.1482716202735901,1.141483187675476,-78.2470703125,-17.63916015625,73.8525390625
1.628809928894043,-241703597,1,-0.18879306316375732,-0.011640489101409912,1.007938265800476,-88.5009765625,-30.3955078125,27.34375
1.633401870727539,-241703598,0,0.0999668687582016,-0.2464941143989563,0.9840304851531982,74.40185546875,90.6982421875,64.51416015625
1.6334059238433838,-241703579,0,-0.1317225843667984,-0.1832616925239563,0.8160617351531982,20.263671875,96.00830078125,43.88427734375
1.6470699310302734,-241703578,1,-0.11555086821317673,-0.013593614101409912,1.002078890800476,-38.51318359375,0.48828125,31.8603515625
1.6470820903778076,-241703559,1,-0.08552157133817673,0.029619276523590088,1.030399203300476,-31.1279296875,-8.1787109375,77.7587890625
1.6622638702392578,-241703560,0,-0.2789393961429596,-0.0736425518989563,0.8512179851531982,-7.6904296875,112.85400390625,-65.12451171875
1.683053970336914,-241703540,1,-0.019847743213176727,-0.06095689535140991,1.065311312675476,-41.8701171875,-10.80322265625,92.8955078125
1.692094087600708,-241703541,0,-0.0907069593667984,-0.2435644268989563,0.9554660320281982,-33.99658203125,67.81005859375,-100.09765625
1.6921298503875732,-241703522,0,0.0545567087829113,-0.4483984112739563,1.0269992351531982,-50.1708984375,81.11572265625,-69.88525390625
1.707077980041504,-241703521,1,0.04045499116182327,-0.1251658797264099,1.086063265800476,-33.447265625,4.7607421875,74.70703125
1.707157850265503,-241703502,1,0.07585538178682327,-0.11417955160140991,1.076053500175476,-24.84130859375,8.23974609375,60.48583984375
1.732663869857788,-241703503,0,-0.1016932874917984,-0.4574316143989563,1.0623996257781982,-57.6171875,137.0849609375,-65.3076171875
1.7371280193328857,-241703483,1,0.05876553803682327,-0.029951035976409912,1.104862093925476,-21.8505859375,26.3671875,47.79052734375
1.7522368431091309,-241703467,0,-0.1446620374917984,-0.3451269268989563,1.0086886882781982,-108.642578125,266.7236328125,-102.84423828125
1.7779490947723389,-241703464,1,-0.04328524321317673,-0.013349473476409912,1.193729281425476,-25.0244140625,30.82275390625,50.72021484375
1.7834248542785645,-241703448,0,-0.3971034586429596,-0.5902441143989563,0.9286105632781982,-99.54833984375,270.56884765625,-117.98095703125
1.7834298610687256,-241703429,0,-0.3712245523929596,-0.6002538800239563,0.8416965007781982,-51.6357421875,210.26611328125,-92.22412109375
1.796933889389038,-241703428,1,-0.04597079008817673,-0.12467759847640991,1.138309359550476,-3.23486328125,25.87890625,20.1416015625
1.7969560623168945,-241703409,1,-0.17463290691375732,0.1402149796485901,1.151981234550476,16.78466796875,13.36669921875,23.86474609375
1.812506914138794,-241703410,0,-0.4903651773929596,-0.5538671612739563,0.8568332195281982,-11.16943359375,235.41259765625,-78.369140625
1.8327479362487793,-241703390,1,-0.23420321941375732,0.2073536515235901,1.091922640800476,23.49853515625,3.60107421875,61.21826171875
1.842038869857788,-241703391,0,-0.4596034586429596,-0.5514257550239563,0.8600070476531982,8.544921875,242.73681640625,-75.98876953125
1.8420708179473877,-241703372,0,-0.6173182725906372,-0.5604589581489563,0.7286593914031982,9.82666015625,213.80615234375,-87.646484375
1.8571317195892334,-241703371,1,-0.17438876628875732,0.1397266983985901,1.047489047050476,33.5693359375,-2.8076171875,82.275390625
1.8571968078613281,-241703352,1,-0.13361728191375732,0.07673841714859009,1.017703890800476,35.888671875,-12.8173828125,79.833984375
1.8813178539276123,-241703353,0,-0.5943690538406372,-0.5416601300239563,0.7589328289031982,2.197265625,130.18798828125,-46.630859375
1.8813228607177734,-241703334,0,-0.5191737413406372,-0.6136816143989563,0.6559054851531982,-2.74658203125,73.6083984375,-6.4697265625
1.887411117553711,-241703333,1,-0.06647860258817673,0.04060560464859009,0.9996375441551208,26.611328125,-27.7099609375,67.32177734375
1.902472972869873,-241703315,0,-0.5824061632156372,-0.7596777081489563,0.5196750164031982,-0.48828125,-7.32421875,16.17431640625
1.9276330471038818,-241703314,1,0.03337491303682327,0.031084120273590088,0.9686316847801208,11.29150390625,-31.25,55.419921875
1.9276378154754639,-241703295,1,0.12468350678682327,-0.018964707851409912,0.9747352004051208,5.0048828125,-33.935546875,46.5087890625
1.933689832687378,-241703296,0,-0.6388026475906372,-0.7233007550239563,0.5079562664031982,7.01904296875,-142.88330078125,33.14208984375
1.9336950778961182,-241703277,0,-0.3909999430179596,-0.6485937237739563,0.37709689140319824,8.23974609375,-207.6416015625,69.76318359375
1.9471559524536133,-241703276,1,0.21428310871124268,-0.07389634847640991,0.9930457472801208,1.28173828125,-42.41943359375,21.6064453125
1.9623467922210693,-241703258,0,-0.5484706163406372,-0.6007421612739563,0.39198946952819824,35.888671875,-274.59716796875,103.08837890625
1.9823927879333496,-241703257,1,0.2657967805862427,-0.05412095785140991,0.9119910597801208,5.2490234375,-46.5087890625,-10.80322265625
1.9823970794677734,-241703238,1,0.3265877962112427,-0.10001939535140991,0.9332312941551208,3.5400390625,-32.77587890625,-30.2734375
1.9923160076141357,-241703239,0,-1.0262538194656372,-1.0157811641693115,0.6451632976531982,77.7587890625,-238.34228515625,115.53955078125
2.007255792617798,-241703219,1,0.3595467805862427,-0.11417955160140991,0.9549598097801208,-8.60595703125,-34.912109375,-39.48974609375
2.0072898864746094,-241703200,1,0.4137459993362427,-0.1742381453514099,0.9244422316551208,-24.59716796875,-30.8837890625,-51.26953125
2.032932996749878,-241703203,0,-0.2022792249917984,-0.7296484112739563,0.6715304851531982,79.58984375,-140.7470703125,35.94970703125
2.034269094467163,-241703184,0,-0.2169276624917984,-0.6600683331489563,0.8343722820281982,115.72265625,-101.86767578125,47.79052734375
2.0512499809265137,-241703165,0,-0.4007655680179596,-0.4718359112739563,0.8988254070281982,118.1640625,-104.55322265625,101.07421875
2.0806610584259033,-241703164,1,0.5465584993362427,-0.2955760359764099,1.032840609550476,-39.0625,-14.22119140625,-63.53759765625
2.0806658267974854,-241703145,1,0.5487557649612427,-0.2716502547264099,1.106815218925476,-23.5595703125,-24.23095703125,-84.1064453125
2.084135055541992,-241703146,0,-0.3941737711429596,-0.4205663800239563,0.9425265789031982,107.23876953125,-99.42626953125,127.9296875
2.0841407775878906,-241703127,0,-0.3453456461429596,-0.3895605206489563,0.9820773601531982,84.04541015625,-83.31298828125,115.72265625
2.097040891647339,-241703126,1,0.5223885774612427,-0.2777537703514099,1.127323031425476,-13.671875,-46.0205078125,-83.55712890625
2.11238694190979,-241703108,0,-0.2735683023929596,-0.3307226300239563,0.9503390789031982,59.87548828125,-63.41552734375,105.8349609375
2.136715888977051,-241703107,1,0.4862557649612427,-0.2548045516014099,1.086063265800476,-14.95361328125,-60.48583984375,-89.53857421875
2.136723041534424,-241703088,1,0.3751717805862427,-0.2289256453514099,1.080692172050476,-14.892578125,-62.98828125,-109.55810546875
2.1424217224121094,-241703089,0,-0.2271815687417984,-0.3133886456489563,0.8990695476531982,42.29736328125,-79.7119140625,117.85888671875
2.1424598693847656,-241703070,0,-0.0946132093667984,-0.2525976300239563,0.8673312664031982,42.90771484375,-121.9482421875,135.1318359375
2.157309055328369,-241703069,1,0.21672451496124268,-0.10246080160140991,1.112186312675476,-10.19287109375,-69.3359375,-129.638671875
2.157331943511963,-241703050,1,0.09123624116182327,-0.013593614101409912,1.185184359550476,-8.60595703125,-80.38330078125,-111.6943359375
2.1821467876434326,-241703051,0,0.0523594431579113,-0.1993749737739563,0.8944308757781982,54.8095703125,-118.0419921875,128.84521484375
2.187429904937744,-241703031,1,0.07732022553682327,0.015947401523590088,1.151981234550476,-14.404296875,-105.46875,-71.59423828125
2.2023367881774902,-241703032,0,0.0882481187582016,-0.1590917706489563,0.9159152507781982,68.2373046875,-94.6044921875,109.31396484375
2.2023468017578125,-241703013,0,0.0762852281332016,-0.1805761456489563,0.8570773601531982,77.57568359375,-81.97021484375,92.041015625
2.226716995239258,-241703012,1,0.09123624116182327,-0.027509629726409912,1.107547640800476,-21.484375,-121.64306640625,-50.537109375
2.2267208099365234,-241702993,1,0.10539639741182327,-0.10880845785140991,1.115848422050476,-26.06201171875,-126.03759765625,-53.955078125
2.2351508140563965,-241702994,0,0.0982578843832016,-0.1986425518989563,0.7950656414031982,78.67431640625,-84.41162109375,85.14404296875
2.2351560592651367,-241702975,0,0.0865391343832016,-0.2171972393989563,0.8016574382781982,87.2802734375,-104.06494140625,74.40185546875
2.2473061084747314,-241702974,1,0.11296475678682327,-0.07218736410140991,1.109012484550476,-26.91650390625,-104.736328125,-59.63134765625
2.2845540046691895,-241702955,1,0.14104092121124268,-0.08097642660140991,1.096805453300476,-27.64892578125,-88.9892578125,-52.18505859375
2.2845618724823,-241702936,1,0.11320889741182327,-0.10832017660140991,1.125614047050476,-25.390625,-66.95556640625,-42.48046875
2.2923150062561035,-241702939,0,0.3111484944820404,-0.1041601300239563,0.8209445476531982,107.48291015625,-140.5029296875,31.73828125
2.2923929691314697,-241702920,0,0.4776524007320404,-0.1149023175239563,0.8814914226531982,107.36083984375,-85.8154296875,6.53076171875
2.307405948638916,-241702900,1,-0.05158602446317673,-0.11540025472640991,1.086307406425476,-31.18896484375,-63.232421875,-42.66357421875
2.3331899642944336,-241702901,0,0.5360020399093628,-0.1168554425239563,0.8609836101531982,94.23828125,-53.7109375,11.65771484375
2.337022066116333,-241702881,1,0.026294834911823273,-0.04630845785140991,0.9874305129051208,-35.2783203125,-66.71142578125,-35.94970703125
2.352324962615967,-241702882,0,0.5748203992843628,-0.0934179425239563,0.8587863445281982,78.125,-23.681640625,43.0908203125
2.352423906326294,-241702863,0,0.5506504774093628,-0.0655859112739563,0.8683078289031982,71.6552734375,40.71044921875,64.88037109375
2.3841848373413086,-241702862,1,0.23674404621124268,-0.09098619222640991,0.9144324660301208,-42.8466796875,-48.27880859375,-28.1982421875
2.3841919898986816,-241702843,1,0.24309170246124268,-0.06193345785140991,0.9053992629051208,-26.30615234375,0.244140625,-6.89697265625
2.3901689052581787,-241702844,0,0.4361484944820404,-0.011386692523956299,1.0345675945281982,70.068359375,78.369140625,71.044921875
2.3901751041412354,-241702825,0,0.3856113851070404,0.0201074481010437,1.1139132976531982,70.25146484375,70.3125,75.1953125
2.3970589637756348,-241702824,1,0.13274013996124268,-0.12296861410140991,0.9469031691551208,-19.10400390625,14.0380859375,11.1083984375
2.413857936859131,-241702806,0,0.4698399007320404,0.0559961199760437,1.0575168132781982,56.2744140625,51.1474609375,79.65087890625
2.4351377487182617,-241702805,1,0.07390225678682327,-0.05412095785140991,0.9158973097801208,-31.67724609375,-4.150390625,32.3486328125
2.4351468086242676,-241702786,1,0.15105068683624268,-0.05949205160140991,0.8282508254051208,-42.724609375,-4.5166015625,31.494140625
2.4423561096191406,-241702787,0,0.4686191976070404,0.1099511981010437,1.0553195476531982,39.24560546875,61.95068359375,79.1015625
2.4423890113830566,-241702768,0,0.4161289632320404,0.1741601824760437,1.1019504070281982,27.77099609375,62.19482421875,73.6083984375
2.4569668769836426,-241702767,1,0.14616787433624268,-0.10294908285140991,0.8394812941551208,-60.85205078125,60.11962890625,3.47900390625
2.4818649291992188,-241702749,0,0.4183262288570404,0.2178613543510437,1.0919406414031982,21.1181640625,53.955078125,64.39208984375
2.4871389865875244,-241702748,1,0.16179287433624268,-0.1512889266014099,0.8314246535301208,-56.7626953125,107.7880859375,-26.67236328125
2.4872138500213623,-241702729,1,0.05754483491182327,-0.1312693953514099,0.9202918410301208,-33.69140625,128.173828125,-51.45263671875
2.5021469593048096,-241702730,0,0.4642246663570404,0.2168847918510437,1.0208957195281982,10.498046875,50.048828125,44.5556640625
2.5021798610687256,-241702711,0,0.3934238851070404,0.1011621356010437,0.9188449382781982,-1.52587890625,65.73486328125,16.6015625
2.5277347564697266,-241702710,1,-0.019847743213176727,-0.1791209578514099,0.9517859816551208,-21.1181640625,43.64013671875,-92.34619140625
2.527740955352783,-241702691,1,0.10612881928682327,-0.3287791609764099,0.9864539504051208,-15.56396484375,-10.498046875,-113.1591796875
2.5333478450775146,-241702675,0,0.2569492757320404,0.0423242449760437,0.9989230632781982,13.12255859375,40.52734375,2.197265625
2.5472049713134766,-241702672,1,0.13982021808624268,-0.2779979109764099,0.9678992629051208,-14.95361328125,3.90625,-112.79296875
2.562459945678711,-241702656,0,0.3421543538570404,0.013027369976043701,0.9925754070281982,19.775390625,23.3154296875,1.5869140625
2.5837321281433105,-241702636,1,0.06608975678682327,-0.019697129726409912,1.000125765800476,-10.498046875,-67.44384765625,7.080078125
2.5921790599823,-241702637,0,0.3995274007320404,0.0364648699760437,0.9461886882781982,17.08984375,26.7333984375,-7.38525390625
2.5922598838806152,-241702618,0,0.5616368055343628,-0.2013280987739563,0.5348117351531982,14.2822265625,75.1953125,-24.84130859375
2.6074609756469727,-241702617,1,0.2850838899612427,-0.1437205672264099,0.9666785597801208,21.54541015625,-65.5517578125,21.8505859375
2.633141040802002,-241702599,0,0.1392735093832016,0.2378808856010437,0.7838351726531982,48.52294921875,52.91748046875,9.8876953125
2.638145923614502,-241702598,1,0.16643154621124268,-0.1620311141014099,1.153690218925476,100.89111328125,-3.5400390625,14.83154296875
2.638150930404663,-241702579,1,0.5072518587112427,-0.03214830160140991,1.104862093925476,49.13330078125,115.17333984375,9.6435546875
2.6520678997039795,-241702580,0,0.2603672444820404,0.3523828387260437,0.9127414226531982,77.94189453125,6.40869140625,51.81884765625
2.6521177291870117,-241702561,0,0.2359531968832016,0.1426660418510437,1.0589816570281982,78.91845703125,25.57373046875,50.048828125
2.683616876602173,-241702560,1,0.2623788118362427,-0.1393260359764099,0.8939246535301208,14.58740234375,91.12548828125,14.09912109375
2.6836230754852295,-241702541,1,0.2723885774612427,-0.07755845785140991,0.8648719191551208,13.0615234375,107.97119140625,48.52294921875
2.6914219856262207,-241702542,0,0.1507481187582016,-0.0174902081489563,1.0465304851531982,65.185546875,4.57763671875,52.490234375
2.6972928047180176,-241702522,1,0.18864834308624268,-0.1422557234764099,0.9163855910301208,14.6484375,117.85888671875,77.94189453125
2.7125658988952637,-241702523,0,0.2750156819820404,0.0271875262260437,0.9264132976531982,53.1005859375,-1.8310546875,45.654296875
2.7126529216766357,-241702504,0,0.1641758531332016,0.1661035418510437,0.9115207195281982,45.0439453125,4.638671875,43.27392578125
2.7372279167175293,-241702503,1,0.23454678058624268,-0.2157420516014099,0.9488562941551208,21.8505859375,110.04638671875,107.5439453125
2.737233877182007,-241702484,1,0.2555428743362427,-0.1930369734764099,0.9073523879051208,41.93115234375,130.31005859375,115.234375
2.7422499656677246,-241702485,0,0.1026524156332016,0.2708398699760437,0.9122531414031982,41.015625,-14.7705078125,40.52734375
2.742297887802124,-241702466,0,0.0735996812582016,0.2520410418510437,1.0306613445281982,40.34423828125,-37.109375,25.20751953125
2.7574150562286377,-241702465,1,-0.3892325162887573,-0.1468943953514099,1.135623812675476,55.35888671875,113.22021484375,111.99951171875
2.7835910320281982,-241702447,0,0.1971348375082016,0.2351953387260437,1.0208957195281982,34.72900390625,-44.73876953125,-15.68603515625
2.7893600463867188,-241702446,1,-0.18879306316375732,0.05354505777359009,0.6910437941551208,148.37646484375,-101.01318359375,255.2490234375
2.789716958999634,-241702427,1,-0.013011805713176727,0.1446095108985901,1.040164828300476,108.82568359375,-161.92626953125,204.9560546875
2.8044588565826416,-241702411,0,0.1109531968832016,0.1717187762260437,0.9613254070281982,56.70166015625,-25.45166015625,-60.4248046875
2.828447103500366,-241702408,1,0.17058193683624268,0.1836720108985901,1.180057406425476,115.41748046875,-81.4208984375,71.044921875
2.8337149620056152,-241702392,0,0.2496250718832016,0.4410058856010437,1.0987765789031982,63.17138671875,-25.32958984375,-57.55615234375
2.8472909927368164,-241702372,1,-0.2884024381637573,-0.1783885359764099,0.6785926222801208,68.54248046875,107.177734375,-67.626953125
2.8753538131713867,-241702373,0,0.2933262288570404,0.5213281512260437,1.1769015789031982,55.48095703125,-63.8427734375,-30.6396484375
2.875359058380127,-241702354,0,0.4915684163570404,0.4900781512260437,1.0497043132781982,6.8359375,-86.42578125,-17.02880859375
2.882240056991577,-241702353,1,-0.03400789946317673,0.002275526523590088,0.7161902785301208,64.02587890625,67.0166015625,6.591796875
2.882244825363159,-241702334,1,-0.0020254775881767273,0.8648243546485901,1.582645297050476,156.06689453125,-164.61181640625,-8.23974609375
2.89201283454895,-241702335,0,0.4039219319820404,0.1988183856010437,0.8968722820281982,-73.2421875,14.2822265625,-8.056640625
2.8920888900756836,-241702316,0,0.4820469319820404,0.3558008074760437,1.0321261882781982,-65.24658203125,64.02587890625,-28.62548828125
2.9077539443969727,-241702315,1,0.15129482746124268,0.4307423233985901,1.234744906425476,-34.912109375,93.994140625,-23.62060546875
2.9316658973693848,-241702297,0,0.2667149007320404,0.2310449481010437,0.8812472820281982,-65.97900390625,-0.18310546875,8.056640625
2.937006950378418,-241702296,1,0.10075772553682327,0.05354505777359009,0.9608191847801208,-38.51318359375,145.56884765625,-35.400390625
2.9370388984680176,-241702277,1,-0.23688876628875732,0.08674818277359009,0.9310340285301208,-23.25439453125,128.90625,-7.568359375
2.9521570205688477,-241702278,0,0.3570469319820404,0.2046777606010437,0.9007785320281982,-64.94140625,11.8408203125,24.90234375
2.952220916748047,-241702259,0,0.2847813069820404,0.2456933856010437,0.8670871257781982,-61.8896484375,18.98193359375,36.0107421875
2.982707977294922,-241702258,1,-0.24958407878875732,0.1333790421485901,0.8851355910301208,-7.080078125,63.8427734375,-14.7705078125
2.982714891433716,-241702239,1,-0.16096103191375732,0.1790333390235901,1.032840609550476,6.40869140625,32.8369140625,-2.62451171875
2.9911859035491943,-241702240,0,0.2435215562582016,0.0967676043510437,0.7647922039031982,-57.18994140625,27.40478515625,50.4150390625
2.9971108436584473,-241702220,1,-0.12897861003875732,0.2063770890235901,1.055789828300476,13.36669921875,37.78076171875,-0.91552734375
3.01224684715271,-241702221,0,0.1058262437582016,0.1717187762260437,0.7193820476531982,-40.771484375,17.2119140625,56.396484375
3.0122759342193604,-241702202,0,0.7366856336593628,0.1311914324760437,0.35048556327819824,-9.46044921875,95.0927734375,27.28271484375
3.0387790203094482,-241702201,1,-0.10871493071317673,0.10823255777359009,0.9981727004051208,13.5498046875,44.677734375,-4.69970703125
3.038785934448242,-241702182,1,-0.08356844633817673,0.07673841714859009,0.9442176222801208,17.15087890625,39.85595703125,-2.99072265625
3.042414903640747,-241702183,0,0.1529453843832016,-0.0250585675239563,0.6873996257781982,44.677734375,160.09521484375,45.47119140625
3.0570740699768066,-241702163,1,-0.15266025066375732,0.05476576089859009,0.9637488722801208,32.2265625,35.0341796875,26.18408203125
3.0850908756256104,-241702147,0,0.1570957750082016,0.3965722918510437,0.8690402507781982,96.86279296875,41.9921875,94.970703125
3.090238094329834,-241702144,1,-0.08771883696317673,0.11067396402359009,0.8682898879051208,47.119140625,6.591796875,44.37255859375
3.1022069454193115,-241702128,0,0.2860020101070404,0.3860742449760437,0.9752414226531982,46.93603515625,57.4951171875,50.537109375
3.10227108001709,-241702109,0,0.1851719468832016,0.5362207293510437,0.9061496257781982,7.75146484375,63.17138671875,46.142578125
3.130380868911743,-241702108,1,-0.2713125944137573,0.4732227921485901,1.122684359550476,12.5732421875,-44.98291015625,30.57861328125
3.1303858757019043,-241702089,1,-0.03254305571317673,0.4214649796485901,1.078006625175476,-29.84619140625,-51.81884765625,-5.126953125
3.1361868381500244,-241702090,0,0.3492344319820404,0.4729883074760437,0.8304660320281982,-18.24951171875,47.54638671875,90.576171875
3.147402048110962,-241702070,1,0.15715420246124268,0.2027149796485901,0.8970984816551208,-15.0146484375,-25.146484375,-23.37646484375
3.162123918533325,-241702071,0,0.2965000569820404,0.4810449481010437,1.0899875164031982,-13.85498046875,41.68701171875,95.8251953125
3.162195920944214,-241702052,0,0.2217930406332016,0.3216211199760437,1.1078097820281982,-3.84521484375,59.814453125,34.97314453125
3.1820240020751953,-241702051,1,-0.2932852506637573,0.08796888589859009,0.9315223097801208,9.033203125,29.6630859375,3.2958984375
3.1820287704467773,-241702032,1,-0.07477938383817673,0.2725391983985901,0.9788855910301208,32.65380859375,-34.66796875,-16.9677734375
3.1925337314605713,-241702033,0,0.0862949937582016,0.4119531512260437,1.0587375164031982,11.5966796875,44.73876953125,-25.7568359375
3.1925389766693115,-241702014,0,0.1998203843832016,0.2476465106010437,1.0206515789031982,0.54931640625,7.2021484375,-16.2353515625
3.207491874694824,-241702013,1,0.3871346712112427,0.4317188858985901,1.432987093925476,37.78076171875,-34.7900390625,-9.1552734375
3.230163097381592,-241701995,0,0.1426914781332016,0.3916894793510437,1.3280246257781982,-13.18359375,28.9306640625,-16.357421875
3.2370898723602295,-241701994,1,-0.06672274321317673,0.3391895890235901,1.083866000175476,24.5361328125,4.21142578125,-10.07080078125
3.2371649742126465,-241701975,1,-0.06013094633817673,0.2893849015235901,0.8599891066551208,29.296875,69.4580078125,-0.30517578125
3.252042055130005,-241701976,0,0.2767246663570404,0.1070215106010437,0.9078586101531982,-11.3525390625,32.1044921875,-14.09912109375
3.252091884613037,-241701957,0,0.3455723226070404,0.1778222918510437,0.7501437664031982,36.376953125,49.01123046875,25.08544921875
3.2793691158294678,-241701956,1,-0.04108797758817673,0.3670216202735901,1.157596468925476,48.88916015625,16.2353515625,3.5400390625
3.286496877670288,-241701938,0,0.0819004625082016,0.3343164324760437,1.0819308757781982,75.1953125,32.8369140625,23.5595703125
3.2971079349517822,-241701937,1,-0.16071689128875732,0.3748341202735901,0.9896277785301208,32.5927734375,18.00537109375,-11.16943359375
3.2971410751342773,-241701918,1,-0.14826571941375732,0.2710743546485901,1.081180453300476,40.771484375,1.708984375,-18.12744140625
3.312398910522461,-241701919,0,0.1153477281332016,0.4158594012260437,1.1336886882781982,98.81591796875,22.5830078125,-1.953125
3.3370120525360107,-241701899,1,-0.23469150066375732,0.2005177140235901,1.112186312675476,70.556640625,12.14599609375,-2.13623046875
3.3370168209075928,-241701880,1,-0.3191641569137573,0.2984181046485901,0.9303016066551208,91.24755859375,-35.58349609375,9.27734375
3.3421669006347656,-241701883,0,0.0645664781332016,0.2349511981010437,0.7987277507781982,137.14599609375,23.62060546875,0.48828125
3.342205047607422,-241701864,0,0.0518711619079113,0.3235742449760437,0.7437961101531982,161.865234375,55.23681640625,18.798828125
3.3817780017852783,-241701845,0,0.0443028025329113,0.4344140887260437,0.7640597820281982,169.61669921875,62.92724609375,23.8037109375
3.3870978355407715,-241701844,1,-0.07136141508817673,0.4492970108985901,0.9710730910301208,105.1025390625,-82.51953125,4.82177734375
3.3871309757232666,-241701825,1,0.011158116161823273,0.5308399796485901,1.006961703300476,98.0224609375,-49.6826171875,4.8828125
3.405122756958008,-241701826,0,0.0884922593832016,0.5870019793510437,0.8094699382781982,165.58837890625,50.96435546875,28.6865234375
3.40513014793396,-241701807,0,0.1441563218832016,0.6319238543510437,0.9041965007781982,160.5224609375,33.935546875,30.76171875
3.4291439056396484,-241701806,1,-0.04719149321317673,0.5139942765235901,1.019412875175476,106.38427734375,-22.3388671875,-9.521484375
3.434580087661743,-241701788,0,0.1744297593832016,0.6018945574760437,0.8175265789031982,165.46630859375,28.4423828125,15.0146484375
3.4477009773254395,-241701787,1,-0.10798250883817673,0.4915333390235901,0.9434852004051208,119.0185546875,-9.09423828125,-19.775390625
3.4477357864379883,-241701768,1,-0.08820711821317673,0.5489063858985901,0.8912391066551208,99.12109375,-8.72802734375,-10.8642578125
3.462317943572998,-241701769,0,0.1412266343832016,0.6978418231010437,0.7564914226531982,159.24072265625,42.05322265625,14.2822265625
3.4623889923095703,-241701750,0,-0.1092616468667984,0.9043847918510437,0.6903293132781982,152.83203125,56.396484375,14.2822265625
3.482895851135254,-241701749,1,0.3109627962112427,0.2466602921485901,0.8123816847801208,95.88623046875,-18.98193359375,24.90234375
3.4829001426696777,-241701730,1,-0.06110750883817673,0.5542774796485901,0.7254676222801208,124.45068359375,-8.85009765625,28.6865234375
3.492327928543091,-241701731,0,-0.0745936781167984,0.8250390887260437,0.6732394695281982,136.41357421875,38.02490234375,-1.64794921875
3.5074000358581543,-241701711,1,0.007496006786823273,0.6751270890235901,0.8114051222801208,117.37060546875,-13.85498046875,21.17919921875
3.5306708812713623,-241701712,0,0.0135410837829113,0.7994043231010437,0.5956027507781982,129.638671875,18.61572265625,-0.06103515625
3.5306761264801025,-241701693,0,0.0032871775329113007,0.8702051043510437,0.49989962577819824,122.74169921875,22.64404296875,2.25830078125
3.537429094314575,-241701692,1,-0.04108797758817673,0.7071095108985901,0.7445105910301208,117.67578125,-15.68603515625,10.6201171875
3.5374338626861572,-241701673,1,-0.04743563383817673,0.7527638077735901,0.7303504347801208,101.6845703125,-25.69580078125,4.82177734375
3.5522971153259277,-241701674,0,0.0389317087829113,0.8006250262260437,0.5257785320281982,108.88671875,32.2265625,-3.41796875
3.552325963973999,-241701655,0,0.0660313218832016,0.8899804949760437,0.49111056327819824,85.8154296875,32.04345703125,1.5869140625
3.579241991043091,-241701654,1,-0.0005606338381767273,0.6797657608985901,0.7054480910301208,93.56689453125,-13.671875,10.8642578125
3.596238851547241,-241701635,1,0.015552647411823273,0.6875782608985901,0.6490516066551208,91.552734375,-4.638671875,15.869140625
3.597231864929199,-241701616,1,-0.06501375883817673,0.7051563858985901,0.5308875441551208,110.595703125,-21.78955078125,18.4326171875
3.612344980239868,-241701619,0,0.0486973337829113,0.8865625262260437,0.5484836101531982,65.00244140625,28.9306640625,25.45166015625
3.612359046936035,-241701600,0,-0.0577479787170887,0.7686426043510437,0.46303439140319824,65.185546875,26.4892578125,32.04345703125
3.6383259296417236,-241701580,1,-0.12873446941375732,0.9575977921485901,0.5821570754051208,80.322265625,-10.07080078125,14.5263671875
3.6423468589782715,-241701581,0,0.0391758494079113,0.6714746356010437,0.35390353202819824,68.54248046875,35.400390625,13.12255859375
3.6571459770202637,-241701561,1,0.08635342866182327,0.7845020890235901,0.5535926222801208,72.81494140625,-22.216796875,7.50732421875
3.6854469776153564,-241701562,0,0.0115879587829113,0.9139062762260437,0.43471407890319824,66.46728515625,45.166015625,3.96728515625
3.6854517459869385,-241701543,0,0.0194004587829113,0.8477441668510437,0.39882540702819824,61.09619140625,44.43359375,10.986328125
3.690030813217163,-241701542,1,0.08244717866182327,0.8328419327735901,0.5391883254051208,61.58447265625,1.8310546875,8.1787109375
3.690035104751587,-241701523,1,0.04362881928682327,0.8355274796485901,0.5240516066551208,59.6923828125,12.14599609375,6.591796875
3.702249050140381,-241701524,0,0.0110996775329113,0.8702051043510437,0.34682345390319824,53.22265625,43.39599609375,18.37158203125
3.7023141384124756,-241701505,0,-0.0145350880920887,0.8465234637260437,0.36928439140319824,44.61669921875,37.841796875,19.22607421875
3.716939926147461,-241701504,1,0.03337491303682327,0.8853321671485901,0.48572152853012085,52.3681640625,12.939453125,5.79833984375
3.7404119968414307,-241701486,0,-0.0086757130920887,0.8655664324760437,0.34291720390319824,41.50390625,31.3720703125,20.69091796875
3.746978759765625,-241701485,1,-0.003978602588176727,0.8824024796485901,0.5142859816551208,48.40087890625,2.3193359375,1.708984375
3.7470529079437256,-241701466,1,-0.016673915088176727,0.8282032608985901,0.45984262228012085,33.0810546875,7.87353515625,6.8359375
3.762324094772339,-241701467,0,-0.0745936781167984,0.8494531512260437,0.35488009452819824,44.0673828125,36.9873046875,18.5546875
3.762362003326416,-241701448,0,-0.0584804005920887,0.8245508074760437,0.26918673515319824,38.87939453125,36.4990234375,19.287109375
3.7834980487823486,-241701447,1,-0.028392665088176727,0.8084278702735901,0.44348520040512085,29.72412109375,5.0048828125,9.8876953125
3.7922110557556152,-241701429,0,-0.1065760999917984,0.8382226824760437,0.27016329765319824,28.62548828125,29.60205078125,14.70947265625
3.8076698780059814,-241701428,1,-0.04548250883817673,0.8572559952735901,0.40051645040512085,23.3154296875,-14.2822265625,10.6201171875
3.807713747024536,-241701409,1,0.0004159286618232727,0.8404102921485901,0.46057504415512085,14.16015625,-18.4326171875,7.62939453125
3.83017897605896,-241701410,0,-0.1102382093667984,0.8799707293510437,0.27260470390319824,16.90673828125,18.49365234375,13.85498046875
3.8301849365234375,-241701391,0,-0.0882655531167984,0.8941308856010437,0.30898165702819824,9.21630859375,14.5263671875,29.78515625
3.8370649814605713,-241701390,1,0.0004159286618232727,0.8789845108985901,0.46130746603012085,6.7138671875,-8.60595703125,1.3427734375
3.8370819091796875,-241701371,1,0.015064366161823273,0.8220997452735901,0.44299691915512085,0.6103515625,-7.01904296875,-0.91552734375
3.8522958755493164,-241701355,0,-0.0853358656167984,0.8211328387260437,0.29897189140319824,4.21142578125,9.521484375,35.400390625
3.878376007080078,-241701352,1,0.011402256786823273,0.8064747452735901,0.45325082540512085,-2.0751953125,-9.09423828125,-0.6103515625
3.8852219581604004,-241701336,0,-0.0604335255920887,0.8348047137260437,0.28700900077819824,5.79833984375,12.939453125,32.71484375
3.896958112716675,-241701316,1,-0.004711024463176727,0.8408985733985901,0.45813363790512085,-2.25830078125,-15.31982421875,1.3427734375
3.9121899604797363,-241701317,0,-0.0452968068420887,0.8211328387260437,0.25209689140319824,3.72314453125,13.671875,33.75244140625
3.9122347831726074,-241701298,0,-0.0631190687417984,0.8560449481010437,0.31655001640319824,-3.84521484375,14.22119140625,33.87451171875
3.9364371299743652,-241701297,1,0.04314053803682327,0.8499317765235901,0.44958871603012085,-14.83154296875,-15.80810546875,-0.48828125
3.9423928260803223,-241701279,0,-0.0484706349670887,0.8868066668510437,0.32045626640319824,-9.58251953125,11.53564453125,36.31591796875
3.9572489261627197,-241701278,1,0.03874600678682327,0.8684864640235901,0.45691293478012085,-25.08544921875,-7.4462890625,-6.4697265625
3.957296848297119,-241701259,1,0.06316006928682327,0.8767872452735901,0.41492074728012085,-41.748046875,-10.498046875,-13.24462890625
3.984699010848999,-241701260,0,-0.0501796193420887,0.8506738543510437,0.34828829765319824,-16.4794921875,10.7421875,35.58349609375
3.9847047328948975,-241701241,0,-0.0150233693420887,0.8443261981010437,0.32826876640319824,-22.3388671875,5.31005859375,30.029296875
3.989906072616577,-241701240,1,0.03142178803682327,0.8362599015235901,0.39953988790512085,-65.61279296875,-15.625,-14.83154296875
3.989910840988159,-241701221,1,0.05974210053682327,0.8645802140235901,0.44543832540512085,-82.94677734375,-23.5595703125,-15.7470703125
4.002408027648926,-241701222,0,-0.1222010999917984,0.7766992449760437,0.31044650077819824,-35.70556640625,-0.1220703125,32.470703125
4.031056880950928,-241701202,1,-0.029125086963176727,0.8313770890235901,0.34338754415512085,-122.74169921875,-32.1044921875,-13.18359375
4.037709951400757,-241701203,0,-0.1351405531167984,0.7718164324760437,0.30043673515319824,-45.83740234375,15.68603515625,45.47119140625
4.037714958190918,-241701184,0,-0.1051112562417984,0.8257715106010437,0.35658907890319824,-56.396484375,28.80859375,51.6357421875
4.047250986099243,-241701183,1,0.04582608491182327,0.7032032608985901,0.39368051290512085,-120.849609375,-46.20361328125,-17.333984375
4.04728102684021,-241701164,1,0.026294834911823273,0.6011524796485901,0.38025277853012085,-113.037109375,-66.5283203125,-19.8974609375
4.062268972396851,-241701165,0,-0.1803065687417984,0.9822656512260437,0.42348361015319824,-74.89013671875,31.43310546875,61.4013671875
4.062274932861328,-241701146,0,0.0843418687582016,0.7967187762260437,0.5050265789031982,-100.7080078125,21.17919921875,82.03125
4.086556911468506,-241701145,1,-0.20710361003875732,0.7198048233985901,0.17078010737895966,-100.03662109375,-142.2119140625,-26.55029296875
4.092426061630249,-241701127,0,0.1592930406332016,0.6409570574760437,0.5228488445281982,-109.130859375,22.4609375,75.74462890625
4.107018709182739,-241701126,1,-0.03522860258817673,0.9043751358985901,0.5274695754051208,-92.8955078125,-194.27490234375,-46.56982421875
4.107052803039551,-241701107,1,0.2513924837112427,0.8557911515235901,0.5474891066551208,-126.77001953125,-251.15966796875,-15.68603515625
4.130964994430542,-241701091,0,0.0101231150329113,0.6812402606010437,0.42836642265319824,-102.72216796875,43.9453125,92.34619140625
4.1391448974609375,-241701088,1,-0.005199305713176727,0.7346974015235901,0.30627816915512085,-168.45703125,-302.1240234375,-6.8359375
4.1525750160217285,-241701072,0,-0.3099452555179596,0.7176172137260437,0.5064914226531982,-90.39306640625,46.0205078125,98.0224609375
4.177597999572754,-241701052,1,0.0004159286618232727,0.2710743546485901,0.46399301290512085,-199.21875,-264.34326171875,-36.2548828125
4.184124946594238,-241701053,0,-0.0150233693420887,0.7810937762260437,0.47157931327819824,-81.84814453125,23.3154296875,96.61865234375
4.184130907058716,-241701034,0,0.0955723375082016,0.8804590106010437,0.5445773601531982,-85.26611328125,-5.859375,74.89013671875
4.1971399784088135,-241701033,1,0.4818612337112427,-0.07707017660140991,0.8946570754051208,-157.2265625,-277.40478515625,-51.025390625
4.197220802307129,-241701014,1,1.5031014680862427,0.4663868546485901,1.259403109550476,-89.41650390625,-188.8427734375,-19.34814453125
4.2120630741119385,-241701015,0,0.1116856187582016,0.7615625262260437,0.6456515789031982,-94.29931640625,13.3056640625,37.90283203125
4.2121360301971436,-241700996,0,0.0469883494079113,0.7141992449760437,0.6131808757781982,-88.19580078125,30.09033203125,12.20703125
4.237741947174072,-241700995,1,1.5072518587112427,0.7771778702735901,1.163455843925476,-75.1953125,54.99267578125,89.111328125
4.242395877838135,-241700977,0,0.0689610093832016,0.6468164324760437,0.6646945476531982,-70.98388671875,24.10888671875,-2.5634765625
4.257143974304199,-241700976,1,0.8021737337112427,0.8008595108985901,1.268436312675476,-118.59130859375,201.904296875,80.99365234375
4.257231950759888,-241700957,1,-0.17536532878875732,0.5196095108985901,1.110721468925476,-171.20361328125,203.67431640625,83.3740234375
4.284955024719238,-241700958,0,-0.0511561818420887,0.6905176043510437,0.8761203289031982,-42.3583984375,30.6396484375,23.74267578125
4.284962892532349,-241700939,0,0.1348789781332016,0.8186914324760437,0.8880832195281982,-13.7939453125,17.76123046875,88.37890625
4.291371822357178,-241700938,1,-0.17438876628875732,0.2791309952735901,1.062625765800476,-184.9365234375,53.40576171875,101.5625
4.291378021240234,-241700919,1,0.18986904621124268,0.1324024796485901,1.020633578300476,-131.7138671875,-41.8701171875,111.328125
4.3024678230285645,-241700920,0,0.1588047593832016,0.8340722918510437,0.8360812664031982,-4.8828125,30.1513671875,110.90087890625
4.333009958267212,-241700900,1,0.2867928743362427,0.1746388077735901,1.093143343925476,-60.4248046875,-29.47998046875,78.18603515625
4.340548992156982,-241700901,0,0.1734531968832016,0.7559472918510437,0.8036105632781982,3.41796875,38.57421875,107.84912109375
4.340555906295776,-241700882,0,0.1754063218832016,0.7915918231010437,0.7533175945281982,9.27734375,29.23583984375,90.8203125
4.347715854644775,-241700881,1,0.2521249055862427,0.3120899796485901,1.154666781425476,-0.42724609375,2.62451171875,10.1318359375
4.347752094268799,-241700862,1,0.2938729524612427,0.4019337296485901,1.172733187675476,7.080078125,-5.92041015625,-13.97705078125
4.362936973571777,-241700863,0,0.1529453843832016,0.7781640887260437,0.7530734539031982,8.97216796875,12.75634765625,79.4677734375
4.386899948120117,-241700843,1,0.2748299837112427,0.3235645890235901,1.095340609550476,0.1220703125,1.28173828125,-24.658203125
4.392381906509399,-241700827,0,0.3621738851070404,0.6697656512260437,0.7599093914031982,9.94873046875,5.37109375,61.70654296875
4.409994840621948,-241700824,1,0.22233974933624268,0.1934376358985901,0.9476355910301208,2.197265625,2.13623046875,-17.578125
4.431886911392212,-241700808,0,0.1094883531332016,0.7803613543510437,0.6544406414031982,1.3427734375,11.53564453125,32.65380859375
4.4318931102752686,-241700789,0,0.1058262437582016,0.7024804949760437,0.6332004070281982,-2.9296875,15.19775390625,19.4091796875
4.43701696395874,-241700788,1,0.2506600618362427,0.3325977921485901,0.8851355910301208,23.92578125,-16.4794921875,-2.685546875
4.437045097351074,-241700769,1,0.3124276399612427,0.3470020890235901,0.9346961379051208,34.66796875,0.42724609375,-20.81298828125
4.452406883239746,-241700770,0,0.1090000718832016,0.6971094012260437,0.6935031414031982,-9.033203125,14.58740234375,18.4326171875
4.4771668910980225,-241700750,1,0.2889901399612427,0.3687306046485901,0.9405555129051208,19.34814453125,31.73828125,-38.0859375
4.482852935791016,-241700751,0,0.1317051500082016,0.7212793231010437,0.6854465007781982,-11.962890625,13.36669921875,24.96337890625
4.48285698890686,-241700732,0,0.1548985093832016,0.6700097918510437,0.6808078289031982,-23.74267578125,9.58251953125,22.5830078125
4.497077703475952,-241700731,1,0.24919521808624268,0.3255177140235901,0.8944129347801208,2.25830078125,30.70068359375,-39.55078125
4.497172117233276,-241700712,1,0.3097420930862427,0.2781544327735901,0.8824500441551208,-7.8125,9.09423828125,-13.36669921875
4.5122950077056885,-241700713,0,0.1251133531332016,0.6812402606010437,0.6893527507781982,-35.21728515625,9.46044921875,16.29638671875
4.5123279094696045,-241700694,0,0.0955723375082016,0.6629297137260437,0.7132785320281982,-40.4052734375,2.197265625,15.07568359375
4.532625913619995,-241700693,1,0.3177987337112427,0.2764454483985901,0.8863562941551208,-2.50244140625,9.765625,-4.39453125
4.542261123657227,-241700675,0,0.0919102281332016,0.6995508074760437,0.7264621257781982,-41.6259765625,5.126953125,19.1650390625
4.557120084762573,-241700674,1,0.2892342805862427,0.3726368546485901,0.9359168410301208,4.08935546875,20.56884765625,-10.25390625
4.557137966156006,-241700655,1,0.23283779621124268,0.3975391983985901,0.8905066847801208,-7.32421875,12.3291015625,-12.20703125
4.581330060958862,-241700656,0,0.0953281968832016,0.6880761981010437,0.7943332195281982,-37.04833984375,3.90625,32.65380859375
4.581334829330444,-241700637,0,0.1297520250082016,0.7171289324760437,0.8131320476531982,-37.7197265625,2.86865234375,47.05810546875
4.587448835372925,-241700636,1,0.17448818683624268,0.2996388077735901,0.8470496535301208,-19.95849609375,-25.390625,-8.36181640625
4.602334976196289,-241700618,0,0.1519688218832016,0.7630273699760437,0.8248507976531982,-49.6826171875,-1.77001953125,65.97900390625
4.631019830703735,-241700617,1,0.16106045246124268,0.2083302140235901,0.7537879347801208,-5.43212890625,-25.45166015625,-4.57763671875
4.631026029586792,-241700598,1,0.13982021808624268,0.1858692765235901,0.7215613722801208,17.88330078125,-39.794921875,-11.474609375
4.636704921722412,-241700599,0,0.1561192125082016,0.8099023699760437,0.8756320476531982,-65.4296875,-4.82177734375,87.46337890625
4.647335052490234,-241700579,1,0.16032803058624268,0.2010059952735901,0.7108191847801208,44.37255859375,-39.1845703125,-23.62060546875
4.647347927093506,-241700560,1,0.23405849933624268,0.2246876358985901,0.7913855910301208,51.81884765625,-45.654296875,-21.54541015625
4.662282705307007,-241700563,0,0.1724766343832016,0.6814844012260437,0.9383761882781982,-123.1689453125,-20.44677734375,120.91064453125
4.662372827529907,-241700544,0,0.2298496812582016,0.5640527606010437,0.8946750164031982,-149.658203125,-53.466796875,141.11328125
4.691359758377075,-241700525,0,0.2300938218832016,0.5081445574760437,0.8084933757781982,-157.16552734375,-65.91796875,156.31103515625
4.708714008331299,-241700524,1,0.24162685871124268,0.2227345108985901,0.8792762160301208,46.7529296875,-46.08154296875,19.53125
4.708746910095215,-241700505,1,0.22282803058624268,0.2923145890235901,1.007449984550476,37.9638671875,-57.0068359375,37.2314453125
4.7318809032440186,-241700506,0,0.2484043687582016,0.4812890887260437,0.8211886882781982,-153.80859375,-58.65478515625,155.70068359375
4.73188591003418,-241700487,0,0.3206699788570404,0.3484765887260437,0.7411105632781982,-142.27294921875,-31.55517578125,140.7470703125
4.738606929779053,-241700486,1,0.2684823274612427,0.3360157608985901,1.086063265800476,19.287109375,-58.10546875,51.69677734375
4.754101037979126,-241700468,0,0.3121250569820404,0.1651269793510437,0.7079074382781982,-127.685546875,9.21630859375,99.54833984375
4.779268980026245,-241700467,1,0.3593026399612427,0.4207325577735901,1.069217562675476,-2.38037109375,-26.79443359375,59.9365234375
4.7792768478393555,-241700448,1,0.4181405305862427,0.4522266983985901,1.155155062675476,-22.4609375,-2.685546875,55.60302734375
4.78389310836792,-241700449,0,0.2947910726070404,0.0657617449760437,0.7103488445281982,-100.2197265625,39.4287109375,50.6591796875
4.783897876739502,-241700430,0,0.2535313069820404,0.003750026226043701,0.7223117351531982,-70.61767578125,43.64013671875,16.54052734375
4.7971649169921875,-241700429,1,0.4894295930862427,0.4627247452735901,1.084110140800476,-39.48974609375,20.20263671875,56.396484375
4.797195911407471,-241700410,1,0.4142342805862427,0.3821583390235901,1.004032015800476,-43.02978515625,37.4755859375,68.17626953125
4.825466871261597,-241700411,0,0.3677891194820404,0.008388698101043701,0.6710422039031982,-33.14208984375,41.6259765625,-10.80322265625
4.831836938858032,-241700391,1,0.3593026399612427,0.3706837296485901,0.9769324660301208,-29.541015625,25.32958984375,100.341796875
4.843657970428467,-241700392,0,0.4427402913570404,0.007167994976043701,0.5746066570281982,4.39453125,70.98388671875,-15.5029296875
4.8437347412109375,-241700373,0,0.2982090413570404,0.0940820574760437,0.6876437664031982,43.64013671875,100.7080078125,10.498046875
4.85881781578064,-241700372,1,0.4601327180862427,0.3509083390235901,1.052616000175476,-18.73779296875,10.43701171875,113.525390625
4.858883857727051,-241700353,1,0.5555917024612427,0.2996388077735901,1.023074984550476,-11.53564453125,29.4189453125,89.84375
4.882951021194458,-241700354,0,0.1444004625082016,0.2156640887260437,0.8397433757781982,81.787109375,91.1865234375,45.166015625
4.885962724685669,-241700335,0,0.2879551351070404,0.2369043231010437,0.8897922039031982,108.3984375,47.30224609375,59.38720703125
4.888842821121216,-241700334,1,0.5604745149612427,0.2534962296485901,0.9552039504051208,1.953125,56.33544921875,69.88525390625
4.931210041046143,-241700315,1,0.6569100618362427,0.2141895890235901,0.9088172316551208,10.6201171875,54.38232421875,64.51416015625
4.931251049041748,-241700296,1,0.6141854524612427,0.3001270890235901,0.8404578566551208,23.193359375,74.70703125,49.74365234375
4.938544988632202,-241700299,0,0.0545567087829113,0.4456445574760437,1.0826632976531982,85.44921875,42.05322265625,44.677734375
4.93855094909668,-241700280,0,-0.1026698499917984,0.7044336199760437,1.1466281414031982,69.88525390625,13.12255859375,73.73046875
4.948799133300781,-241700260,1,0.5717049837112427,0.4268360733985901,0.8060340285301208,16.7236328125,78.55224609375,14.2822265625
4.976902961730957,-241700261,0,-0.1253749281167984,0.8113672137260437,1.0589816570281982,45.22705078125,10.25390625,100.830078125
4.984192848205566,-241700241,1,0.6110116243362427,0.3679981827735901,0.7462195754051208,1.0986328125,72.75390625,5.79833984375
4.993673086166382,-241700242,0,-0.1178065687417984,0.7264062762260437,1.0062472820281982,20.56884765625,1.28173828125,112.36572265625
4.993741989135742,-241700223,0,-0.0819178968667984,0.5955469012260437,0.9557101726531982,-11.41357421875,-10.19287109375,114.44091796875
5.008824825286865,-241700222,1,0.5782967805862427,0.3706837296485901,0.7408484816551208,-7.01904296875,72.20458984375,0.9765625
5.008868932723999,-241700203,1,0.4381600618362427,0.3919239640235901,0.7877234816551208,-4.638671875,58.59375,-3.84521484375
5.032696962356567,-241700204,0,0.0176914744079113,0.4751855731010437,0.8394992351531982,-44.3115234375,-16.78466796875,101.62353515625
5.032702922821045,-241700185,0,0.1368321031332016,0.3738672137260437,0.8216769695281982,-71.533203125,-24.96337890625,86.36474609375
5.03853178024292,-241700184,1,0.3544198274612427,0.4158497452735901,0.8763465285301208,-2.86865234375,33.38623046875,-19.22607421875
5.054080009460449,-241700166,0,0.2369297593832016,0.2981836199760437,0.8067843914031982,-85.9375,-24.169921875,76.0498046875
5.080148935317993,-241700165,1,0.3019295930862427,0.4817677140235901,0.9744910597801208,-7.87353515625,12.14599609375,-38.75732421875
5.080155849456787,-241700146,1,0.3146249055862427,0.5000782608985901,1.085819125175476,-24.0478515625,4.82177734375,-52.3681640625
5.0851359367370605,-241700147,0,0.4107578694820404,0.1604883074760437,0.7472140789031982,-92.041015625,0.9765625,62.744140625
5.085140943527222,-241700128,0,0.4175938069820404,-0.0494726300239563,0.7086398601531982,-74.70703125,17.4560546875,57.2509765625
5.098853826522827,-241700127,1,0.3793221712112427,0.5296192765235901,1.195194125175476,-69.51904296875,20.20263671875,-56.0302734375
5.126916885375977,-241700109,0,0.4131992757320404,-0.1781347393989563,0.6866672039031982,-47.2412109375,15.380859375,47.119140625
5.133815765380859,-241700108,1,0.3026620149612427,0.4668751358985901,1.208621859550476,-119.873046875,72.20458984375,-42.48046875
5.133821964263916,-241700089,1,0.18474209308624268,0.3677540421485901,1.175662875175476,-158.87451171875,103.94287109375,-40.71044921875
5.144412994384766,-241700090,0,0.4554356038570404,-0.2196386456489563,0.6202609539031982,-16.90673828125,19.04296875,8.7890625
5.144447088241577,-241700071,0,0.5064610242843628,-0.2530859112739563,0.5494601726531982,-5.2490234375,36.62109375,-47.2412109375
5.158881902694702,-241700070,1,0.030445225536823273,0.3084278702735901,1.246463656425476,-170.34912109375,126.953125,-56.2744140625
5.158933162689209,-241700051,1,-0.10920321196317673,0.2364063858985901,1.236209750175476,-181.640625,141.11328125,-88.134765625
5.181290864944458,-241700035,0,0.4280918538570404,-0.1178320050239563,0.5553195476531982,-16.17431640625,115.17333984375,-118.2861328125
5.188881874084473,-241700032,1,-0.3076895475387573,0.07014662027359009,1.177616000175476,-198.42529296875,131.34765625,-74.40185546875
5.20309591293335,-241700016,0,0.3201816976070404,0.0948144793510437,0.6449191570281982,-17.51708984375,120.66650390625,-115.05126953125
5.229859828948975,-241699996,1,-0.3946036100387573,-0.3556346297264099,0.9398230910301208,-211.24267578125,38.2080078125,5.7373046875
5.236645936965942,-241699997,0,0.2850254476070404,0.2464258074760437,0.7442843914031982,-17.08984375,88.5009765625,-84.1064453125
5.236650705337524,-241699978,0,0.3780430257320404,0.2657129168510437,0.8680636882781982,-36.4990234375,47.05810546875,-31.92138671875
5.2489118576049805,-241699977,1,-0.2842520475387573,-0.4364451766014099,0.8619422316551208,-175.1708984375,-1.220703125,20.44677734375
5.264519929885864,-241699959,0,0.4483555257320404,0.1853906512260437,0.9811007976531982,-71.533203125,54.3212890625,2.01416015625
5.288629055023193,-241699958,1,-0.3069571256637573,-0.4029979109764099,0.8531531691551208,-127.74658203125,-2.44140625,36.80419921875
5.288635969161987,-241699939,1,-0.6245840787887573,-0.7059764266014099,0.5382117629051208,-59.814453125,-43.51806640625,55.48095703125
5.293909788131714,-241699940,0,0.4705723226070404,0.0796777606010437,1.0680148601531982,-109.619140625,78.7353515625,2.99072265625
5.293942928314209,-241699921,0,0.5374668836593628,0.0325586199760437,1.0926730632781982,-130.4931640625,73.1201171875,-7.9345703125
5.308302879333496,-241699920,1,-0.4514883756637573,-0.5402049422264099,0.8026160597801208,11.04736328125,-138.48876953125,72.265625
5.308309078216553,-241699901,1,-0.2547110319137573,-0.4640330672264099,0.8629187941551208,59.02099609375,-131.7138671875,91.24755859375
5.3333940505981445,-241699902,0,0.5045078992843628,0.0928613543510437,1.2660129070281982,-122.74169921875,60.1806640625,-25.2685546875
5.333399772644043,-241699883,0,0.5223301649093628,0.1399804949760437,1.2667453289031982,-86.12060546875,37.53662109375,-27.2216796875
5.338882923126221,-241699882,1,-0.2832754850387573,-0.3780955672264099,0.8726844191551208,77.57568359375,-96.74072265625,93.75
5.354102849960327,-241699864,0,0.4146641194820404,0.0013086199760437012,1.2850558757781982,-51.7578125,27.52685546875,-28.86962890625
5.379669904708862,-241699863,1,-0.4507559537887573,-0.3029002547264099,0.8011512160301208,82.8857421875,-48.64501953125,61.95068359375
5.37967586517334,-241699844,1,-0.3811758756637573,-0.2606639266014099,0.7296180129051208,69.3359375,-96.5576171875,37.353515625
5.384121894836426,-241699845,0,0.2471836656332016,-0.0909765362739563,1.3446261882781982,-23.193359375,16.78466796875,-16.11328125
5.384127140045166,-241699826,0,0.1544102281332016,-0.009921848773956299,1.3692843914031982,13.3056640625,-18.85986328125,6.28662109375
5.398458003997803,-241699825,1,-0.06476961821317673,-0.2106150984764099,0.6607703566551208,61.82861328125,-123.35205078125,28.25927734375
5.412370920181274,-241699807,0,0.1212071031332016,0.1514551043510437,1.3443820476531982,33.99658203125,-38.02490234375,9.765625
5.43277382850647,-241699806,1,0.09489835053682327,-0.1464061141014099,0.6461219191551208,63.4765625,-112.6708984375,-9.33837890625
5.432778835296631,-241699787,1,0.18620693683624268,0.021562635898590088,0.6065711379051208,67.626953125,-106.87255859375,-60.24169921875
5.4438087940216064,-241699771,0,0.0311192087829113,0.3492090106010437,1.3419406414031982,56.94580078125,-40.46630859375,22.5830078125
5.458701848983765,-241699768,1,0.18376553058624268,-0.06120103597640991,0.6126746535301208,80.87158203125,-112.9150390625,-90.75927734375
5.484172821044922,-241699752,0,-0.0037929005920886993,0.3252832293510437,1.2501437664031982,66.162109375,-59.814453125,41.748046875
5.484181880950928,-241699733,0,-0.6480799913406372,-0.9779394268989563,0.23158906400203705,71.77734375,-47.18017578125,26.42822265625
5.490206003189087,-241699732,1,0.09904874116182327,1.1866016387939453,2.0682411193847656,-111.63330078125,-426.94091796875,72.32666015625
5.504037857055664,-241699714,0,-0.4566737711429596,-0.0174902081489563,0.8578097820281982,87.5244140625,31.79931640625,31.3720703125
5.5308167934417725,-241699713,1,1.1058846712112427,-0.3092479109764099,0.5726355910301208,-107.11669921875,-415.771484375,206.97021484375
5.5308239459991455,-241699694,1,1.5673104524612427,-0.4049510359764099,0.7933387160301208,-99.2431640625,-191.0400390625,247.49755859375
5.538989782333374,-241699695,0,0.0106113962829113,0.2193261981010437,0.9044406414031982,88.31787109375,19.95849609375,39.4287109375
5.538996934890747,-241699676,0,-0.2677089273929596,0.1048242449760437,0.8026340007781982,61.1572265625,42.41943359375,32.40966796875
5.548820972442627,-241699675,1,0.9987069368362427,-0.5756053328514099,0.7271766066551208,-61.8896484375,-72.021484375,184.38720703125
5.58191704750061,-241699657,0,0.0714024156332016,0.012294948101043701,0.5426242351531982,11.90185546875,110.90087890625,4.638671875
5.5910139083862305,-241699656,1,0.7025643587112427,-0.3129100203514099,1.015994906425476,-9.033203125,13.916015625,93.8720703125
5.591055870056152,-241699637,1,0.5370370149612427,-0.2880076766014099,0.8411902785301208,6.7138671875,15.869140625,26.123046875
5.5938310623168945,-241699638,0,0.0711582750082016,0.2046777606010437,0.7442843914031982,22.8271484375,41.07666015625,-56.70166015625
5.593848943710327,-241699619,0,-0.0272304005920887,0.2246972918510437,1.2249972820281982,10.009765625,-66.34521484375,-17.7001953125
5.608706951141357,-241699618,1,0.4484139680862427,-0.3155955672264099,0.7823523879051208,17.4560546875,-3.35693359375,4.08935546875
5.608747720718384,-241699599,1,0.7111092805862427,-0.3617381453514099,0.8370398879051208,17.51708984375,-28.99169921875,32.53173828125
5.636139869689941,-241699600,0,-0.0167323537170887,0.6050683856010437,1.3871066570281982,-11.53564453125,-58.2275390625,-0.91552734375
5.640031099319458,-241699580,1,0.17741787433624268,-0.7433299422264099,0.5689734816551208,12.02392578125,-79.28466796875,83.92333984375
5.653770923614502,-241699581,0,0.4070957601070404,0.4593164324760437,1.1244113445281982,-48.27880859375,-261.962890625,101.98974609375
5.653825759887695,-241699562,0,1.5430821180343628,-0.2906835675239563,0.04408906772732735,-3.35693359375,-213.43994140625,170.95947265625
5.681968927383423,-241699561,1,0.5604745149612427,0.2459278702735901,0.9173621535301208,-127.99072265625,35.7666015625,68.84765625
5.6819748878479,-241699542,1,0.7233163118362427,-0.4950389266014099,0.6263465285301208,-91.30859375,-114.8681640625,90.51513671875
5.687824010848999,-241699543,0,0.6754063367843628,0.1460840106010437,0.6068332195281982,-57.43408203125,-17.333984375,145.20263671875
5.698795795440674,-241699523,1,0.6373788118362427,-0.5262889266014099,0.7205848097801208,-51.20849609375,-67.81005859375,108.3984375
5.727653980255127,-241699507,0,0.1253574937582016,-0.0384863018989563,0.5958468914031982,-36.1328125,51.20849609375,115.478515625
5.734566926956177,-241699504,1,0.4691659212112427,-0.4235057234764099,0.6824988722801208,3.23486328125,-81.84814453125,85.99853515625
5.7442100048065186,-241699488,0,0.0740879625082016,0.0384179949760437,0.7811496257781982,5.0048828125,-2.44140625,18.85986328125
5.744215965270996,-241699469,0,0.2806309163570404,0.1233789324760437,0.8026340007781982,4.45556640625,-45.5322265625,22.5830078125
5.757236003875732,-241699468,1,0.3666268587112427,-0.1954783797264099,0.7999305129051208,8.11767578125,-90.33203125,-40.52734375
5.757267951965332,-241699449,1,0.7980233430862427,-0.3085154891014099,0.8219031691551208,-11.1083984375,-101.50146484375,-31.55517578125
5.780601978302002,-241699450,0,0.2537754476070404,0.1392480731010437,0.9342257976531982,7.14111328125,-9.3994140625,39.24560546875
5.787358999252319,-241699430,1,0.4789315462112427,-0.3710154891014099,0.7955359816551208,-1.220703125,-13.61083984375,-19.47021484375
5.802250146865845,-241699431,0,0.4876621663570404,0.1236230731010437,0.8961398601531982,-2.50244140625,5.37109375,17.578125
5.802268981933594,-241699412,0,0.3873203694820404,0.1182519793510437,0.8529269695281982,-2.13623046875,7.62939453125,-9.6435546875
5.828122854232788,-241699411,1,0.3500252962112427,-0.2599315047264099,0.8065223097801208,-14.16015625,-22.94921875,-9.70458984375
5.828127861022949,-241699392,1,0.2853280305862427,-0.2775096297264099,0.9412879347801208,-33.14208984375,-77.81982421875,-29.052734375
5.834784746170044,-241699393,0,0.3809727132320404,0.2327539324760437,0.8175265789031982,20.81298828125,10.1318359375,-22.3388671875
5.834789991378784,-241699374,0,0.0484531931579113,0.0188867449760437,0.8089816570281982,43.39599609375,41.56494140625,13.00048828125
5.8473060131073,-241699373,1,0.20451748371124268,-0.3949412703514099,0.6998328566551208,-42.3583984375,-102.84423828125,-71.10595703125
5.862205982208252,-241699355,0,0.1360996812582016,0.0948144793510437,0.9698703289031982,54.26025390625,26.9775390625,35.5224609375
5.887357950210571,-241699354,1,0.5240975618362427,-0.4047068953514099,0.5291785597801208,-52.67333984375,-102.60009765625,-97.65625
5.887364864349365,-241699335,1,0.7162362337112427,-0.2364940047264099,0.5208777785301208,-43.39599609375,-181.70166015625,-94.3603515625
5.892196893692017,-241699336,0,0.4593418538570404,-0.1964452862739563,0.8311984539031982,52.30712890625,-27.03857421875,-10.498046875
5.892258882522583,-241699317,0,0.4888828694820404,0.1399804949760437,0.8853976726531982,51.7578125,-49.31640625,-74.89013671875
5.907169818878174,-241699316,1,0.9437752962112427,-0.3207225203514099,0.6439246535301208,-85.26611328125,-143.98193359375,-140.9912109375
5.933394908905029,-241699298,0,0.5823887586593628,0.3479883074760437,0.9066379070281982,62.3779296875,-36.56005859375,-120.4833984375
5.938271760940552,-241699297,1,0.8602792024612427,-0.3544139266014099,0.42248910665512085,-99.67041015625,-108.33740234375,-184.38720703125
5.93828010559082,-241699278,1,1.2616463899612427,-0.2960643172264099,0.35364145040512085,-91.24755859375,-42.8466796875,-180.84716796875
5.952311754226685,-241699279,0,0.6810215711593628,0.4969140887260437,1.0396945476531982,68.42041015625,-55.2978515625,-112.3046875
5.979429006576538,-241699259,1,1.5443612337112427,0.3001270890235901,1.817996859550476,-96.6796875,-26.91650390625,-141.29638671875
5.979434013366699,-241699240,1,0.7006112337112427,-0.4647654891014099,0.6766394972801208,-46.93603515625,-23.3154296875,-46.38671875
5.985490083694458,-241699243,0,0.6646641492843628,0.5562402606010437,0.7755343914031982,78.18603515625,-41.1376953125,-63.96484375
5.98549485206604,-241699224,0,0.5582188367843628,0.5987207293510437,0.7398898601531982,66.34521484375,27.52685546875,-27.2216796875
6.011727809906006,-241699205,0,0.7596348524093628,0.3672754168510437,0.14589570462703705,13.00048828125,32.2265625,1.40380859375
6.034038782119751,-241699204,1,0.7753182649612427,-0.2631053328514099,0.6734656691551208,15.07568359375,-24.23095703125,47.7294921875
6.034044981002808,-241699185,1,0.9794198274612427,-0.2054881453514099,0.6934852004051208,27.9541015625,-106.4453125,93.81103515625
6.044116973876953,-241699186,0,0.3660801351070404,0.4370996356010437,0.8297336101531982,-89.53857421875,-3.0517578125,0.30517578125
6.044142961502075,-241699167,0,0.2244785875082016,0.5091211199760437,1.3846652507781982,-134.033203125,-26.06201171875,52.734375
6.058578968048096,-241699166,1,0.9677010774612427,-0.2904490828514099,0.5889930129051208,-2.44140625,-110.29052734375,63.53759765625
6.081511974334717,-241699148,0,0.5030430555343628,0.6348535418510437,0.9876925945281982,-70.12939453125,-22.39990234375,181.45751953125
6.088961839675903,-241699147,1,0.9554940462112427,-0.3185252547264099,0.43030160665512085,-1.89208984375,-118.65234375,58.04443359375
6.08896803855896,-241699128,1,0.8878670930862427,-0.4410838484764099,0.38513559103012085,-5.92041015625,-93.6279296875,41.44287109375
6.103739976882935,-241699129,0,1.0638340711593628,-0.1307714581489563,0.45400118827819824,-85.9375,87.890625,190.185546875
6.1038291454315186,-241699110,0,0.3592441976070404,-0.2091405987739563,0.35878634452819824,-133.544921875,249.08447265625,86.12060546875
6.129072904586792,-241699109,1,0.7997323274612427,-0.4791697859764099,0.21619026362895966,10.80322265625,-30.76171875,-1.89208984375
6.129077911376953,-241699090,1,0.8478280305862427,-0.4652537703514099,0.26843637228012085,17.4560546875,-5.67626953125,-19.53125
6.133696794509888,-241699091,0,0.1407383531332016,-0.2010839581489563,0.8131320476531982,-164.0625,152.52685546875,37.109375
6.148741006851196,-241699071,1,0.8556405305862427,-0.4134959578514099,0.34631723165512085,-18.61572265625,-9.21630859375,-28.25927734375
6.176743030548096,-241699072,0,0.2691563069820404,-0.2457616925239563,0.9762179851531982,-206.60400390625,5.7373046875,-50.72021484375
6.176748752593994,-241699053,0,0.4617832601070404,0.1084863543510437,0.6949679851531982,-252.62451171875,-64.3310546875,-94.3603515625
6.184748888015747,-241699052,1,0.8710213899612427,-0.3656443953514099,0.43201059103012085,0.79345703125,20.69091796875,-41.07666015625
6.184753894805908,-241699033,1,0.8617440462112427,-0.2806834578514099,0.5235633254051208,-3.5400390625,25.32958984375,-43.27392578125
6.193748950958252,-241699034,0,0.4439609944820404,0.0950586199760437,0.8084933757781982,-247.98583984375,-7.26318359375,-57.43408203125
6.193781852722168,-241699015,0,0.7205723524093628,0.0909082293510437,1.5138156414031982,-267.88330078125,-9.27734375,-65.00244140625
6.208847999572754,-241699014,1,0.9232674837112427,-0.1473826766014099,0.7113074660301208,0.48828125,29.84619140625,-23.4375
6.239062786102295,-241698995,1,0.8126717805862427,-0.10929673910140991,0.7325477004051208,-26.55029296875,-57.92236328125,27.2216796875
6.239068984985352,-241698976,1,1.0724374055862427,-0.2140330672264099,0.7537879347801208,9.8876953125,-151.7333984375,105.46875
6.253978967666626,-241698979,0,0.9527500867843628,-0.2015722393989563,0.7003390789031982,-308.77685546875,-310.1806640625,20.3857421875
6.254042863845825,-241698960,0,0.8790196180343628,0.2051660418510437,0.31923556327819824,-152.16064453125,-93.1396484375,94.90966796875
6.281344890594482,-241698940,1,0.9323006868362427,0.10310560464859009,0.9359168410301208,30.45654296875,-48.583984375,40.4052734375
6.287701845169067,-241698941,0,1.0340489149093628,-0.1004980206489563,0.5111300945281982,-2.0751953125,31.92138671875,197.32666015625
6.298634052276611,-241698921,1,0.5419198274612427,-0.04655259847640991,0.6803016066551208,51.8798828125,152.64892578125,-140.5029296875
6.329250812530518,-241698922,0,0.8306797742843628,-0.1210058331489563,0.7362277507781982,37.90283203125,212.2802734375,272.94921875
6.329258918762207,-241698903,0,0.4173496663570404,-0.4398534893989563,1.0670382976531982,2.44140625,313.65966796875,268.37158203125
6.336051940917969,-241698902,1,0.7411385774612427,-0.12418931722640991,0.8172644972801208,89.66064453125,127.62451171875,-106.99462890625
6.336057901382446,-241698883,1,0.6945077180862427,0.1953907608985901,1.093875765800476,113.4033203125,124.57275390625,-72.69287109375
6.346437931060791,-241698884,0,0.3978184163570404,-0.2672460675239563,1.1263644695281982,-42.1142578125,172.9736328125,178.22265625
6.346444845199585,-241698865,0,0.3519199788570404,-0.4398534893989563,0.9566867351531982,-49.86572265625,107.7880859375,82.33642578125
6.358464002609253,-241698864,1,0.6298104524612427,0.1931934952735901,1.073367953300476,82.1533203125,48.27880859375,-26.42822265625
6.38273286819458,-241698846,0,0.3851231038570404,-0.5961034893989563,0.7686984539031982,-32.71484375,84.1064453125,5.67626953125
6.3885579109191895,-241698845,1,0.6608163118362427,-0.04142564535140991,0.9444617629051208,52.1240234375,-28.01513671875,58.65478515625
6.388763904571533,-241698826,1,0.7257577180862427,-0.2445506453514099,0.7449988722801208,36.68212890625,-75.86669921875,111.02294921875
6.402083873748779,-241698827,0,0.4002598226070404,-0.7672460675239563,0.6517550945281982,33.8134765625,66.83349609375,-23.8037109375
6.402124881744385,-241698808,0,0.2139805406332016,-0.8082616925239563,0.6329562664031982,95.03173828125,59.02099609375,-10.7421875
6.429915904998779,-241698807,1,0.8195077180862427,-0.4811229109764099,0.5711707472801208,51.6357421875,-59.26513671875,103.02734375
6.4350059032440186,-241698789,0,0.0379551462829113,-0.7359960675239563,0.7464816570281982,123.96240234375,47.8515625,2.01416015625
6.4488279819488525,-241698788,1,0.9276620149612427,-0.6041697859764099,0.40100473165512085,60.11962890625,-24.35302734375,69.4580078125
6.448862075805664,-241698769,1,0.9757577180862427,-0.5956248641014099,0.44055551290512085,67.5048828125,9.09423828125,31.31103515625
6.478574991226196,-241698770,0,-0.0592128224670887,-0.6246679425239563,0.7911593914031982,107.23876953125,29.052734375,13.85498046875
6.478582859039307,-241698751,0,-0.1048671156167984,-0.4842870831489563,0.8814914226531982,69.64111328125,21.240234375,28.564453125
6.4867119789123535,-241698750,1,1.0372811555862427,-0.5709666609764099,0.39929574728012085,68.359375,8.11767578125,22.88818359375
6.486717939376831,-241698731,1,1.0033456087112427,-0.5668162703514099,0.31238168478012085,69.76318359375,5.79833984375,8.85009765625
6.493996858596802,-241698715,0,-0.0589686818420887,-0.5001562237739563,0.7787082195281982,6.40869140625,-2.50244140625,44.3115234375
6.5090718269348145,-241698712,1,0.9213143587112427,-0.5194529891014099,0.29065316915512085,55.60302734375,18.1884765625,-15.2587890625
6.535360097885132,-241698696,0,0.0086582712829113,-0.3646581768989563,0.8434054851531982,11.71875,-31.18896484375,62.31689453125
6.537975788116455,-241698676,1,0.8571053743362427,-0.3844432234764099,0.43005746603012085,43.02978515625,29.60205078125,-24.90234375
6.554002046585083,-241698677,0,0.1483067125082016,-0.3243749737739563,0.8849093914031982,26.9775390625,-48.64501953125,66.5283203125
6.554018974304199,-241698658,0,0.2779453694820404,-0.2237890362739563,1.0018527507781982,46.5087890625,-37.65869140625,56.94580078125
6.5821568965911865,-241698657,1,0.8248788118362427,-0.3761424422264099,0.48230355978012085,49.49951171875,26.67236328125,-11.8408203125
6.588978052139282,-241698639,0,0.2579258382320404,-0.2084081768989563,1.0516574382781982,49.8046875,1.64794921875,37.59765625
6.598819971084595,-241698638,1,0.8378182649612427,-0.4340037703514099,0.46057504415512085,58.41064453125,19.95849609375,-0.06103515625
6.5988359451293945,-241698619,1,0.8385506868362427,-0.4706248641014099,0.41711801290512085,52.30712890625,9.521484375,1.0986328125
6.615647077560425,-241698620,0,0.2435215562582016,-0.2228124737739563,1.0692355632781982,42.41943359375,28.564453125,26.0009765625
6.615653991699219,-241698601,0,0.2471836656332016,-0.2198827862739563,0.9706027507781982,24.2919921875,24.2919921875,24.47509765625
6.638648986816406,-241698600,1,0.8195077180862427,-0.4174022078514099,0.41321176290512085,35.7666015625,3.0517578125,-9.82666015625
6.638654947280884,-241698581,1,0.7909432649612427,-0.3617381453514099,0.43225473165512085,24.84130859375,-0.3662109375,-16.17431640625
6.6423659324646,-241698582,0,0.1695469468832016,-0.2081640362739563,1.0069797039031982,15.44189453125,27.4658203125,25.2685546875
6.642385959625244,-241698563,0,0.1522129625082016,-0.2482030987739563,0.9955050945281982,22.03369140625,21.97265625,16.05224609375
6.658647775650024,-241698562,1,0.7465096712112427,-0.3182811141014099,0.43909066915512085,19.83642578125,-0.67138671875,-20.44677734375
6.683050155639648,-241698544,0,0.1407383531332016,-0.3026464581489563,0.9825656414031982,41.50390625,17.822265625,4.33349609375
6.6888368129730225,-241698543,1,0.7284432649612427,-0.2992381453514099,0.45520395040512085,17.02880859375,-1.220703125,-19.53125
6.6888427734375,-241698524,1,0.7560311555862427,-0.2506541609764099,0.5081824660301208,6.65283203125,0.8544921875,-17.76123046875
6.703732967376709,-241698525,0,0.1356114000082016,-0.3221777081489563,0.9759738445281982,59.326171875,14.46533203125,8.056640625
6.703752040863037,-241698506,0,0.1343906968832016,-0.3551366925239563,0.9850070476531982,73.79150390625,-26.18408203125,32.3486328125
6.728466033935547,-241698505,1,0.7567635774612427,-0.1976756453514099,0.5955848097801208,5.126953125,-1.8310546875,-14.46533203125
6.735857963562012,-241698487,0,0.1861485093832016,-0.2389257550239563,1.1192843914031982,85.8154296875,-59.63134765625,61.82861328125
6.747251033782959,-241698486,1,0.7621346712112427,-0.09000962972640991,0.6956824660301208,12.26806640625,-15.19775390625,-2.3193359375
6.747280836105347,-241698467,1,0.7269784212112427,-0.10734361410140991,0.7296180129051208,26.2451171875,-27.77099609375,6.77490234375
6.777133941650391,-241698451,0,0.5428379774093628,0.0401269793510437,0.9188449382781982,59.02099609375,-30.70068359375,7.4462890625
6.784053087234497,-241698448,1,0.7145272493362427,-0.12174791097640991,0.7196082472801208,32.3486328125,-27.83203125,6.40869140625
6.793941020965576,-241698432,0,0.5328282117843628,-0.1224706768989563,0.8573215007781982,4.7607421875,54.13818359375,-55.35888671875
6.794026851654053,-241698413,0,0.5298985242843628,-0.1268652081489563,0.9410617351531982,-22.94921875,81.84814453125,-53.89404296875
6.80893087387085,-241698412,1,0.6705819368362427,-0.006513535976409912,0.8331336379051208,33.50830078125,-7.2021484375,0.9765625
6.834211826324463,-241698394,0,0.5428379774093628,-0.0748632550239563,0.9310519695281982,-24.96337890625,74.52392578125,-19.34814453125
6.8387720584869385,-241698393,1,0.6146737337112427,0.08796888589859009,0.9200477004051208,41.68701171875,-8.11767578125,10.986328125
6.838855028152466,-241698374,1,0.5514413118362427,0.1409474015235901,0.9664344191551208,58.837890625,-11.3525390625,24.0478515625
6.853994846343994,-241698375,0,0.5245274305343628,-0.0694921612739563,0.9408175945281982,-21.30126953125,69.15283203125,-5.615234375
6.854069709777832,-241698356,0,0.5123203992843628,-0.0404394268989563,0.8690402507781982,-20.5078125,57.7392578125,-10.19287109375
6.8852880001068115,-241698355,1,0.4928475618362427,0.08918958902359009,0.9019812941551208,72.998046875,-10.986328125,30.76171875
6.892674922943115,-241698337,0,0.4639805257320404,-0.0504491925239563,0.8026340007781982,-20.3857421875,39.4287109375,-24.10888671875
6.898806810379028,-241698336,1,0.4794198274612427,0.05110365152359009,0.7674598097801208,81.54296875,7.38525390625,25.390625
6.898823022842407,-241698317,1,0.4698983430862427,0.04402357339859009,0.6549109816551208,85.44921875,25.20751953125,9.6435546875
6.928266763687134,-241698318,0,0.4332188069820404,-0.1629980206489563,0.7535617351531982,-23.25439453125,16.4794921875,-32.28759765625
6.92827296257019,-241698299,0,0.3765781819820404,-0.1918066143989563,0.6502902507781982,-13.36669921875,-11.5966796875,-16.66259765625
6.935274839401245,-241698298,1,0.3951913118362427,0.05891615152359009,0.5638465285301208,76.84326171875,62.255859375,-23.74267578125
6.935281038284302,-241698279,1,0.2777596712112427,0.12361341714859009,0.5079383254051208,68.84765625,95.21484375,-53.5888671875
6.943850755691528,-241698280,0,0.3228672444820404,-0.1732519268989563,0.5987765789031982,4.21142578125,-30.2734375,-1.953125
6.958777904510498,-241698260,1,0.18571865558624268,0.10823255777359009,0.48035043478012085,49.31640625,121.9482421875,-54.0771484375
6.981666803359985,-241698261,0,0.3001621663570404,-0.0797460675239563,0.5318820476531982,20.20263671875,-57.861328125,4.2724609375
6.981673002243042,-241698242,0,0.3475254476070404,0.0259668231010437,0.5306613445281982,22.15576171875,-66.0400390625,1.220703125
6.988969087600708,-241698241,1,0.12883388996124268,0.013994276523590088,0.5255164504051208,19.1650390625,132.50732421875,-31.92138671875
6.989001989364624,-241698222,1,0.13615810871124268,-0.1695994734764099,0.6224402785301208,-43.0908203125,129.57763671875,25.20751953125
7.004042148590088,-241698223,0,0.4400547444820404,0.1021386981010437,0.5064914226531982,-7.080078125,-4.39453125,5.55419921875
7.030807971954346,-241698203,1,0.2841073274612427,-0.3177928328514099,0.7166785597801208,-88.68408203125,138.36669921875,108.82568359375
7.035689115524292,-241698187,0,0.4385899007320404,0.0213281512260437,0.6688449382781982,-53.466796875,-20.44677734375,25.2685546875
7.048156976699829,-241698184,1,0.4713631868362427,-0.3422068953514099,0.7852820754051208,-104.1259765625,137.20703125,169.12841796875
7.076388835906982,-241698168,0,0.4424961507320404,-0.0704687237739563,0.7384250164031982,-69.580078125,-74.8291015625,10.6201171875
7.07639479637146,-241698149,0,0.4000156819820404,-0.2047460675239563,0.9205539226531982,-85.63232421875,-78.06396484375,-50.96435546875
7.08394980430603,-241698148,1,0.6063729524612427,-0.7870311141014099,0.8319129347801208,-75.74462890625,126.64794921875,160.2783203125
7.08395791053772,-241698129,1,0.6791268587112427,-0.9005565047264099,0.7410926222801208,-46.0205078125,105.77392578125,117.1875
7.094019889831543,-241698130,0,0.2506016194820404,-0.5121191143989563,1.0736300945281982,-101.62353515625,-57.861328125,-118.46923828125
7.109055042266846,-241698110,1,0.7679940462112427,-0.9230174422264099,0.7423133254051208,-26.06201171875,93.07861328125,82.21435546875
7.134069919586182,-241698111,0,0.2498692125082016,-0.7274511456489563,1.1078097820281982,-85.87646484375,-41.50390625,-134.58251953125
7.134074926376343,-241698092,0,0.2811191976070404,-0.6966894268989563,1.0526340007781982,-48.4619140625,-45.47119140625,-96.37451171875
7.138796806335449,-241698091,1,0.8124276399612427,-0.8619822859764099,0.8096961379051208,-15.625,99.7314453125,42.29736328125
7.138826131820679,-241698072,1,0.7450448274612427,-0.7733592391014099,0.9386023879051208,-26.85546875,99.853515625,21.1181640625
7.152312994003296,-241698073,0,0.2459629625082016,-0.5128515362739563,1.1297824382781982,-3.5400390625,-46.69189453125,-41.32080078125
7.152338981628418,-241698054,0,0.2559727132320404,-0.4681738018989563,1.1546847820281982,3.84521484375,-38.6962890625,-34.423828125
7.183328866958618,-241698053,1,0.7040292024612427,-0.6295604109764099,1.083377718925476,-37.78076171875,70.80078125,19.287109375
7.189490079879761,-241698035,0,0.2589024007320404,-0.4857519268989563,1.1373507976531982,-7.9345703125,-25.0244140625,-49.01123046875
7.198673963546753,-241698034,1,0.6671639680862427,-0.5355662703514099,1.146121859550476,-33.203125,27.9541015625,28.01513671875
7.198702812194824,-241698015,1,0.6246834993362427,-0.4845408797264099,1.050907015800476,-21.54541015625,-30.70068359375,37.2314453125
7.216665983200073,-241698016,0,0.2759922444820404,-0.5787695050239563,1.0562961101531982,-22.52197265625,-15.80810546875,-46.630859375
7.216671705245972,-241697997,0,0.2608555257320404,-0.5494726300239563,0.9349582195281982,-8.97216796875,-42.90771484375,-16.845703125
7.237652063369751,-241697996,1,0.5939217805862427,-0.4571971297264099,0.8795203566551208,-9.82666015625,-50.6591796875,28.564453125
7.243872880935669,-241697978,0,0.2620762288570404,-0.3944433331489563,0.8556125164031982,30.029296875,-110.4736328125,7.4462890625
7.257061958312988,-241697977,1,0.5319100618362427,-0.4318065047264099,0.8321570754051208,-7.38525390625,-34.66796875,17.76123046875
7.257138013839722,-241697958,1,0.5043221712112427,-0.4066600203514099,0.8863562941551208,-11.23046875,-14.7705078125,9.70458984375
7.283575773239136,-241697959,0,0.3489902913570404,-0.3719823956489563,0.8819797039031982,43.39599609375,-167.96875,10.43701171875
7.28870415687561,-241697939,1,0.4879647493362427,-0.3370799422264099,0.9276160597801208,-11.71875,-7.32421875,5.43212890625
7.288785934448242,-241697920,1,0.4288827180862427,-0.2960643172264099,0.9320105910301208,-7.38525390625,-19.4091796875,7.8125
7.3037049770355225,-241697923,0,0.7093418836593628,-0.4542577862739563,0.7511203289031982,36.9873046875,-115.478515625,20.08056640625
7.303750038146973,-241697904,0,0.6839512586593628,-0.3653905987739563,0.7159640789031982,46.875,-55.5419921875,40.52734375
7.332396745681763,-241697885,0,0.6883457899093628,-0.2613866925239563,0.5570285320281982,37.7197265625,-43.3349609375,40.52734375
7.348885774612427,-241697884,1,0.3124276399612427,-0.4115428328514099,0.8602332472801208,-13.12255859375,-45.59326171875,22.216796875
7.348918914794922,-241697865,1,0.3800545930862427,-0.4098338484764099,0.8538855910301208,-19.95849609375,-30.09033203125,30.70068359375
7.375983953475952,-241697866,0,0.7593907117843628,-0.1698339581489563,0.46376681327819824,7.62939453125,-46.69189453125,32.470703125
7.375988960266113,-241697847,0,0.8504551649093628,-0.2430761456489563,0.48720431327819824,-10.19287109375,-42.66357421875,35.21728515625
7.382359981536865,-241697846,1,0.4308358430862427,-0.4205760359764099,0.8819617629051208,-24.2919921875,-18.37158203125,33.87451171875
7.39389181137085,-241697828,0,0.7818516492843628,-0.3248632550239563,0.5497043132781982,-11.1083984375,-25.93994140625,50.9033203125
7.408883094787598,-241697827,1,0.4718514680862427,-0.4408397078514099,0.8988074660301208,-29.1748046875,-17.39501953125,30.57861328125
7.408914089202881,-241697808,1,0.4247323274612427,-0.4862498641014099,0.8856238722801208,-28.74755859375,-32.77587890625,22.4609375
7.434064865112305,-241697809,0,0.8118809461593628,-0.2294042706489563,0.5829074382781982,1.708984375,-13.36669921875,61.4013671875
7.434071779251099,-241697790,0,1.0159825086593628,-0.1783788800239563,0.6368625164031982,22.27783203125,-4.2724609375,62.80517578125
7.43878698348999,-241697789,1,0.3317147493362427,-0.5795115828514099,0.9310340285301208,-27.4658203125,-45.41015625,13.61083984375
7.438805818557739,-241697770,1,0.3910409212112427,-0.4757518172264099,0.8612098097801208,-21.728515625,-43.27392578125,12.20703125
7.4540228843688965,-241697771,0,0.9332188367843628,-0.0663183331489563,0.6732394695281982,37.90283203125,7.50732421875,36.62109375
7.482541799545288,-241697751,1,0.4371834993362427,-0.4286326766014099,0.8336219191551208,-28.4423828125,-30.70068359375,24.71923828125
7.4901978969573975,-241697752,0,0.9842442274093628,-0.0567968487739563,0.6549289226531982,38.6962890625,0.30517578125,24.96337890625
7.490203857421875,-241697733,0,0.9813145399093628,-0.0392187237739563,0.6756808757781982,16.11328125,24.4140625,20.32470703125
7.498759031295776,-241697732,1,0.4718514680862427,-0.4816111922264099,0.8873328566551208,-21.97265625,-33.3251953125,23.5595703125
7.4988298416137695,-241697713,1,0.4584237337112427,-0.4830760359764099,0.8673133254051208,-26.4892578125,-39.4287109375,15.13671875
7.531048059463501,-241697714,0,0.9183262586593628,-0.0228613018989563,0.7428195476531982,5.9814453125,51.3916015625,17.15087890625
7.531056880950928,-241697695,0,0.8756016492843628,-0.0379980206489563,0.7606418132781982,10.43701171875,49.8046875,9.94873046875
7.539762020111084,-241697694,1,0.4254647493362427,-0.5214061141014099,0.9029578566551208,-38.51318359375,-45.7763671875,15.56396484375
7.558901071548462,-241697675,1,0.4127694368362427,-0.5245799422264099,0.9173621535301208,-44.25048828125,-51.45263671875,18.49365234375
7.558935880661011,-241697656,1,0.4625741243362427,-0.5458201766014099,0.9469031691551208,-44.37255859375,-59.87548828125,34.0576171875
7.584445953369141,-241697659,0,0.8868321180343628,-0.0570409893989563,0.7108371257781982,19.10400390625,23.37646484375,-1.77001953125
7.584451913833618,-241697640,0,0.8865879774093628,-0.0321386456489563,0.7215793132781982,9.58251953125,37.59765625,-6.65283203125
7.589365005493164,-241697620,1,0.5450936555862427,-0.6713084578514099,0.9508094191551208,-39.4287109375,-77.2705078125,22.64404296875
7.603789806365967,-241697621,0,0.8724278211593628,-0.003574192523956299,0.6986300945281982,-6.65283203125,67.0166015625,7.8125
7.631029844284058,-241697601,1,0.5919686555862427,-0.7264842391014099,0.9730262160301208,-36.92626953125,-95.8251953125,5.55419921875
7.636695861816406,-241697602,0,0.8694981336593628,-0.0550878643989563,0.7240207195281982,-28.99169921875,85.205078125,18.06640625
7.636700868606567,-241697583,0,0.8973301649093628,-0.1217382550239563,0.8856418132781982,-49.98779296875,107.2998046875,23.62060546875
7.651055812835693,-241697582,1,0.6415292024612427,-0.7806834578514099,0.9920691847801208,-33.447265625,-139.34326171875,24.23095703125
7.651061773300171,-241697563,1,0.7555428743362427,-0.8170604109764099,0.9012488722801208,-29.052734375,-168.88427734375,38.6962890625
7.662341833114624,-241697564,0,0.8636387586593628,-0.1656835675239563,0.9015109539031982,-57.80029296875,133.97216796875,33.02001953125
7.662367820739746,-241697545,0,0.8851231336593628,-0.3426855206489563,0.9188449382781982,-52.55126953125,133.1787109375,56.45751953125
7.683108806610107,-241697544,1,0.8065682649612427,-0.9061717391014099,0.7276648879051208,-26.0009765625,-166.9921875,19.71435546875
7.6938769817352295,-241697526,0,0.8609532117843628,-0.2843359112739563,0.8895480632781982,-35.15625,141.41845703125,77.45361328125
7.708740949630737,-241697525,1,0.8094979524612427,-0.9276561141014099,0.5741004347801208,-26.85546875,-141.9677734375,-28.74755859375
7.708824872970581,-241697506,1,0.8571053743362427,-0.8400096297264099,0.5694617629051208,-34.66796875,-107.72705078125,-58.16650390625
7.733062028884888,-241697507,0,0.7364414930343628,-0.3168066143989563,0.7828586101531982,-17.27294921875,160.58349609375,84.1064453125
7.733068943023682,-241697488,0,0.6087559461593628,-0.3717382550239563,0.9041965007781982,5.9814453125,154.541015625,56.884765625
7.738993883132935,-241697487,1,0.8849374055862427,-0.7616404891014099,0.6136512160301208,-33.8134765625,-87.46337890625,-69.64111328125
7.753968000411987,-241697469,0,0.7156895399093628,-0.4310644268989563,1.0970675945281982,15.2587890625,149.35302734375,30.8837890625
7.780221939086914,-241697468,1,0.9420663118362427,-0.7008494734764099,0.5711707472801208,-15.93017578125,-74.27978515625,-77.81982421875
7.780228853225708,-241697449,1,0.9542733430862427,-0.7147654891014099,0.45471566915512085,-10.6201171875,-69.88525390625,-92.71240234375
7.7881879806518555,-241697450,0,0.6856602430343628,-0.4945409893989563,1.1627414226531982,28.86962890625,164.9169921875,44.921875
7.788194894790649,-241697431,0,0.6155918836593628,-0.4925878643989563,1.1229465007781982,48.828125,201.171875,71.35009765625
7.797224998474121,-241697430,1,0.9650155305862427,-0.6390818953514099,0.39319223165512085,-24.5361328125,-57.0068359375,-115.3564453125
7.797292947769165,-241697411,1,0.9506112337112427,-0.5370311141014099,0.40735238790512085,-39.48974609375,-36.62109375,-130.43212890625
7.812488079071045,-241697395,0,0.3423984944820404,-0.1844823956489563,0.8009250164031982,56.15234375,155.70068359375,64.8193359375
7.83840799331665,-241697392,1,0.8800545930862427,-0.3871287703514099,0.45813363790512085,-36.62109375,-15.380859375,-142.88330078125
7.842333078384399,-241697376,0,0.3028477132320404,-0.1610448956489563,0.7074191570281982,54.19921875,104.4921875,59.14306640625
7.857352018356323,-241697356,1,0.8051034212112427,-0.3810252547264099,0.37512582540512085,8.4228515625,17.76123046875,-123.6572265625
7.880927085876465,-241697357,0,0.1693028062582016,-0.0416601300239563,0.5633761882781982,37.9638671875,83.3740234375,66.83349609375
7.880932807922363,-241697338,0,0.0465000681579113,-0.1817968487739563,0.30165743827819824,-8.72802734375,68.359375,113.09814453125
7.887377977371216,-241697337,1,0.8068124055862427,-0.3910350203514099,0.29162973165512085,6.34765625,51.6357421875,-168.45703125
7.902716875076294,-241697319,0,-0.1053553968667984,-0.2694433331489563,0.32997775077819824,-17.7001953125,72.32666015625,144.775390625
7.92722487449646,-241697318,1,0.6569100618362427,-0.3402537703514099,0.26868051290512085,-25.32958984375,84.9609375,-207.09228515625
7.927231073379517,-241697299,1,0.5631600618362427,-0.2154979109764099,0.42761605978012085,-39.48974609375,91.552734375,-206.4208984375
7.932862997055054,-241697300,0,-0.004525322467088699,-0.0997655987739563,0.5453097820281982,10.19287109375,45.0439453125,120.78857421875
7.932866811752319,-241697281,0,0.0506504587829113,-0.0946386456489563,0.6417453289031982,52.3681640625,-12.02392578125,67.19970703125
7.94725489616394,-241697280,1,0.6222420930862427,-0.1283397078514099,0.36584848165512085,-11.962890625,68.42041015625,-172.607421875
7.9472620487213135,-241697261,1,0.7335702180862427,-0.4232615828514099,0.046024251729249954,-25.32958984375,85.87646484375,-165.95458984375
7.9624669551849365,-241697262,0,0.3260410726070404,-0.1791113018989563,1.0226047039031982,112.79296875,-77.63671875,60.85205078125
7.983751058578491,-241697242,1,0.9242440462112427,-0.6876658797264099,0.0013465173542499542,-76.66015625,138.3056640625,-249.0234375
7.992138147354126,-241697243,0,0.6527012586593628,0.1324121356010437,1.1639621257781982,124.755859375,-63.5986328125,86.48681640625
7.992159128189087,-241697224,0,0.8541172742843628,0.3514062762260437,1.1519992351531982,77.392578125,13.97705078125,78.30810546875
8.00743293762207,-241697223,1,0.9144784212112427,-0.3229197859764099,0.29455941915512085,-64.27001953125,184.26513671875,-336.42578125
8.007498741149902,-241697204,1,0.6923104524612427,-0.1722850203514099,0.49988168478012085,-9.033203125,200.25634765625,-321.59423828125
8.03109097480774,-241697205,0,0.7940586805343628,0.3186914324760437,1.0113742351531982,54.5654296875,65.00244140625,64.5751953125
8.031096935272217,-241697186,0,0.6024082899093628,0.2107812762260437,0.8941867351531982,66.40625,60.60791015625,54.19921875
8.038532972335815,-241697185,1,0.5367928743362427,-0.014570176601409912,0.7091102004051208,24.5361328125,177.490234375,-293.0908203125
8.05386996269226,-241697167,0,0.4617832601070404,0.1568261981010437,0.7606418132781982,91.49169921875,14.2822265625,54.87060546875
8.080906867980957,-241697166,1,0.4032479524612427,0.03767591714859009,0.8570594191551208,-23.86474609375,59.6923828125,-226.4404296875
8.080913066864014,-241697147,1,0.2968026399612427,0.1687794327735901,0.9740027785301208,-80.56640625,-37.2314453125,-152.9541015625
8.087700128555298,-241697131,0,0.2264317125082016,-0.1398046612739563,0.7735812664031982,69.580078125,-1.03759765625,103.82080078125
8.098588943481445,-241697128,1,0.2726327180862427,0.2239552140235901,0.9049109816551208,-70.73974609375,-30.8837890625,-129.2724609375
8.130995035171509,-241697112,0,0.1971348375082016,0.0979883074760437,0.7564914226531982,80.01708984375,3.41796875,99.365234375
8.140345811843872,-241697092,1,0.4569588899612427,0.1326466202735901,1.036502718925476,37.9638671875,-17.88330078125,-123.71826171875
8.14368486404419,-241697093,0,0.4083164632320404,0.1258203387260437,0.6905734539031982,82.8857421875,-38.6962890625,70.98388671875
8.143774032592773,-241697074,0,0.7144688367843628,0.2915918231010437,0.7018039226531982,77.0263671875,-67.93212890625,69.51904296875
8.158866882324219,-241697073,1,0.7150155305862427,0.05574232339859009,0.9964637160301208,37.04833984375,-88.2568359375,-95.64208984375
8.15890383720398,-241697054,1,0.6862069368362427,-0.03166002035140991,0.8631629347801208,-19.8974609375,-81.60400390625,-113.09814453125
8.185093879699707,-241697055,0,0.8431309461593628,0.3255273699760437,0.8082492351531982,49.1943359375,-40.22216796875,49.072265625
8.185099840164185,-241697036,0,0.6668614149093628,0.2300683856010437,0.9317843914031982,26.0009765625,15.93017578125,33.8134765625
8.190109968185425,-241697035,1,0.6971932649612427,0.004228651523590088,0.6385535597801208,-28.62548828125,-44.43359375,-129.94384765625
8.20258092880249,-241697017,0,0.4097813069820404,0.0318261981010437,0.9906222820281982,13.36669921875,29.78515625,34.5458984375
8.217217922210693,-241697016,1,0.7299081087112427,-0.04215806722640991,0.5941199660301208,-19.53125,-13.3056640625,-138.48876953125
8.218341827392578,-241696997,1,0.7064706087112427,-0.017255723476409912,0.5692176222801208,4.2724609375,-20.32470703125,-125.3662109375
8.242464780807495,-241696998,0,0.1060703843832016,-0.1620214581489563,1.0240695476531982,36.92626953125,11.5966796875,58.28857421875
8.242470979690552,-241696979,0,0.1339024156332016,0.0491601824760437,1.0392062664031982,72.69287109375,-14.58740234375,86.24267578125
8.248755931854248,-241696978,1,0.5284920930862427,-0.007978379726409912,0.8074988722801208,3.47900390625,-36.4990234375,-120.91064453125
8.248849868774414,-241696959,1,0.21306240558624268,0.2554493546485901,0.9708289504051208,-1.52587890625,3.23486328125,-130.0048828125
8.263365983963013,-241696960,0,0.4085606038570404,0.3616601824760437,0.8536593914031982,81.4208984375,-38.02490234375,68.4814453125
8.285237789154053,-241696940,1,-0.012279383838176727,0.3990040421485901,1.066043734550476,10.19287109375,36.07177734375,-116.14990234375
8.29375696182251,-241696941,0,0.7054356336593628,0.5469629168510437,0.7472140789031982,47.30224609375,-28.50341796875,39.36767578125
8.293826818466187,-241696922,0,0.7625645399093628,0.5320703387260437,0.7833468914031982,9.521484375,16.17431640625,2.86865234375
8.308840990066528,-241696921,1,-0.023753993213176727,0.4656544327735901,1.091190218925476,23.5595703125,1.46484375,-52.8564453125
8.308868885040283,-241696902,1,0.07829678803682327,0.4646778702735901,1.133914828300476,53.7109375,-45.5322265625,0.3662109375
8.33113694190979,-241696903,0,0.4708164632320404,0.2449609637260437,0.8243625164031982,-0.48828125,46.7529296875,-10.68115234375
8.339545965194702,-241696883,1,0.23186123371124268,0.3770313858985901,1.020145297050476,62.6220703125,-35.15625,-7.2021484375
8.35385513305664,-241696867,0,0.0902012437582016,0.0706445574760437,0.8490207195281982,21.97265625,25.5126953125,12.6953125
8.378866910934448,-241696864,1,0.3304940462112427,0.6099415421485901,0.8219031691551208,61.4013671875,5.92041015625,-24.71923828125
8.383586883544922,-241696848,0,0.1888340562582016,0.2320215106010437,0.8326632976531982,25.32958984375,30.33447265625,18.310546875
8.383591890335083,-241696829,0,0.5040196180343628,0.3953515887260437,0.7340304851531982,18.24951171875,24.47509765625,-2.50244140625
8.398635864257812,-241696828,1,0.6178475618362427,0.4043751358985901,0.8319129347801208,65.4296875,36.07177734375,-36.865234375
8.398709774017334,-241696809,1,0.6110116243362427,0.4646778702735901,0.8255652785301208,55.6640625,-11.77978515625,-12.5732421875
8.427196979522705,-241696810,0,0.6712559461593628,0.3745996356010437,0.8453586101531982,3.96728515625,34.24072265625,-11.1083984375
8.435511827468872,-241696790,1,0.5089608430862427,0.4676075577735901,0.6846961379051208,44.0673828125,4.7607421875,2.197265625
8.443828105926514,-241696791,0,0.4959629476070404,0.2820703387260437,0.8048312664031982,2.197265625,43.64013671875,-9.6435546875
8.443859100341797,-241696772,0,0.3709629476070404,0.2210351824760437,0.7723605632781982,-0.244140625,38.51318359375,-9.21630859375
8.45873498916626,-241696771,1,0.4020272493362427,0.4478321671485901,0.5758094191551208,36.56005859375,34.85107421875,-0.3662109375
8.45881986618042,-241696752,1,0.3573495149612427,0.4363575577735901,0.5523719191551208,28.01513671875,32.16552734375,3.84521484375
8.485284805297852,-241696753,0,0.2256992906332016,0.1343652606010437,0.7799289226531982,-6.16455078125,45.0439453125,5.9814453125
8.485290765762329,-241696734,0,0.1863926500082016,0.2644922137260437,0.7386691570281982,7.32421875,43.5791015625,17.4560546875
8.49032187461853,-241696733,1,0.3788338899612427,0.5113087296485901,0.6629676222801208,32.71484375,-1.5869140625,13.0615234375
8.503789901733398,-241696715,0,0.3270176351070404,0.4183008074760437,0.6422336101531982,2.74658203125,32.04345703125,3.7841796875
8.530754804611206,-241696714,1,0.4742928743362427,0.5515919327735901,0.6392859816551208,55.7861328125,-36.4990234375,31.982421875
8.530761003494263,-241696695,1,0.6215096712112427,0.6214161515235901,0.5948523879051208,66.22314453125,-15.9912109375,43.212890625
8.536922931671143,-241696696,0,0.3990391194820404,0.4978906512260437,0.6397922039031982,-13.36669921875,45.0439453125,-8.85009765625
8.537271976470947,-241696677,0,0.3004063069820404,0.4915429949760437,0.6622531414031982,-43.8232421875,65.97900390625,-34.5458984375
8.54929804801941,-241696676,1,0.4677010774612427,0.5049610733985901,0.47180551290512085,53.7109375,0.1220703125,53.466796875
8.576723098754883,-241696658,0,-0.0094081349670887,0.3626367449760437,0.7957980632781982,-50.29296875,38.6962890625,-47.7294921875
8.583277940750122,-241696657,1,0.4122811555862427,0.4768849015235901,0.45642465353012085,46.20361328125,-28.86962890625,57.9833984375
8.583282947540283,-241696638,1,0.3951913118362427,0.6194630265235901,0.32727426290512085,32.3486328125,-92.6513671875,67.2607421875
8.594807863235474,-241696639,0,-0.1829921156167984,0.0816308856010437,0.6634738445281982,-18.85986328125,-27.9541015625,-49.98779296875
8.608839988708496,-241696619,1,0.4017831087112427,0.6038380265235901,0.33996957540512085,56.94580078125,-111.9384765625,66.95556640625
8.608920812606812,-241696600,1,0.3988534212112427,0.6516895890235901,0.17615120112895966,165.83251953125,-120.361328125,53.7109375
8.631720066070557,-241696603,0,0.4649570882320404,0.5594140887260437,0.8880832195281982,47.607421875,-33.0810546875,-51.6357421875
8.631724834442139,-241696584,0,0.2715977132320404,0.1119043231010437,0.7848117351531982,69.2138671875,-18.310546875,-69.88525390625
8.65149712562561,-241696565,0,0.3240879476070404,0.2969629168510437,0.7545382976531982,74.8291015625,-6.77490234375,-56.396484375
8.676426887512207,-241696564,1,0.6200448274612427,0.2220020890235901,0.41516488790512085,193.4814453125,-43.0908203125,43.45703125
8.676431894302368,-241696545,1,0.5634042024612427,0.4146290421485901,0.32532113790512085,109.55810546875,-17.822265625,-24.96337890625
8.68357801437378,-241696546,0,0.3179844319820404,0.3699609637260437,0.7782199382781982,103.759765625,3.35693359375,-23.25439453125
8.683652877807617,-241696527,0,0.3963535726070404,0.5523340106010437,0.6666476726531982,114.07470703125,-40.46630859375,16.41845703125
8.698593854904175,-241696526,1,0.6036874055862427,0.7107716202735901,0.39050668478012085,27.4658203125,-19.83642578125,-23.92578125
8.72775411605835,-241696508,0,0.3680332601070404,0.7037011981010437,0.6527316570281982,122.4365234375,-40.52734375,32.40966796875
8.736308097839355,-241696507,1,0.6300545930862427,0.7439747452735901,0.37634652853012085,21.91162109375,2.3193359375,4.82177734375
8.736312866210938,-241696488,1,0.5831795930862427,0.6026173233985901,0.46765512228012085,18.61572265625,33.14208984375,-4.2724609375
8.743710041046143,-241696489,0,0.4439609944820404,0.6873437762260437,0.7059543132781982,98.08349609375,-41.68701171875,53.1005859375
8.743783950805664,-241696470,0,0.3709629476070404,0.7222558856010437,0.9232394695281982,30.8837890625,-14.6484375,94.90966796875
8.758645057678223,-241696469,1,0.7655526399612427,0.5154591202735901,0.6143836379051208,5.79833984375,27.2216796875,-6.8359375
8.758686065673828,-241696450,1,0.7972909212112427,0.6394825577735901,0.5501746535301208,-30.1513671875,13.00048828125,2.8076171875
8.785053968429565,-241696451,0,0.5023106336593628,0.6087304949760437,0.7191379070281982,-10.80322265625,-30.45654296875,151.9775390625
8.789906024932861,-241696431,1,0.7262459993362427,0.5970020890235901,0.6734656691551208,-100.4638671875,32.470703125,-38.9404296875
8.802233934402466,-241696432,0,0.6273106336593628,0.7083398699760437,0.49135470390319824,-63.5986328125,-16.90673828125,198.486328125
8.80224895477295,-241696413,0,0.5997227430343628,0.5269433856010437,0.8021457195281982,-130.43212890625,48.03466796875,205.99365234375
8.8346529006958,-241696412,1,0.4088631868362427,0.5435352921485901,0.8050574660301208,-123.4130859375,28.86962890625,-61.34033203125
8.834661960601807,-241696393,1,0.8124276399612427,0.6685352921485901,0.6449012160301208,-101.74560546875,-8.056640625,-22.88818359375
8.842074871063232,-241696394,0,0.3824375569820404,0.0603906512260437,1.0406711101531982,-200.50048828125,47.2412109375,137.39013671875
8.84208083152771,-241696375,0,0.3834141194820404,-0.1776464581489563,0.9771945476531982,-162.53662109375,24.0478515625,115.53955078125
8.848766088485718,-241696374,1,0.9589120149612427,0.6638966202735901,0.6026648879051208,-57.55615234375,54.0771484375,40.34423828125
8.886063814163208,-241696355,1,0.9095956087112427,0.5074024796485901,0.7100867629051208,-57.80029296875,62.6220703125,67.138671875
8.88736081123352,-241696336,1,0.8348885774612427,0.4573536515235901,0.8551062941551208,-68.84765625,16.2353515625,102.9052734375
8.892210006713867,-241696339,0,0.6878575086593628,0.0716211199760437,0.8253390789031982,3.41796875,4.5166015625,55.0537109375
8.892228841781616,-241696320,0,0.6717442274093628,0.0408594012260437,1.0196750164031982,-30.517578125,5.31005859375,-2.685546875
8.907317161560059,-241696300,1,0.9464608430862427,0.3970509171485901,0.7374305129051208,-17.15087890625,-9.33837890625,133.9111328125
8.931682825088501,-241696301,0,0.5838536024093628,-0.0995214581489563,1.1092746257781982,-29.9072265625,32.04345703125,-0.91552734375
8.936985969543457,-241696281,1,0.9386483430862427,0.3074513077735901,0.7061805129051208,-0.67138671875,30.517578125,117.67578125
8.952085733413696,-241696282,0,0.5269688367843628,-0.1561620831489563,1.0238254070281982,-13.00048828125,35.33935546875,28.86962890625
8.952116012573242,-241696263,0,0.5428379774093628,0.0552636981010437,0.9134738445281982,20.01953125,23.01025390625,52.67333984375
8.977417945861816,-241696262,1,0.8549081087112427,0.1914845108985901,0.6927527785301208,24.71923828125,72.69287109375,89.66064453125
8.977423906326294,-241696243,1,0.7074471712112427,0.05256849527359009,0.6927527785301208,31.79931640625,80.6884765625,61.21826171875
8.982783079147339,-241696244,0,0.5721348524093628,0.1951562762260437,0.7975070476531982,16.6015625,18.6767578125,49.072265625
8.982787847518921,-241696225,0,0.5408848524093628,0.2349511981010437,0.7967746257781982,-4.2724609375,33.0810546875,45.8984375
8.997138023376465,-241696224,1,0.6595956087112427,0.3926563858985901,0.6444129347801208,52.06298828125,63.78173828125,39.00146484375
9.012268781661987,-241696206,0,0.4859531819820404,0.1805078387260437,0.7853000164031982,-17.51708984375,43.39599609375,34.3017578125
9.035017013549805,-241696205,1,0.5065194368362427,0.8648243546485901,0.46887582540512085,81.48193359375,0.91552734375,60.85205078125
9.035022974014282,-241696186,1,0.7701913118362427,0.5991993546485901,0.41345590353012085,52.42919921875,-16.05224609375,61.34033203125
9.042344093322754,-241696187,0,0.4644688069820404,0.2325097918510437,0.7679660320281982,-9.521484375,68.66455078125,33.8134765625
9.042391777038574,-241696168,0,0.4686191976070404,0.2820703387260437,0.7081515789031982,9.21630859375,61.21826171875,28.38134765625
9.057003736495972,-241696167,1,0.6798592805862427,0.3682423233985901,0.48816293478012085,20.32470703125,32.958984375,17.76123046875
9.085077047348022,-241696149,0,0.5098789930343628,0.3191797137260437,0.7469699382781982,-6.8359375,68.7255859375,-4.57763671875
9.090430974960327,-241696148,1,0.7521249055862427,0.3711720108985901,0.6043738722801208,7.32421875,39.6728515625,7.32421875
9.090435981750488,-241696129,1,0.8605233430862427,0.3477345108985901,0.6553992629051208,-1.953125,16.7236328125,6.04248046875
9.102173089981079,-241696130,0,0.4966953694820404,0.3008691668510437,0.8121554851531982,-27.77099609375,98.2666015625,-12.5732421875
9.102192878723145,-241696111,0,0.5352696180343628,-0.0348241925239563,1.0282199382781982,-33.5693359375,92.95654296875,10.07080078125
9.132129907608032,-241696110,1,0.9159432649612427,0.3223438858985901,0.6751746535301208,-10.07080078125,-4.08935546875,12.51220703125
9.132191896438599,-241696091,1,0.9679452180862427,0.2837696671485901,0.6915320754051208,-29.72412109375,-20.5078125,12.87841796875
9.140135049819946,-241696075,0,0.5125645399093628,-0.0853613018989563,1.1270968914031982,42.05322265625,13.0615234375,79.9560546875
9.14714503288269,-241696072,1,0.9757577180862427,0.3396778702735901,0.6785926222801208,-41.6259765625,-10.7421875,4.57763671875
9.162254810333252,-241696056,0,0.5406407117843628,0.1880761981010437,1.1341769695281982,58.2275390625,30.029296875,69.88525390625
