sync_time,timestamp_ms,device_id,ax,ay,az,gx,gy,gz
0.029786109924316406,-1382683766,0,0.426612913608551,-0.45089519023895264,-0.6954222321510315,2.197265625,5.7373046875,25.93994140625
0.0298001766204834,-1382683747,0,0.422706663608551,-0.46359050273895264,-0.6920042634010315,1.15966796875,6.77490234375,28.3203125
0.029916048049926758,-1382683752,1,-0.5417051911354065,-0.5510823130607605,-0.5728887915611267,14.7705078125,11.29150390625,-0.67138671875
0.029994964599609375,-1382683728,0,0.431251585483551,-0.47921550273895264,-0.6924925446510315,-0.3662109375,5.18798828125,29.23583984375
0.05552983283996582,-1382683733,1,-0.5348692536354065,-0.5679280161857605,-0.5584844946861267,17.2119140625,13.7939453125,2.5634765625
0.05553913116455078,-1382683714,1,-0.5253477692604065,-0.5767170786857605,-0.5702032446861267,17.51708984375,17.63916015625,6.04248046875
0.05955195426940918,-1382683709,0,0.443946897983551,-0.48873698711395264,-0.6949339509010315,-3.2958984375,11.77978515625,32.2265625
0.05955910682678223,-1382683690,0,0.457130491733551,-0.49337565898895264,-0.6893187165260315,-8.11767578125,15.2587890625,33.26416015625
0.08028006553649902,-1382683695,1,-0.5207090973854065,-0.5696370005607605,-0.5841192603111267,13.97705078125,24.47509765625,8.72802734375
0.0892488956451416,-1382683671,0,0.470069944858551,-0.49191081523895264,-0.6939573884010315,-11.53564453125,19.1650390625,33.02001953125
0.08934283256530762,-1382683652,0,0.474220335483551,-0.49630534648895264,-0.6951780915260315,-13.85498046875,17.27294921875,32.40966796875
0.10428881645202637,-1382683676,1,-0.5380430817604065,-0.5674397349357605,-0.6219610571861267,10.498046875,23.92578125,13.36669921875
0.10439896583557129,-1382683657,1,-0.5482969880104065,-0.5835530161857605,-0.6673712134361267,10.43701171875,18.5546875,16.4794921875
0.12338709831237793,-1382683633,0,0.461280882358551,-0.48409831523895264,-0.6812620759010315,-14.7705078125,7.32421875,36.92626953125
0.13406777381896973,-1382683621,1,-0.5312071442604065,-0.5750080943107605,-0.6041387915611267,24.658203125,7.9345703125,23.62060546875
0.14927411079406738,-1382683614,0,0.455177366733551,-0.47237956523895264,-0.6898069977760315,-16.78466796875,-2.62451171875,41.8701171875
0.1494450569152832,-1382683595,0,0.454933226108551,-0.46432292461395264,-0.6915159821510315,-17.578125,-1.46484375,47.2412109375
0.17100787162780762,-1382683602,1,-0.5194883942604065,-0.5410725474357605,-0.5709356665611267,24.84130859375,10.009765625,27.52685546875
0.19338297843933105,-1382683583,1,-0.5331602692604065,-0.5190998911857605,-0.5597051978111267,21.54541015625,16.2353515625,31.982421875
0.19425606727600098,-1382683564,1,-0.5353575348854065,-0.5269123911857605,-0.6190313696861267,10.55908203125,19.71435546875,34.97314453125
0.21567392349243164,-1382683559,0,0.452247679233551,-0.46310222148895264,-0.6985960602760315,-28.1982421875,10.68115234375,45.166015625
0.2156820297241211,-1382683540,0,0.463234007358551,-0.44869792461395264,-0.7042112946510315,-32.16552734375,11.474609375,41.68701171875
0.24079203605651855,-1382683521,0,0.452735960483551,-0.45528972148895264,-0.6946898102760315,-30.76171875,4.45556640625,44.5556640625
0.2408921718597412,-1382683502,0,0.442482054233551,-0.46578776836395264,-0.6761351227760315,-29.60205078125,-1.953125,46.44775390625
0.27388691902160645,-1382683483,0,0.450294554233551,-0.47286784648895264,-0.6741819977760315,-26.42822265625,0.9765625,51.513671875
0.2846808433532715,-1382683545,1,-0.5500059723854065,-0.5335041880607605,-0.6471075415611267,8.85009765625,17.02880859375,37.9638671875
0.285006046295166,-1382683526,1,-0.5397520661354065,-0.5471760630607605,-0.6429571509361267,14.09912109375,11.53564453125,38.6962890625
0.28502392768859863,-1382683507,1,-0.5087462067604065,-0.5376545786857605,-0.5929083228111267,25.146484375,11.3525390625,36.7431640625
0.28543782234191895,-1382683488,1,-0.5111876130104065,-0.5354573130607605,-0.5421270728111267,30.2734375,16.29638671875,33.63037109375
0.3026149272918701,-1382683464,0,0.404640257358551,-0.5019205808639526,-0.6578245759010315,-26.4892578125,10.80322265625,50.96435546875
0.3026249408721924,-1382683445,0,0.411232054233551,-0.5153483152389526,-0.6453734040260315,-28.62548828125,14.95361328125,43.64013671875
0.32416701316833496,-1382683469,1,-0.4882383942604065,-0.5437580943107605,-0.5269903540611267,28.9306640625,20.81298828125,29.4189453125
0.3291020393371582,-1382683426,0,0.409034788608551,-0.5229166746139526,-0.6395140290260315,-29.96826171875,19.6533203125,42.54150390625
0.345491886138916,-1382683450,1,-0.4904356598854065,-0.5576741099357605,-0.5059942603111267,16.29638671875,23.8037109375,32.89794921875
0.3455021381378174,-1382683431,1,-0.4782286286354065,-0.6138264536857605,-0.4986700415611267,11.474609375,27.28271484375,33.99658203125
0.37139296531677246,-1382683407,0,0.399513304233551,-0.5238932371139526,-0.6207152009010315,-31.005859375,24.0478515625,48.03466796875
0.3714008331298828,-1382683388,0,0.421241819858551,-0.49874675273895264,-0.6021605134010315,-34.36279296875,42.78564453125,58.4716796875
0.3754148483276367,-1382683412,1,-0.4396544098854065,-0.6414143443107605,-0.4483770728111267,23.3154296875,35.09521484375,39.48974609375
0.37542295455932617,-1382683393,1,-0.3996153473854065,-0.5635334849357605,-0.4244512915611267,29.84619140625,55.84716796875,44.0673828125
0.38927698135375977,-1382683369,0,0.415382444858551,-0.5060709714889526,-0.6109495759010315,-45.7763671875,64.88037109375,52.42919921875
0.4045438766479492,-1382683357,1,-0.4882383942604065,-0.5447346568107605,-0.6324591040611267,-10.7421875,63.29345703125,46.2646484375
0.42194199562072754,-1382683350,0,0.436134397983551,-0.49777019023895264,-0.6331663727760315,-51.6357421875,63.04931640625,33.203125
0.4219491481781006,-1382683331,0,0.463234007358551,-0.5129069089889526,-0.6456175446510315,-48.2177734375,53.22265625,31.1279296875
0.4344139099121094,-1382683338,1,-0.5016661286354065,-0.6331135630607605,-0.6656622290611267,-1.52587890625,53.28369140625,45.8984375
0.4344348907470703,-1382683319,1,-0.4723692536354065,-0.6494709849357605,-0.6104864478111267,16.29638671875,46.2646484375,45.7763671875
0.4491608142852783,-1382683295,0,0.496681272983551,-0.5216959714889526,-0.6280394196510315,-42.41943359375,48.27880859375,55.72509765625
0.4724240303039551,-1382683300,1,-0.3737364411354065,-0.6455647349357605,-0.4766973853111267,33.3251953125,54.50439453125,47.42431640625
0.4804990291595459,-1382683276,0,0.506446897983551,-0.5343912839889526,-0.6343870759010315,-52.8564453125,79.7119140625,58.65478515625
0.49439191818237305,-1382683281,1,-0.4179258942604065,-0.5515705943107605,-0.5094122290611267,26.85546875,88.9892578125,48.76708984375
0.49450111389160156,-1382683262,1,-0.4228087067604065,-0.5481526255607605,-0.5831426978111267,-11.71875,94.8486328125,50.47607421875
0.5200240612030029,-1382683257,0,0.504005491733551,-0.5424479246139526,-0.6329222321510315,-70.61767578125,103.8818359375,32.5927734375
0.5200309753417969,-1382683238,0,0.553077757358551,-0.5502604246139526,-0.7005491852760315,-82.94677734375,112.79296875,13.427734375
0.5256180763244629,-1382683243,1,-0.4435606598854065,-0.6558186411857605,-0.6632208228111267,-39.24560546875,110.65673828125,55.11474609375
0.539463996887207,-1382683219,0,0.588966429233551,-0.5409830808639526,-0.6885862946510315,-92.59033203125,116.63818359375,9.27734375
0.5542891025543213,-1382683224,1,-0.4301329255104065,-0.6812092661857605,-0.6378301978111267,-38.75732421875,120.91064453125,68.115234375
0.5543639659881592,-1382683205,1,-0.3407774567604065,-0.6025959849357605,-0.4828009009361267,-1.0986328125,143.798828125,59.2041015625
0.5760610103607178,-1382683200,0,0.573341429233551,-0.49606120586395264,-0.6619749665260315,-88.56201171875,141.29638671875,25.5126953125
0.5760700702667236,-1382683181,0,0.551368772983551,-0.48116862773895264,-0.6055784821510315,-92.041015625,194.88525390625,31.31103515625
0.5983970165252686,-1382683162,0,0.498878538608551,-0.26949870586395264,-0.5936155915260315,-108.2763671875,249.32861328125,13.3056640625
0.5991871356964111,-1382683143,0,0.987403929233551,-0.36788737773895264,-0.2696410119533539,-140.869140625,290.58837890625,7.01904296875
0.6206581592559814,-1382683186,1,0.0920838862657547,-0.6992756724357605,-0.8136114478111267,17.02880859375,167.90771484375,39.36767578125
0.6206650733947754,-1382683167,1,-0.1950254887342453,-0.2949788272380829,-0.2640509009361267,-5.126953125,84.3505859375,58.28857421875
0.6206707954406738,-1382683148,1,0.0283631794154644,0.3378336727619171,-1.0294318199157715,-109.19189453125,133.48388671875,-31.43310546875
0.6291580200195312,-1382683124,0,1.0674821138381958,0.050813786685466766,-0.4283324182033539,-107.72705078125,281.67724609375,-88.8671875
0.644089937210083,-1382683129,1,0.3205994963645935,-0.03667803853750229,-0.7572149634361267,-278.9306640625,223.0224609375,-27.52685546875
0.6684219837188721,-1382683105,0,1.0643082857131958,-0.30172526836395264,-0.09849842637777328,-92.95654296875,255.06591796875,-88.43994140625
0.6684300899505615,-1382683086,0,0.979103147983551,-0.28805339336395264,-0.06480702012777328,-88.19580078125,203.4912109375,-86.36474609375
0.6740140914916992,-1382683093,1,0.2334413081407547,-0.8821370005607605,-1.1402716636657715,-183.7158203125,159.7900390625,47.42431640625
0.6915161609649658,-1382683067,0,0.897316038608551,-0.39303386211395264,-0.09263905137777328,-102.05078125,184.63134765625,-40.34423828125
0.7045369148254395,-1382683074,1,0.0388612262904644,-0.3713948428630829,-1.1759161949157715,-86.85302734375,226.806640625,75.13427734375
0.7046079635620117,-1382683055,1,-0.0985899418592453,-0.05547686666250229,-1.2183966636657715,-87.58544921875,215.63720703125,63.90380859375
0.7240407466888428,-1382683031,0,0.946144163608551,0.009554021060466766,-0.011828504502773285,-67.626953125,127.197265625,3.0517578125
0.7366387844085693,-1382683036,1,-0.0834532231092453,0.08563641458749771,-1.2076544761657715,-125.30517578125,166.44287109375,63.8427734375
0.7366487979888916,-1382683017,1,-0.1769590824842453,-0.11968585103750229,-1.3414435386657715,-132.080078125,152.64892578125,31.31103515625
0.7495319843292236,-1382683012,0,0.868995726108551,-0.13741862773895264,0.018200792372226715,-24.2919921875,36.68212890625,-21.91162109375
0.7496170997619629,-1382682993,0,0.960548460483551,-0.15841472148895264,-0.013781629502773285,-29.1748046875,-10.1318359375,-38.39111328125
0.7706160545349121,-1382682998,1,-0.3437071442604065,-0.18316242098808289,-1.4535040855407715,-81.60400390625,110.595703125,-16.6015625
0.7933900356292725,-1382682979,1,-0.2243223637342453,0.02020672708749771,-1.2391486167907715,-18.1884765625,37.90283203125,-104.30908203125
0.7941150665283203,-1382682960,1,-0.2296934574842453,-0.04424639791250229,-1.0860724449157715,12.5732421875,-61.8896484375,-114.6240234375
0.8173401355743408,-1382682974,0,1.0376969575881958,-0.08224285393953323,-0.062121473252773285,-47.91259765625,-57.80029296875,-16.17431640625
0.8173511028289795,-1382682955,0,1.1319352388381958,0.14724934101104736,-0.18541249632835388,-19.71435546875,-95.703125,35.888671875
0.8173580169677734,-1382682936,0,1.0127946138381958,0.32937824726104736,-0.012805067002773285,47.8515625,-125.42724609375,93.1396484375
0.8282499313354492,-1382682941,1,-0.6508360505104065,-0.16070148348808289,-0.8311895728111267,25.5126953125,-27.28271484375,67.87109375
0.8391499519348145,-1382682917,0,1.0511246919631958,0.34573566913604736,-0.11729725450277328,94.05517578125,-125.244140625,96.8017578125
0.8542928695678711,-1382682922,1,-0.2067442387342453,0.14911296963691711,-1.0370001792907715,21.17919921875,-106.75048828125,119.32373046875
0.8543999195098877,-1382682903,1,-0.6523008942604065,0.19086101651191711,-1.0247931480407715,-86.0595703125,-125.42724609375,155.6396484375
0.8760061264038086,-1382682898,0,0.928810179233551,0.20144855976104736,0.06751719862222672,94.42138671875,-122.37548828125,109.55810546875
0.876013994216919,-1382682879,0,0.639259397983551,0.16189777851104736,0.22767344117164612,84.65576171875,-140.7470703125,111.51123046875
0.8840348720550537,-1382682884,1,0.0312928669154644,0.19232586026191711,-1.3883185386657715,16.2353515625,-124.6337890625,107.11669921875
0.8992900848388672,-1382682860,0,1.3152848482131958,0.33401691913604736,-0.4703246057033539,88.19580078125,-26.0009765625,41.93115234375
0.8993799686431885,-1382682841,0,1.1624528169631958,-0.22530925273895264,-0.5101194977760315,120.54443359375,-123.6572265625,79.58984375
0.9231667518615723,-1382682865,1,0.2812928557395935,0.4796793758869171,-1.3380255699157715,91.552734375,93.26171875,127.3193359375
0.9290750026702881,-1382682822,0,1.2171403169631958,-0.0038737133145332336,-0.6614866852760315,179.62646484375,-245.54443359375,145.08056640625
0.9442920684814453,-1382682829,1,-0.2167540043592453,0.24042156338691711,-1.4354376792907715,137.02392578125,66.162109375,171.142578125
0.9444639682769775,-1382682810,1,-0.4125548005104065,0.3178141415119171,-1.4549689292907715,172.91259765625,115.53955078125,189.5751953125
0.9728281497955322,-1382682803,0,0.982276976108551,-0.06319988518953323,-0.6238890290260315,254.39453125,-347.10693359375,203.369140625
0.9766669273376465,-1382682791,1,-0.3483458161354065,0.3898356258869171,-1.3453497886657715,234.375,183.349609375,202.69775390625
0.9892358779907227,-1382682767,0,0.654640257358551,-0.10836590081453323,-0.7313109040260315,223.0224609375,-248.4130859375,216.24755859375
1.0044589042663574,-1382682772,1,-0.1137266606092453,0.3690836727619171,-1.2772345542907715,244.140625,197.81494140625,141.7236328125
1.004633903503418,-1382682753,1,0.0935487300157547,0.2926676571369171,-1.2984747886657715,193.54248046875,192.2607421875,112.060546875
1.0244078636169434,-1382682748,0,0.787452757358551,-0.07418621331453323,-1.0875121355056763,122.25341796875,-44.12841796875,121.337890625
1.0244169235229492,-1382682729,0,0.972023069858551,-0.26241862773895264,-1.2132445573806763,39.9169921875,43.15185546875,27.77099609375
1.037437915802002,-1382682734,1,-0.2553282380104065,0.23090007901191711,-1.7391486167907715,85.8154296875,115.1123046875,149.7802734375
1.0493018627166748,-1382682710,0,1.1897965669631958,-0.8883951902389526,-1.2955199480056763,-24.35302734375,89.41650390625,-56.70166015625
1.0709280967712402,-1382682715,1,-0.1486387699842453,-0.2590901553630829,-1.7706427574157715,-1.15966796875,37.841796875,160.58349609375
1.070936918258667,-1382682696,1,-0.0751524418592453,-0.6589924693107605,-1.7630743980407715,-52.490234375,39.36767578125,170.95947265625
1.0830669403076172,-1382682691,0,1.3331071138381958,-0.8959635496139526,-1.4996215105056763,-71.533203125,63.53759765625,-95.703125
1.0830790996551514,-1382682672,0,1.3929215669631958,-0.8583658933639526,-1.5577269792556763,-108.5205078125,28.076171875,-86.42578125
1.094407081604004,-1382682677,1,0.1780213862657547,-0.9624592661857605,-1.5213751792907715,-109.130859375,39.0625,162.4755859375
1.094494104385376,-1382682658,1,0.2954530119895935,-0.8992268443107605,-1.4520392417907715,-178.5888671875,44.7998046875,130.79833984375
1.1199588775634766,-1382682653,0,1.4017106294631958,-0.8522623777389526,-1.4380980730056763,-125.8544921875,17.9443359375,-76.23291015625
1.1199698448181152,-1382682634,0,1.3353043794631958,-0.9750651121139526,-1.2662230730056763,-144.10400390625,22.03369140625,-113.28125
1.1246559619903564,-1382682639,1,0.2612733244895935,-0.8987385630607605,-1.4058966636657715,-227.35595703125,21.3623046875,95.52001953125
1.139430046081543,-1382682615,0,1.3045426607131958,-0.9870280027389526,-1.1214476823806763,-166.56494140625,13.85498046875,-164.9169921875
1.1546850204467773,-1382682620,1,0.2671326994895935,-0.8645588755607605,-1.3094611167907715,-239.68505859375,25.93994140625,73.8525390625
1.1547911167144775,-1382682601,1,0.2483338862657547,-0.8176838755607605,-1.1307501792907715,-236.4501953125,44.3115234375,51.33056640625
1.1761350631713867,-1382682596,0,1.2830582857131958,-0.9230631589889526,-1.0098754167556763,-168.8232421875,-2.62451171875,-177.79541015625
1.176145076751709,-1382682577,0,1.1358414888381958,-0.9123209714889526,-0.8028441071510315,-161.376953125,-48.4619140625,-157.65380859375
1.1979329586029053,-1382682558,0,0.775978147983551,-0.8940104246139526,-0.6229124665260315,-149.84130859375,-62.3779296875,-140.380859375
1.2248849868774414,-1382682565,1,0.2483338862657547,-0.5371662974357605,-0.8104376196861267,-220.8251953125,33.69140625,14.83154296875
1.2248930931091309,-1382682546,1,0.2283143550157547,-0.4102132022380829,-0.7118048071861267,-208.49609375,37.4755859375,12.451171875
1.2445669174194336,-1382682527,1,0.1072206050157547,-0.3169514834880829,-0.6441778540611267,-192.3828125,2.685546875,13.3056640625
1.2446808815002441,-1382682508,1,0.1955995112657547,-0.10113116353750229,-0.6673712134361267,-187.56103515625,-12.6953125,26.30615234375
1.2684788703918457,-1382682539,0,0.496681272983551,-0.7113932371139526,-0.4495726525783539,-138.48876953125,-33.0810546875,-149.2919921875
1.2684869766235352,-1382682503,0,0.325538694858551,-0.46212565898895264,-0.3299437463283539,-87.0361328125,-11.23046875,-162.17041015625
1.273921012878418,-1382682489,1,0.1587342768907547,-0.16070148348808289,-0.4942755103111267,-175.59814453125,14.83154296875,48.52294921875
1.2892210483551025,-1382682484,0,0.21787267923355103,-0.38082683086395264,-0.2586546838283539,-70.556640625,-24.90234375,-163.0859375
1.3215467929840088,-1382682465,0,0.07163244485855103,-0.30001628398895264,-0.08751209825277328,-55.6640625,-44.7998046875,-166.015625
1.321554183959961,-1382682446,0,-0.051902707666158676,-0.19454753398895264,-0.044299207627773285,-52.3681640625,-59.26513671875,-157.1044921875
1.3215599060058594,-1382682427,0,-0.12441247701644897,-0.10470379143953323,-0.014758192002773285,-53.40576171875,-49.8046875,-143.24951171875
1.3342750072479248,-1382682470,1,0.1619081050157547,-0.22930499911308289,-0.3206915259361267,-165.0390625,35.15625,62.1337890625
1.334341049194336,-1382682451,1,0.2165956050157547,-0.20904132723808289,-0.1307501196861267,-155.1513671875,28.3203125,61.03515625
1.3354668617248535,-1382682432,1,0.2725037932395935,-0.14971515536308289,0.024035029113292694,-149.658203125,10.55908203125,53.64990234375
1.3718178272247314,-1382682413,1,0.2261170893907547,-0.19341632723808289,0.0931268259882927,-126.46484375,4.33349609375,44.43359375
1.3724989891052246,-1382682394,1,0.3020448088645935,-0.23907062411308289,0.037951044738292694,-69.51904296875,-5.55419921875,16.11328125
1.3796677589416504,-1382682408,0,-0.16786950826644897,-0.019254572689533234,-0.10240467637777328,-51.33056640625,-32.2265625,-122.25341796875
1.3798789978027344,-1382682389,0,-0.22035974264144897,0.039583317935466766,-0.18052968382835388,-46.5087890625,2.0751953125,-84.3505859375
1.385317087173462,-1382682370,0,-0.24892419576644897,0.11599933356046677,-0.19151601195335388,-36.376953125,26.9775390625,-46.08154296875
1.39414381980896,-1382682375,1,0.4614686369895935,-0.18462726473808289,0.0684686228632927,-10.7421875,-10.25390625,-32.77587890625
1.4188189506530762,-1382682351,0,-0.18056482076644897,0.16336262226104736,-0.19859609007835388,-24.5361328125,44.98291015625,-22.4609375
1.4283318519592285,-1382682356,1,0.4216737151145935,-0.11504717916250229,0.1004510447382927,15.380859375,-40.34423828125,-91.1865234375
1.4283428192138672,-1382682337,1,0.2056092768907547,0.04755047708749771,-0.0697149708867073,12.26806640625,-93.75,-141.54052734375
1.4396369457244873,-1382682332,0,0.021339479833841324,0.24905598163604736,-0.12706288695335388,-21.1181640625,79.16259765625,-5.615234375
1.4397108554840088,-1382682313,0,0.280372679233551,0.41946613788604736,-0.08287342637777328,-28.3203125,83.3740234375,13.36669921875
1.4541630744934082,-1382682301,1,-0.0819883793592453,0.5387614369392395,-0.5548223853111267,-13.671875,-172.4853515625,-105.224609375
1.4766709804534912,-1382682294,0,0.492042601108551,0.5730305910110474,-0.3135863244533539,-33.02001953125,24.7802734375,37.841796875
1.4766807556152344,-1382682275,0,0.443702757358551,0.5708333253860474,-0.5052366852760315,-13.97705078125,-9.8876953125,58.77685546875
1.4840970039367676,-1382682282,1,-0.2179747074842453,0.6305583119392395,-0.8846563696861267,5.31005859375,-177.67333984375,-95.458984375
1.5282940864562988,-1382682239,0,0.338478147983551,0.26175129413604736,-0.7005491852760315,40.22216796875,5.615234375,69.27490234375
1.529170036315918,-1382682220,0,0.338966429233551,0.062044255435466766,-0.8536253571510315,10.68115234375,23.5595703125,56.94580078125
1.544409990310669,-1382682263,1,-0.2367735356092453,0.7348063588142395,-1.0633673667907715,23.86474609375,-151.9775390625,-111.81640625
1.5445239543914795,-1382682244,1,-0.1745176762342453,0.7421305775642395,-1.0680060386657715,20.20263671875,-110.3515625,-117.12646484375
1.5719997882843018,-1382682201,0,0.313087522983551,-0.08590496331453323,-1.1365844011306763,-4.45556640625,5.0048828125,82.1533203125
1.5720081329345703,-1382682182,0,0.22031408548355103,-0.16720378398895264,-1.2388793230056763,-13.5498046875,-39.6728515625,112.24365234375
1.5883150100708008,-1382682163,0,0.09482580423355103,-0.20846354961395264,-1.1993285417556763,-26.42822265625,-56.0302734375,130.18798828125
1.6045989990234375,-1382682225,1,-0.0170469768345356,0.6535075306892395,-0.9657110571861267,20.01953125,-67.626953125,-101.9287109375
1.6047110557556152,-1382682206,1,0.2248963862657547,0.4828532040119171,-0.8333868384361267,19.10400390625,-48.76708984375,-67.2607421875
1.6047248840332031,-1382682187,1,0.5310487151145935,0.21161296963691711,-0.7706426978111267,26.0009765625,-49.560546875,-33.69140625
1.6053590774536133,-1382682168,1,0.7407655119895935,-0.09405108541250229,-0.7569708228111267,45.8984375,-58.89892578125,-22.8271484375
1.624880075454712,-1382682144,0,0.07675939798355103,-0.13741862773895264,-1.0084105730056763,-55.419921875,-18.1884765625,138.671875
1.6248900890350342,-1382682125,0,0.298927366733551,-0.027067072689533234,-0.7964964509010315,-72.6318359375,26.611328125,144.8974609375
1.634253978729248,-1382682149,1,0.7178162932395935,-0.3091389834880829,-0.8460821509361267,58.9599609375,-73.18115234375,-46.5087890625
1.6343300342559814,-1382682130,1,0.4233826994895935,-0.4209553897380829,-0.9671759009361267,74.15771484375,-140.07568359375,-129.8828125
1.6491329669952393,-1382682106,0,0.507667601108551,0.11282550543546677,-0.6546507477760315,-55.7861328125,41.6259765625,154.1748046875
1.6711409091949463,-1382682111,1,0.0801209956407547,-0.24663898348808289,-0.9420294165611267,80.01708984375,-180.48095703125,-209.04541015625
1.6793849468231201,-1382682087,0,0.630714476108551,0.14529621601104736,-0.5843382477760315,-30.029296875,34.423828125,167.48046875
1.6795151233673096,-1382682068,0,0.665138304233551,0.20413410663604736,-0.5735960602760315,13.5498046875,23.193359375,186.34033203125
1.6943080425262451,-1382682092,1,-0.2209043949842453,-0.02788897603750229,-0.7921270728111267,70.6787109375,-153.13720703125,-254.638671875
1.6944270133972168,-1382682073,1,-0.3271055817604065,-0.05498858541250229,-0.6165899634361267,52.1240234375,-103.82080078125,-259.765625
1.7181520462036133,-1382682049,0,0.625099241733551,0.08011066168546677,-0.4219847619533539,56.640625,29.78515625,203.7353515625
1.7240948677062988,-1382682037,1,-0.8195372223854065,0.08514813333749771,-0.5628790259361267,-40.71044921875,-111.572265625,-242.5537109375
1.7392940521240234,-1382682030,0,0.744484007358551,0.07010089606046677,-0.3694945275783539,72.69287109375,40.58837890625,209.8388671875
1.7394368648529053,-1382682011,0,0.886085569858551,-0.07418621331453323,-0.3350706994533539,81.11572265625,32.71484375,220.0927734375
1.754323959350586,-1382682018,1,-1.0121641159057617,0.3798258602619171,-0.8255743384361267,-64.3310546875,-150.0244140625,-216.6748046875
1.7543861865997314,-1382681999,1,-0.9572325348854065,0.6430094838142395,-0.8104376196861267,-30.33447265625,-116.02783203125,-132.75146484375
1.7743170261383057,-1382681975,0,0.735939085483551,-0.11935222893953323,-0.3172484338283539,48.03466796875,-14.95361328125,218.81103515625
1.7840659618377686,-1382681980,1,-0.7177305817604065,0.4616129696369171,-0.4618048071861267,36.92626953125,-2.197265625,-71.044921875
1.799889087677002,-1382681956,0,0.568702757358551,-0.25558269023895264,-0.3084593713283539,8.36181640625,-34.3017578125,187.6220703125
1.8231120109558105,-1382681961,1,-0.7135801911354065,0.20770671963691711,-0.4207891821861267,71.47216796875,9.6435546875,-81.787109375
1.8231201171875,-1382681942,1,-0.5321837067604065,0.3080485165119171,-0.4544805884361267,103.1494140625,-29.296875,-73.1201171875
1.8434028625488281,-1382681923,1,-0.4113340973854065,0.2755778133869171,-0.5868048071861267,122.61962890625,22.03369140625,-34.60693359375
1.8688349723815918,-1382681937,0,0.722999632358551,-0.30319011211395264,-0.3380003869533539,6.28662109375,56.33544921875,115.72265625
1.8688418865203857,-1382681918,0,0.850441038608551,-0.40524089336395264,-0.4173460900783539,14.404296875,97.0458984375,89.4775390625
1.8688468933105469,-1382681899,0,0.880958616733551,-0.44967448711395264,-0.4881468713283539,-2.9296875,59.14306640625,81.23779296875
1.868851900100708,-1382681880,0,0.799659788608551,-0.5236490964889526,-0.3531371057033539,-33.99658203125,52.79541015625,62.43896484375
1.8748109340667725,-1382681904,1,-0.6762266755104065,-0.07305499166250229,-0.7320684790611267,150.08544921875,109.619140625,10.43701171875
1.8748178482055664,-1382681885,1,-0.8905821442604065,-0.2976643741130829,-0.9339727759361267,155.029296875,171.32568359375,53.466796875
1.8892979621887207,-1382681861,0,0.914405882358551,-0.5180338621139526,-0.17393788695335388,-52.978515625,84.8388671875,23.25439453125
1.90500807762146,-1382681866,1,-1.2426328659057617,-0.3584553897380829,-1.1644415855407715,100.03662109375,151.0009765625,100.2197265625
1.9051449298858643,-1382681847,1,-1.0924863815307617,-0.14312335848808289,-1.1837286949157715,-11.474609375,75.25634765625,102.72216796875
1.923995018005371,-1382681842,0,1.0279313325881958,-0.45089519023895264,-0.10191639512777328,-50.6591796875,62.8662109375,-9.21630859375
1.924004077911377,-1382681823,0,1.2098160982131958,-0.19381511211395264,-0.16075429320335388,-46.9970703125,10.1318359375,-70.61767578125
1.9341018199920654,-1382681828,1,-1.0204648971557617,0.02972821146249771,-1.0011115074157715,-105.65185546875,63.4765625,82.763671875
1.9491097927093506,-1382681804,0,1.1988297700881958,0.07449542731046677,-0.21763905882835388,-49.072265625,-38.330078125,-131.04248046875
1.9725699424743652,-1382681809,1,-0.9538145661354065,0.17157390713691711,-1.0145392417907715,-129.94384765625,99.365234375,93.3837890625
1.9792389869689941,-1382681785,0,1.0706559419631958,0.029329411685466766,-0.19615468382835388,-57.67822265625,-51.33056640625,-167.17529296875
1.9793848991394043,-1382681766,0,1.0635758638381958,0.29080402851104736,-0.24473866820335388,-51.20849609375,-13.671875,-194.27490234375
1.9942619800567627,-1382681773,1,-0.9525938630104065,0.3844645321369171,-1.1041388511657715,-160.888671875,33.69140625,87.7685546875
2.019134759902954,-1382681747,0,1.8060075044631958,0.8266927003860474,-0.22642812132835388,-45.166015625,-14.95361328125,-315.5517578125
2.024200201034546,-1382681754,1,-0.4640684723854065,0.4918864071369171,-0.8746466040611267,-55.72509765625,19.47021484375,102.05078125
2.024312973022461,-1382681735,1,-0.8612852692604065,0.6149333119392395,0.6971307396888733,-47.79052734375,7.50732421875,69.15283203125
2.05344295501709,-1382681716,1,-0.6408262848854065,0.4088785946369171,-0.8458380103111267,-68.84765625,63.41552734375,52.91748046875
2.054198980331421,-1382681697,1,-0.4337950348854065,0.19183757901191711,-0.6231817603111267,-24.10888671875,-3.173828125,57.92236328125
2.0741190910339355,-1382681711,0,0.19882971048355103,0.23050129413604736,-0.24644765257835388,-145.263671875,208.0078125,28.80859375
2.0741279125213623,-1382681692,0,0.713478147983551,-0.17452800273895264,-0.3824339807033539,-104.8583984375,2.38037109375,-20.8740234375
2.0741329193115234,-1382681673,0,0.460304319858551,-0.12692058086395264,-0.7051878571510315,-93.32275390625,30.6396484375,-38.75732421875
2.0841469764709473,-1382681678,1,-0.5514708161354065,-0.12798663973808289,-0.4972051978111267,-8.30078125,-6.28662109375,44.12841796875
2.099086046218872,-1382681654,0,0.634864866733551,-0.055143244564533234,-0.3851195275783539,-78.61328125,85.9375,-60.11962890625
2.12185001373291,-1382681659,1,-0.3473692536354065,0.3007242977619171,-0.7325567603111267,-65.97900390625,20.32470703125,56.0302734375
2.121856927871704,-1382681640,1,-0.2121153324842453,0.4193766415119171,-1.0018439292907715,-139.70947265625,5.43212890625,9.1552734375
2.1291821002960205,-1382681635,0,0.734718382358551,0.27762043476104736,-0.22227773070335388,-93.8720703125,83.67919921875,-30.94482421875
2.1292998790740967,-1382681616,0,0.805275022983551,0.45291340351104736,-0.055529676377773285,-114.68505859375,118.65234375,11.41357421875
2.1442790031433105,-1382681621,1,-0.1591368168592453,0.3583414852619171,-1.1209845542907715,-132.14111328125,9.21630859375,2.13623046875
2.1759419441223145,-1382681597,0,0.998390257358551,0.46414387226104736,-0.061389051377773285,-105.712890625,111.75537109375,56.7626953125
2.1797280311584473,-1382681602,1,-0.2279844731092453,0.3978922665119171,-1.2572150230407715,-96.74072265625,-10.986328125,3.23486328125
2.179737091064453,-1382681583,1,-0.4218321442604065,0.5712321400642395,-1.1165900230407715,-24.71923828125,-56.2744140625,23.681640625
2.189178943634033,-1382681578,0,0.814552366733551,0.40066730976104736,0.10511485487222672,-98.14453125,87.40234375,131.103515625
2.189232110977173,-1382681559,0,0.892433226108551,0.28982746601104736,-0.23009023070335388,16.6015625,-79.28466796875,112.97607421875
2.2048580646514893,-1382681564,1,-0.2274961918592453,0.3810465633869171,-0.7030157446861267,44.25048828125,-62.255859375,33.99658203125
2.2221951484680176,-1382681540,0,0.953956663608551,0.041048161685466766,-0.09361561387777328,51.45263671875,-57.373046875,59.814453125
2.2339110374450684,-1382681545,1,-0.1466856449842453,0.5866129994392395,-0.6632208228111267,27.4658203125,-42.48046875,41.19873046875
2.2493040561676025,-1382681521,0,1.1658707857131958,0.28885090351104736,-0.08092030137777328,62.43896484375,-75.5615234375,37.59765625
2.249415159225464,-1382681502,0,0.809181272983551,0.0017415210604667664,-0.13414296507835388,4.39453125,15.9912109375,-1.220703125
2.272902011871338,-1382681509,1,-0.2091856449842453,0.4337809383869171,-0.7166876196861267,-4.94384765625,-61.58447265625,48.27880859375
2.2729098796844482,-1382681490,1,-0.3979063630104065,0.23968914151191711,-0.8560919165611267,-6.77490234375,-90.9423828125,60.9130859375
2.2790470123291016,-1382681483,0,0.903175413608551,0.09060870856046677,-0.07676991075277328,-59.50927734375,-3.72314453125,16.9677734375
2.2940518856048584,-1382681471,1,-0.5045958161354065,0.24237468838691711,-0.9242071509361267,19.8974609375,-153.74755859375,84.9609375
2.3194048404693604,-1382681447,0,0.909278929233551,0.031526677310466766,-0.4451781213283539,-96.19140625,-74.3408203125,42.1142578125
2.324165105819702,-1382681452,1,-0.6881895661354065,0.17108562588691711,-0.7364630103111267,31.79931640625,-166.56494140625,83.251953125
2.324246883392334,-1382681433,1,-0.5551329255104065,0.2770426571369171,-0.5492071509361267,54.50439453125,-82.58056640625,83.31298828125
2.3400750160217285,-1382681428,0,1.0757828950881958,0.07010089606046677,-0.4380980432033539,-85.44921875,-104.55322265625,-1.3427734375
2.340160846710205,-1382681409,0,0.746192991733551,-0.06393230706453323,-0.2755003869533539,-35.64453125,-184.26513671875,-5.79833984375
2.3741660118103027,-1382681390,0,0.613624632358551,0.20852863788604736,-0.22593984007835388,59.08203125,-315.97900390625,-40.0390625
2.3755040168762207,-1382681371,0,0.743507444858551,0.27273762226104736,-0.5679808259010315,109.68017578125,-345.8251953125,-31.982421875
2.384166955947876,-1382681414,1,-0.7345762848854065,0.3759196102619171,-0.2225469946861267,-5.55419921875,19.287109375,6.9580078125
2.3843088150024414,-1382681395,1,-0.5255919098854065,0.3297770321369171,-0.6432012915611267,-40.95458984375,86.48681640625,-38.0859375
2.3854408264160156,-1382681376,1,-0.3847227692604065,0.4691813290119171,-1.0164923667907715,0.732421875,101.4404296875,-15.869140625
2.3994510173797607,-1382681352,0,0.588234007358551,-0.018522150814533234,-1.1431761980056763,62.68310546875,-172.119140625,10.986328125
2.422981023788452,-1382681357,1,-0.2611876130104065,0.16595867276191711,-0.6600469946861267,-12.39013671875,79.52880859375,-57.7392578125
2.422987937927246,-1382681338,1,-0.5612364411354065,0.10101727396249771,-0.7320684790611267,-33.447265625,133.056640625,-75.68359375
2.4293179512023926,-1382681333,0,0.844825804233551,-0.09518230706453323,-0.3135863244533539,69.7021484375,-26.3671875,26.7333984375
2.429386854171753,-1382681314,0,0.655128538608551,-0.24923503398895264,-0.5340452790260315,117.12646484375,-43.212890625,-13.671875
2.444092035293579,-1382681319,1,-0.5839415192604065,0.15912273526191711,-0.5755743384361267,-46.38671875,137.5732421875,-128.90625
2.472517967224121,-1382681295,0,0.761573851108551,-0.09591472893953323,-0.7388792634010315,136.962890625,-30.1513671875,-78.0029296875
2.4780421257019043,-1382681300,1,-0.5578184723854065,0.3165934383869171,-0.9066290259361267,-54.0771484375,125.3662109375,-133.30078125
2.478050947189331,-1382681281,1,-0.4538145661354065,0.3734782040119171,-0.9012579321861267,-32.04345703125,61.279296875,-120.2392578125
2.4892771244049072,-1382681276,0,0.757911741733551,0.014680974185466766,-0.8609495759010315,120.60546875,-2.8076171875,-85.693359375
2.489374876022339,-1382681257,0,0.711036741733551,-0.041959650814533234,-0.9461546540260315,102.35595703125,52.91748046875,-73.30322265625
2.5251691341400146,-1382681238,0,0.415382444858551,-0.12008465081453323,-0.6976194977760315,100.341796875,62.92724609375,-71.22802734375
2.534182071685791,-1382681245,1,-0.6828184723854065,-0.10967608541250229,-0.7953009009361267,-10.8642578125,-18.4326171875,-121.03271484375
2.5343339443206787,-1382681226,1,-0.5243712067604065,0.3451578915119171,-0.8111700415611267,38.26904296875,-42.90771484375,-110.83984375
2.5510261058807373,-1382681219,0,0.642677366733551,-0.016324885189533234,-0.6487913727760315,95.3369140625,62.01171875,-63.04931640625
2.5714190006256104,-1382681207,1,-0.5612364411354065,0.05365399271249771,-0.5472540259361267,88.623046875,-90.75927734375,-102.23388671875
2.5953078269958496,-1382681188,1,-0.5016661286354065,-0.009822569787502289,-0.3983282446861267,122.61962890625,-61.5234375,-128.7841796875
2.5953168869018555,-1382681169,1,-0.3463926911354065,0.5353434681892395,-0.9598516821861267,102.96630859375,-33.0810546875,-68.84765625
2.6191511154174805,-1382681183,0,0.760841429233551,0.027864567935466766,-0.4605589807033539,107.48291015625,40.6494140625,-13.916015625
2.619158983230591,-1382681164,0,0.880714476108551,0.46194660663604736,-0.5401487946510315,107.60498046875,52.79541015625,-1.77001953125
2.619163990020752,-1382681145,0,0.809669554233551,0.21609699726104736,-0.4942503869533539,80.62744140625,32.5927734375,-6.53076171875
2.6241838932037354,-1382681150,1,-0.6598692536354065,0.3395426571369171,-1.0291876792907715,56.82373046875,-18.73779296875,-37.109375
2.6242599487304688,-1382681131,1,-0.3988829255104065,0.003849305212497711,-0.6134161353111267,18.73779296875,-33.26416015625,-67.0166015625
2.6391489505767822,-1382681126,0,0.795753538608551,0.020296208560466766,-0.4857054650783539,28.50341796875,23.01025390625,17.4560546875
2.6392629146575928,-1382681107,0,0.878273069858551,-0.08541668206453323,-0.4581175744533539,21.728515625,9.033203125,11.29150390625
2.6540589332580566,-1382681112,1,-0.5793028473854065,0.3148844540119171,-0.8114141821861267,1.64794921875,-50.1708984375,-77.81982421875
2.673888921737671,-1382681088,0,1.0491715669631958,0.054720036685466766,-0.5379515290260315,26.611328125,-7.9345703125,-14.95361328125
2.684443950653076,-1382681093,1,-0.8315001130104065,0.4232828915119171,-0.6717657446861267,-30.33447265625,-81.787109375,-97.59521484375
2.6845438480377197,-1382681074,1,-0.4694395661354065,-0.02788897603750229,-0.7188848853111267,-60.1806640625,-93.32275390625,-136.962890625
2.6994259357452393,-1382681069,0,0.784034788608551,0.15701496601104736,-0.4922972619533539,24.0478515625,-41.32080078125,-43.8232421875
2.6995718479156494,-1382681050,0,0.777687132358551,0.009065739810466766,-0.6368284821510315,44.0673828125,-41.19873046875,-66.71142578125
2.7214670181274414,-1382681055,1,-0.8446837067604065,-0.17632648348808289,-0.6737188696861267,-40.52734375,-102.35595703125,-190.36865234375
2.7292919158935547,-1382681031,0,0.733497679233551,0.11941730231046677,-0.5384398102760315,61.21826171875,-25.57373046875,-69.82421875
2.7293879985809326,-1382681012,0,0.457618772983551,-0.23043620586395264,-0.4898558557033539,80.74951171875,-35.94970703125,-38.0859375
2.7442538738250732,-1382681036,1,-0.8273497223854065,-0.6357991099357605,-0.3446173071861267,-15.31982421875,-102.9052734375,-225.52490234375
2.7443490028381348,-1382681017,1,-0.6767149567604065,-0.2559163272380829,-0.4749884009361267,2.44140625,-49.37744140625,-212.646484375
2.7711358070373535,-1382680993,0,0.538673460483551,0.10452472418546677,-0.8572874665260315,114.2578125,-77.7587890625,-48.15673828125
2.7768568992614746,-1382680981,1,-1.2228574752807617,0.8842204213142395,-1.0257697105407715,-110.7177734375,-49.560546875,19.53125
2.7899391651153564,-1382680974,0,0.539161741733551,0.39016926288604736,-1.1087523698806763,92.46826171875,-142.08984375,-19.8974609375
2.790060043334961,-1382680955,0,0.839454710483551,0.24734699726104736,-1.2337523698806763,31.982421875,-92.95654296875,20.93505859375
2.8043899536132812,-1382680962,1,-0.8415098786354065,0.3092692196369171,-0.6622442603111267,28.076171875,-41.93115234375,-75.62255859375
2.8332560062408447,-1382680943,1,-0.5973692536354065,0.4081461727619171,-0.7652716040611267,-2.8076171875,-34.60693359375,-46.93603515625
2.8341190814971924,-1382680924,1,-0.5368223786354065,0.5607340931892395,-0.8495001196861267,-52.6123046875,14.34326171875,-10.92529296875
2.8699989318847656,-1382680905,1,-0.6833067536354065,0.24969890713691711,-0.9835333228111267,-55.11474609375,30.70068359375,-24.35302734375
2.893435001373291,-1382680886,1,-0.5675840973854065,-0.04278155416250229,-0.8802618384361267,-16.78466796875,-9.033203125,-30.76171875
2.897490978240967,-1382680867,1,-0.7653380036354065,0.21503093838691711,-1.3009161949157715,-4.39453125,-40.0390625,-38.14697265625
2.9186038970947266,-1382680919,0,0.535743772983551,0.14627277851104736,-1.0286742448806763,-67.5048828125,18.00537109375,64.51416015625
2.918611764907837,-1382680900,0,0.736427366733551,0.15725910663604736,-1.0899535417556763,-89.2333984375,29.84619140625,43.45703125
2.918617010116577,-1382680881,0,0.602638304233551,0.23880207538604736,-1.2256957292556763,-97.0458984375,56.82373046875,63.90380859375
2.9200780391693115,-1382680862,0,0.486915647983551,0.32425129413604736,-1.2430297136306763,-116.51611328125,76.7822265625,92.28515625
2.9243390560150146,-1382680848,1,-0.6252012848854065,0.3146403133869171,-1.0702033042907715,49.37744140625,-122.6806640625,-25.57373046875
2.9244439601898193,-1382680829,1,-0.7406798005104065,0.4723551571369171,-0.8995489478111267,60.24169921875,-146.05712890625,-35.21728515625
2.940340995788574,-1382680843,0,0.528175413608551,0.051790349185466766,-1.0535765886306763,-132.6904296875,89.66064453125,79.833984375
2.9403481483459473,-1382680824,0,0.14389806985855103,-0.33761394023895264,-0.9031859040260315,47.8515625,-7.6904296875,-29.541015625
2.9403538703918457,-1382680805,0,0.693946897983551,0.43460285663604736,-0.4930296838283539,31.06689453125,-55.7861328125,-72.6318359375
2.9557411670684814,-1382680810,1,-0.6772032380104065,0.3129313290119171,-0.8939337134361267,19.59228515625,-106.87255859375,-58.349609375
2.985032081604004,-1382680791,1,-0.6376524567604065,0.24383953213691711,-0.7938360571861267,1.03759765625,-61.1572265625,-40.95458984375
2.9850411415100098,-1382680772,1,-0.7301817536354065,0.3602946102619171,-0.7071661353111267,8.48388671875,9.3994140625,-13.00048828125
2.999608039855957,-1382680786,0,0.549903929233551,0.28689777851104736,-0.8607054352760315,-161.31591796875,-30.6396484375,83.92333984375
2.999737024307251,-1382680767,0,0.574073851108551,-0.15304362773895264,-0.9576292634010315,-153.4423828125,-27.34375,120.7275390625
2.999755859375,-1382680748,0,0.773536741733551,0.019807927310466766,-0.7425413727760315,-133.9111328125,0.8544921875,127.25830078125
3.0221710205078125,-1382680753,1,-0.8969298005104065,0.2792399227619171,-0.8492559790611267,35.09521484375,59.814453125,-10.986328125
3.0299408435821533,-1382680729,0,0.691993772983551,-0.29659831523895264,-1.0286742448806763,-80.38330078125,16.845703125,117.49267578125
3.044142961502075,-1382680717,1,-1.1344785690307617,0.20135906338691711,-0.8758673071861267,133.60595703125,45.10498046875,9.82666015625
3.069828987121582,-1382680710,0,0.815773069858551,-0.20577800273895264,-0.7042112946510315,-6.04248046875,16.90673828125,39.36767578125
3.069841146469116,-1382680691,0,1.0098649263381958,-0.14523112773895264,-0.6963987946510315,44.677734375,-7.50732421875,20.01953125
3.076331853866577,-1382680698,1,-1.0031309127807617,-0.07232256978750229,-1.1070685386657715,173.27880859375,-19.6533203125,22.64404296875
3.0763418674468994,-1382680679,1,-0.8974180817604065,-0.5029866099357605,-1.0865607261657715,258.72802734375,-31.1279296875,65.12451171875
3.0902340412139893,-1382680655,0,0.859962522983551,1.3696614503860474,-1.2608519792556763,188.65966796875,73.91357421875,81.1767578125
3.105926990509033,-1382680660,1,-1.5485410690307617,-0.5178791880607605,-0.1556524634361267,154.60205078125,52.001953125,-95.703125
3.126027822494507,-1382680636,0,0.945655882358551,0.014436833560466766,-0.4444456994533539,52.490234375,110.77880859375,132.50732421875
3.1349079608917236,-1382680641,1,-0.9452696442604065,-0.5134846568107605,-0.5025762915611267,85.44921875,79.52880859375,-90.75927734375
3.1350409984588623,-1382680622,1,-0.9840880036354065,-0.8267170786857605,-0.056287236511707306,52.18505859375,72.3876953125,21.1181640625
3.150805950164795,-1382680617,0,1.0896989107131958,0.036653630435466766,-0.3846312463283539,-70.068359375,113.1591796875,102.1728515625
3.1509201526641846,-1382680598,0,0.899513304233551,-0.19308269023895264,-0.2625609338283539,-128.84521484375,72.75390625,58.10546875
3.1725969314575195,-1382680603,1,-0.8380919098854065,-0.7232014536857605,-0.2010626196861267,-127.5634765625,14.5263671875,55.96923828125
3.1791069507598877,-1382680579,0,0.927589476108551,-0.23531901836395264,-0.011828504502773285,-167.96875,13.85498046875,-7.8125
3.2198188304901123,-1382680560,0,0.983741819858551,-0.14767253398895264,0.035778917372226715,-154.6630859375,-34.912109375,-51.7578125
3.219827890396118,-1382680541,0,0.972511351108551,-0.11691082268953323,0.013806261122226715,-133.11767578125,-36.80419921875,-61.767578125
3.2256929874420166,-1382680584,1,-0.9774962067604065,-0.6401936411857605,-0.1346563696861267,-122.9248046875,79.28466796875,108.70361328125
3.2258200645446777,-1382680565,1,-0.8925352692604065,-0.5061604380607605,-0.1602911353111267,-132.50732421875,71.533203125,127.9296875
3.2445149421691895,-1382680522,0,0.878028929233551,-0.06930340081453323,0.057263292372226715,-118.34716796875,-10.009765625,-56.82373046875
3.2445271015167236,-1382680503,0,0.708351194858551,0.07351886481046677,0.08387462049722672,-103.21044921875,9.33837890625,-37.04833984375
3.2552809715270996,-1382680546,1,-0.7690001130104065,-0.4251057803630829,-0.1036505177617073,-113.76953125,59.814453125,126.64794921875
3.2554099559783936,-1382680527,1,-0.7296934723854065,-0.4702717959880829,-0.0765509083867073,-85.9375,60.24169921875,125.06103515625
3.255466938018799,-1382680508,1,-0.6449766755104065,-0.3269612491130829,-0.0970587208867073,-58.837890625,53.7109375,127.50244140625
3.2743589878082275,-1382680484,0,0.575538694858551,0.13406574726104736,0.14344492554664612,-115.6005859375,3.11279296875,-11.23046875
3.286710023880005,-1382680489,1,-0.6332579255104065,-0.16924640536308289,-0.1829962134361267,-37.841796875,30.76171875,107.23876953125
3.299494981765747,-1382680465,0,0.601661741733551,0.07864581793546677,0.2562378942966461,-122.98583984375,-27.16064453125,0.244140625
3.2996530532836914,-1382680446,0,0.526222288608551,-0.06881511956453323,0.2703980505466461,-111.328125,-54.26025390625,-6.89697265625
3.3306329250335693,-1382680427,0,0.586036741733551,-0.011930353939533234,0.12708750367164612,-97.0458984375,-78.91845703125,-32.8369140625
3.3446860313415527,-1382680453,1,-0.5194883942604065,-0.10259600728750229,-0.1922735571861267,-21.728515625,23.86474609375,93.20068359375
3.3448290824890137,-1382680434,1,-0.4943419098854065,-0.06841631978750229,-0.2630743384361267,-29.541015625,61.95068359375,91.796875
3.3449339866638184,-1382680415,1,-0.5890684723854065,-0.05596514791250229,-0.3910040259361267,-42.6025390625,53.28369140625,86.24267578125
3.3702938556671143,-1382680391,0,0.767189085483551,0.17874348163604736,-0.008410535752773285,-61.95068359375,-94.1162109375,-41.56494140625
3.378788948059082,-1382680396,1,-0.6449766755104065,-0.010310851037502289,-0.4264044165611267,-43.64013671875,35.21728515625,79.40673828125
3.3787989616394043,-1382680377,1,-0.6689024567604065,0.08173016458749771,-0.4630255103111267,-24.10888671875,34.1796875,59.4482421875
3.38942289352417,-1382680372,0,0.785499632358551,0.35428059101104736,-0.11973866075277328,-39.1845703125,-96.74072265625,-18.73779296875
3.3895320892333984,-1382680353,0,0.821144163608551,0.44363605976104736,-0.23277577757835388,-19.04296875,-101.01318359375,8.1787109375
3.4261269569396973,-1382680334,0,0.808937132358551,0.40652668476104736,-0.4398070275783539,8.85009765625,-88.5009765625,39.55078125
3.4345428943634033,-1382680358,1,-0.6547423005104065,0.14520671963691711,-0.5426153540611267,-12.5732421875,45.654296875,23.49853515625
3.4347760677337646,-1382680339,1,-0.6083555817604065,0.11737469583749771,-0.6412481665611267,-3.5400390625,39.306640625,-5.18798828125
3.4348068237304688,-1382680320,1,-0.5734434723854065,0.12250164896249771,-0.6995977759361267,-4.08935546875,31.73828125,-13.73291015625
3.449323892593384,-1382680315,0,0.765235960483551,0.27859699726104736,-0.5374632477760315,20.81298828125,-46.142578125,70.73974609375
3.4493789672851562,-1382680296,0,0.714210569858551,0.37649738788604736,-0.5535765290260315,30.1513671875,-34.7900390625,71.10595703125
3.473461866378784,-1382680301,1,-0.5861387848854065,0.13470867276191711,-0.7686895728111267,-21.484375,9.94873046875,-7.62939453125
3.4806950092315674,-1382680277,0,0.758155882358551,0.48098957538604736,-0.6771116852760315,47.30224609375,-32.04345703125,61.70654296875
3.494586944580078,-1382680282,1,-0.5646544098854065,0.09979657083749771,-0.8170294165611267,-48.7060546875,2.685546875,13.18359375
3.49468994140625,-1382680263,1,-0.4440489411354065,0.01727703958749771,-0.8902716040611267,-52.91748046875,-16.78466796875,38.330078125
3.5218470096588135,-1382680258,0,0.767189085483551,0.44095051288604736,-0.7481566071510315,61.09619140625,-32.71484375,52.42919921875
3.521854877471924,-1382680239,0,0.790626585483551,0.30764973163604736,-0.5794554352760315,46.08154296875,-25.20751953125,38.63525390625
3.5256831645965576,-1382680244,1,-0.4796934723854065,0.13129070401191711,-0.8343634009361267,-27.4658203125,-33.63037109375,62.92724609375
3.5392379760742188,-1382680220,0,0.731788694858551,0.23929035663604736,-0.6028929352760315,0.6103515625,-9.46044921875,29.4189453125
3.539335012435913,-1382680201,0,0.672950804233551,0.15896809101104736,-0.6995726227760315,-22.52197265625,-3.47900390625,10.6201171875
3.5541329383850098,-1382680225,1,-0.6125059723854065,0.3143961727619171,-0.7450079321861267,-13.7939453125,-25.390625,59.38720703125
3.5721230506896973,-1382680182,0,0.619484007358551,0.10721027106046677,-0.7176390290260315,-29.78515625,9.46044921875,-35.0341796875
3.5841429233551025,-1382680189,1,-0.4462462067604065,0.23456218838691711,-0.7855352759361267,4.0283203125,40.46630859375,56.33544921875
3.584260940551758,-1382680170,1,-0.5583067536354065,0.2960856258869171,-0.7489141821861267,18.37158203125,52.79541015625,66.2841796875
3.599315881729126,-1382680163,0,0.661964476108551,0.38797199726104736,-0.6146116852760315,-20.8740234375,-18.37158203125,-66.40625
3.6222708225250244,-1382680151,1,-0.5277891755104065,0.2587321102619171,-0.7135137915611267,0.91552734375,35.94970703125,72.6318359375
3.6338539123535156,-1382680127,0,0.718849241733551,0.35647785663604736,-0.6424437165260315,-25.2685546875,-24.90234375,-50.35400390625
3.6459100246429443,-1382680132,1,-0.5429258942604065,0.16254070401191711,-0.6156134009361267,5.859375,66.46728515625,76.0498046875
3.6459970474243164,-1382680113,1,-0.5128965973854065,0.12689617276191711,-0.6693243384361267,27.89306640625,102.11181640625,95.8251953125
3.669984817504883,-1382680108,0,0.615821897983551,0.21389973163604736,-0.6031370759010315,2.0751953125,-13.916015625,-64.453125
3.6699929237365723,-1382680089,0,0.592872679233551,0.35672199726104736,-0.5672484040260315,33.935546875,-37.04833984375,-75.74462890625
3.6789329051971436,-1382680094,1,-0.4318419098854065,0.3143961727619171,-0.7984747290611267,43.9453125,111.2060546875,120.1171875
3.6894168853759766,-1382680070,0,0.576271116733551,0.5000325441360474,-0.6378050446510315,42.29736328125,-41.50390625,-59.6923828125
3.6895368099212646,-1382680051,0,0.722267210483551,0.49881184101104736,-0.6575804352760315,33.26416015625,-20.6298828125,-22.8271484375
3.704293966293335,-1382680075,1,-0.2858458161354065,0.4350016415119171,-0.9561895728111267,13.36669921875,55.419921875,112.060546875
3.7044270038604736,-1382680056,1,-0.3629942536354065,0.3268473446369171,-0.9151739478111267,0.3662109375,-26.42822265625,125.48828125
3.725882053375244,-1382680032,0,0.845802366733551,0.36746418476104736,-0.5486937165260315,24.169921875,7.75146484375,-0.54931640625
3.7358808517456055,-1382680037,1,-0.3708067536354065,0.3392985165119171,-0.8372930884361267,2.13623046875,-108.88671875,142.2119140625
3.7359390258789062,-1382680018,1,-0.6093321442604065,0.7179606556892395,-0.5006231665611267,29.052734375,-76.23291015625,93.07861328125
3.750856876373291,-1382680013,0,0.484718382358551,0.11111652106046677,-0.8096800446510315,38.818359375,26.55029296875,-25.390625
3.750933885574341,-1382679994,0,0.557716429233551,0.30349934101104736,-0.6683226227760315,30.33447265625,20.44677734375,-54.5654296875
3.775966167449951,-1382679999,1,-0.3378477692604065,0.3209879696369171,-0.7953009009361267,49.9267578125,46.142578125,7.99560546875
3.7807531356811523,-1382679975,0,0.516700804233551,0.46170246601104736,-0.7239866852760315,23.8037109375,2.99072265625,-70.98388671875
3.7942938804626465,-1382679980,1,-0.4416075348854065,0.3627360165119171,-0.8404669165611267,41.68701171875,65.97900390625,28.4423828125
3.7943739891052246,-1382679961,1,-0.4884825348854065,0.3598063290119171,-0.8768438696861267,30.8837890625,59.814453125,28.74755859375
3.8228771686553955,-1382679956,0,0.522316038608551,0.44998371601104736,-0.7208128571510315,17.08984375,-4.94384765625,-74.52392578125
3.822885036468506,-1382679937,0,0.515724241733551,0.5063802003860474,-0.7471800446510315,11.77978515625,2.0751953125,-61.21826171875
3.8382129669189453,-1382679918,0,0.557960569858551,0.49075520038604736,-0.7662230134010315,9.21630859375,27.099609375,-30.3955078125
3.8711159229278564,-1382679925,1,-0.4523497223854065,0.4122965633869171,-0.9774298071861267,28.38134765625,-12.39013671875,-6.8359375
3.871129035949707,-1382679906,1,-0.4181700348854065,0.4118082821369171,-0.8626837134361267,30.2734375,-33.0810546875,-35.82763671875
3.8742828369140625,-1382679899,0,0.502296507358551,0.41238605976104736,-0.7623167634010315,17.578125,46.69189453125,-11.53564453125
3.885922908782959,-1382679887,1,-0.3971739411354065,0.3478434383869171,-0.8658575415611267,33.63037109375,-32.71484375,-49.25537109375
3.885998010635376,-1382679868,1,-0.3932676911354065,0.2977946102619171,-0.8319219946861267,26.9775390625,-12.20703125,-41.44287109375
3.8992629051208496,-1382679863,0,0.459327757358551,0.48050129413604736,-0.6302366852760315,34.5458984375,71.4111328125,3.41796875
3.899374008178711,-1382679844,0,0.495948851108551,0.5039387941360474,-0.6988402009010315,44.73876953125,86.3037109375,18.798828125
3.924398899078369,-1382679849,1,-0.4501524567604065,0.2819254696369171,-0.8890509009361267,20.81298828125,-2.13623046875,-21.42333984375
3.943629026412964,-1382679830,1,-0.4213438630104065,0.2948649227619171,-0.8429083228111267,11.65771484375,-3.96728515625,-8.544921875
3.9443459510803223,-1382679811,1,-0.4137755036354065,0.3329508602619171,-0.8148321509361267,10.07080078125,19.4091796875,-10.92529296875
3.9682719707489014,-1382679825,0,0.600441038608551,0.18313801288604736,-0.8531370759010315,52.8564453125,166.19873046875,22.76611328125
3.968280076980591,-1382679806,0,0.601173460483551,0.21292316913604736,-0.7081175446510315,68.359375,256.53076171875,8.97216796875
3.9682860374450684,-1382679787,0,0.586525022983551,0.46097004413604736,-0.20128163695335388,79.77294921875,266.29638671875,-2.197265625
3.976867914199829,-1382679792,1,-0.3634825348854065,0.24066570401191711,-0.9076055884361267,4.8828125,8.30078125,-26.0009765625
3.9894509315490723,-1382679768,0,0.531105101108551,0.43753254413604736,-0.10728748887777328,49.1943359375,183.349609375,3.7841796875
4.023691892623901,-1382679749,0,0.680519163608551,0.35989582538604736,-0.2557249963283539,26.67236328125,79.9560546875,4.8828125
4.034557104110718,-1382679773,1,-0.3000059723854065,0.21405437588691711,-0.9300665259361267,-11.3525390625,-15.5029296875,-32.8369140625
4.034719944000244,-1382679754,1,-0.3161192536354065,0.2785075008869171,-0.9588751196861267,-21.728515625,-18.4326171875,-31.494140625
4.034733057022095,-1382679735,1,-0.2902403473854065,0.2948649227619171,-0.8680548071861267,-17.39501953125,-2.01416015625,-20.08056640625
4.035412788391113,-1382679716,1,-0.2936583161354065,0.2807047665119171,-0.7708868384361267,-11.962890625,17.2119140625,-8.60595703125
4.049120903015137,-1382679730,0,0.691749632358551,0.38528645038604736,-0.3536253869533539,17.27294921875,47.8515625,10.19287109375
4.049203872680664,-1382679711,0,0.669532835483551,0.42654621601104736,-0.3611937463283539,5.7373046875,22.94921875,-7.4462890625
4.049988031387329,-1382679692,0,0.615577757358551,0.33035480976104736,-0.4005003869533539,-8.4228515625,17.51708984375,-25.5126953125
4.072525978088379,-1382679697,1,-0.2865782380104065,0.2919352352619171,-0.7664923071861267,-10.92529296875,24.4140625,-0.42724609375
4.079108953475952,-1382679673,0,0.543556272983551,0.27176105976104736,-0.4009886682033539,-18.98193359375,18.85986328125,-0.48828125
4.094472169876099,-1382679661,1,-0.3044005036354065,0.3876383602619171,-0.9068731665611267,-26.06201171875,9.8876953125,10.009765625
4.1106719970703125,-1382679654,0,0.518409788608551,0.21634113788604736,-0.3834105432033539,4.39453125,-8.30078125,25.45166015625
4.110682964324951,-1382679635,0,0.605079710483551,0.23123371601104736,-0.3672972619533539,22.5830078125,-28.6865234375,48.15673828125
4.130003929138184,-1382679642,1,-0.2604551911354065,0.4105875790119171,-0.8219122290611267,-51.45263671875,-11.77978515625,-21.66748046875
4.153316974639893,-1382679623,1,-0.3439512848854065,0.21405437588691711,-0.7855352759361267,-59.5703125,-18.06640625,-44.3115234375
4.15425181388855,-1382679604,1,-0.4057188630104065,0.06757000833749771,-0.8211798071861267,-26.85546875,-1.77001953125,-24.4140625
4.170852899551392,-1382679599,0,0.610206663608551,0.19729816913604736,-0.5145140290260315,35.58349609375,-42.3583984375,57.80029296875
4.171348810195923,-1382679580,0,0.593849241733551,0.29275715351104736,-0.4044066369533539,40.83251953125,-22.3388671875,54.13818359375
4.184191942214966,-1382679585,1,-0.3842344880104065,0.11664227396249771,-0.7513555884361267,0.8544921875,-1.77001953125,4.69970703125
4.19923996925354,-1382679561,0,0.551612913608551,0.45804035663604736,-0.4490843713283539,30.8837890625,3.35693359375,76.7822265625
4.199345111846924,-1382679542,0,0.754493772983551,0.35623371601104736,-0.5335569977760315,2.62451171875,7.38525390625,105.52978515625
4.223778009414673,-1382679566,1,-0.3742247223854065,0.2672770321369171,-0.7328009009361267,12.5732421875,-6.2255859375,15.13671875
4.224563837051392,-1382679547,1,-0.3761778473854065,0.3756754696369171,-0.7061895728111267,10.43701171875,-3.47900390625,-4.0283203125
4.229016065597534,-1382679523,0,0.941261351108551,0.19656574726104736,-0.3834105432033539,-0.244140625,-7.50732421875,112.24365234375
4.244307041168213,-1382679528,1,-0.3827696442604065,0.3561442196369171,-0.7393926978111267,-15.07568359375,-16.4794921875,-39.55078125
4.244403839111328,-1382679509,1,-0.5214415192604065,0.3126871883869171,-0.7601446509361267,-45.10498046875,-42.41943359375,-53.52783203125
4.271810054779053,-1382679504,0,0.976661741733551,0.31375324726104736,-0.4249144494533539,-13.36669921875,-12.3291015625,106.93359375
4.2718188762664795,-1382679485,0,1.0523453950881958,0.36258137226104736,-0.5062132477760315,-41.6259765625,43.5791015625,114.44091796875
4.276033878326416,-1382679490,1,-0.5192442536354065,0.2555582821369171,-0.7374395728111267,-70.86181640625,-73.91357421875,-49.86572265625
4.303930997848511,-1382679471,1,-0.5014219880104065,0.23529461026191711,-0.7088751196861267,-89.17236328125,-96.435546875,-27.03857421875
4.304736852645874,-1382679452,1,-0.4701719880104065,0.3180582821369171,-0.8304571509361267,-88.134765625,-106.3232421875,-4.8828125
4.3232691287994385,-1382679466,0,1.4344254732131958,0.16482746601104736,-0.4266234338283539,-50.9033203125,122.55859375,147.705078125
4.323277950286865,-1382679447,0,1.4205094575881958,0.19265949726104736,-0.19102773070335388,-17.822265625,158.02001953125,196.8994140625
4.3232831954956055,-1382679428,0,1.3045426607131958,-0.07027996331453323,-0.2650023400783539,17.333984375,164.306640625,229.06494140625
4.334078788757324,-1382679433,1,-0.4626036286354065,0.5028727650642395,-0.9090704321861267,-76.416015625,-121.52099609375,3.47900390625
4.349153995513916,-1382679409,0,1.1299821138381958,0.18606770038604736,0.002575792372226715,20.44677734375,238.34228515625,184.99755859375
4.373992204666138,-1382679397,1,-0.4994688630104065,0.5995524525642395,-0.7699102759361267,-57.55615234375,-121.9482421875,-36.56005859375
4.379400968551636,-1382679390,0,1.0684586763381958,-0.08053386956453323,0.06458751112222672,-33.14208984375,295.2880859375,124.81689453125
4.379408121109009,-1382679371,0,0.884376585483551,-0.07272136956453323,0.051159776747226715,-143.310546875,220.3369140625,41.015625
4.3943750858306885,-1382679378,1,-0.6415587067604065,0.4657633602619171,-0.7281622290611267,-30.76171875,-106.201171875,-45.59326171875
4.394459009170532,-1382679359,1,-0.6027403473854065,0.4389078915119171,-0.7130255103111267,-22.94921875,-113.4033203125,-30.1513671875
4.4219701290130615,-1382679335,0,0.954444944858551,-0.22848308086395264,-0.24400624632835388,-201.96533203125,175.10986328125,-56.884765625
4.425843000411987,-1382679340,1,-0.6476622223854065,0.5170329213142395,-0.8018926978111267,-8.85009765625,-105.65185546875,-19.95849609375
4.439093828201294,-1382679316,0,0.790138304233551,-0.14010417461395264,-0.06676014512777328,-130.79833984375,104.3701171875,-27.2216796875
4.473124027252197,-1382679297,0,0.753273069858551,-0.14938151836395264,-0.17540273070335388,-49.560546875,108.642578125,-15.80810546875
4.473131895065308,-1382679278,0,0.746437132358551,-0.18917644023895264,-0.08702381700277328,1.03759765625,73.6083984375,-11.474609375
4.484360933303833,-1382679321,1,-0.7619200348854065,0.5556071400642395,-0.7994512915611267,-1.708984375,-159.3017578125,-29.96826171875
4.484520196914673,-1382679302,1,-0.7787657380104065,0.5646403431892395,-0.5960821509361267,0.30517578125,-205.26123046875,-66.22314453125
4.48583197593689,-1382679283,1,-0.6603575348854065,0.4799235165119171,-0.5125860571861267,9.21630859375,-204.1015625,-107.2998046875
4.485896110534668,-1382679264,1,-0.7047911286354065,0.3170817196369171,-0.6346563696861267,15.13671875,-226.5625,-122.6806640625
4.49916410446167,-1382679259,0,0.690284788608551,-0.14986979961395264,-0.10313709825277328,36.7431640625,38.26904296875,-16.6015625
4.5239269733428955,-1382679245,1,-0.7641173005104065,0.4567301571369171,-0.5272344946861267,24.0478515625,-266.90673828125,-143.1884765625
4.529162883758545,-1382679240,0,0.725196897983551,-0.12081707268953323,-0.027941785752773285,65.7958984375,1.220703125,-38.63525390625
4.52927303314209,-1382679221,0,0.937599241733551,-0.08541668206453323,-0.060412488877773285,99.67041015625,-10.55908203125,-48.03466796875
4.544173955917358,-1382679226,1,-0.7060118317604065,0.4657633602619171,-0.2984747290611267,9.21630859375,-277.34375,-167.66357421875
4.544273138046265,-1382679207,1,-0.6359434723854065,0.3392985165119171,-0.1016973927617073,-15.56396484375,-217.6513671875,-174.560546875
4.5709381103515625,-1382679202,0,1.0879899263381958,0.12845051288604736,-0.12218006700277328,83.67919921875,-5.2490234375,-41.44287109375
4.570946931838989,-1382679183,0,1.2540055513381958,0.44070637226104736,-0.23668202757835388,-61.03515625,138.85498046875,43.27392578125
4.575212001800537,-1382679188,1,-0.7553282380104065,0.22089031338691711,0.049181513488292694,-9.1552734375,-144.04296875,-124.08447265625
4.589376926422119,-1382679164,0,0.761817991733551,0.27639973163604736,0.18128672242164612,-153.86962890625,227.9052734375,153.564453125
4.604510068893433,-1382679169,1,-0.8263731598854065,0.04779461771249771,-0.024060674011707306,-44.7998046875,-69.76318359375,-70.12939453125
4.622483015060425,-1382679145,0,1.0921403169631958,-0.011930353939533234,0.9784058928489685,-56.5185546875,245.42236328125,240.72265625
4.622491121292114,-1382679126,0,1.0066910982131958,-0.059049494564533234,0.6268433928489685,56.2744140625,176.3916015625,213.0126953125
4.634088754653931,-1382679133,1,-0.9125548005104065,0.07660321146249771,0.0989862009882927,-9.09423828125,46.20361328125,-56.5185546875
4.6495888233184814,-1382679107,0,1.0477067232131958,0.07473956793546677,0.6204957365989685,108.5205078125,189.697265625,211.9140625
4.671087980270386,-1382679114,1,-1.2084531784057617,0.13910320401191711,-0.2816290259361267,6.77490234375,63.96484375,-86.42578125
4.671095848083496,-1382679095,1,-1.0329160690307617,-0.2507893741130829,-0.4874395728111267,59.26513671875,29.052734375,-119.81201171875
4.679241895675659,-1382679071,0,0.708107054233551,-0.13033854961395264,0.9615601897239685,72.021484375,38.6962890625,121.76513671875
4.694461822509766,-1382679076,1,-1.1354551315307617,0.04730633646249771,0.052843622863292694,141.4794921875,95.88623046875,-109.4970703125
4.694566011428833,-1382679057,1,-0.9608946442604065,-0.09478350728750229,0.1722283959388733,85.63232421875,133.544921875,-107.421875
4.719358921051025,-1382679052,0,0.908058226108551,-0.07369793206453323,0.5797242522239685,71.35009765625,38.4521484375,106.99462890625
4.719367980957031,-1382679033,0,0.867530882358551,-0.048063166439533234,0.5086793303489685,50.6591796875,33.02001953125,73.66943359375
4.725672960281372,-1382679038,1,-0.8231993317604065,-0.20025226473808289,0.0735955759882927,94.54345703125,194.39697265625,-61.6455078125
4.739099025726318,-1382679014,0,0.827491819858551,-0.035367853939533234,0.5006226897239685,20.44677734375,10.07080078125,37.90283203125
4.758182048797607,-1382679019,1,-0.9919005036354065,0.02948407083749771,-0.4185919165611267,36.2548828125,96.8017578125,-12.5732421875
4.75819206237793,-1382679000,1,-1.0238828659057617,-0.10674639791250229,-0.3355841040611267,-8.85009765625,40.1611328125,-15.13671875
4.775915861129761,-1382678995,0,0.817970335483551,-0.10641277581453323,0.5750855803489685,-23.13232421875,18.6767578125,33.0810546875
4.77592396736145,-1382678976,0,0.867530882358551,-0.28194987773895264,0.6886109709739685,-9.033203125,48.4619140625,25.32958984375
4.784051179885864,-1382678981,1,-0.9438048005104065,-0.12115069478750229,-0.3087286353111267,15.07568359375,66.22314453125,-20.6298828125
4.80088210105896,-1382678957,0,0.845314085483551,-0.20431315898895264,0.6275758147239685,31.73828125,61.03515625,14.22119140625
4.820913076400757,-1382678962,1,-0.8151426911354065,-0.14800617098808289,-0.1869024634361267,19.10400390625,74.52392578125,-18.73779296875
4.820920944213867,-1382678943,1,-0.7450743317604065,-0.4524495303630829,-0.4259161353111267,27.03857421875,106.87255859375,-16.66259765625
4.829709053039551,-1382678938,0,0.847267210483551,-0.15109050273895264,0.4439820349216461,50.72021484375,61.34033203125,11.71875
4.829853057861328,-1382678919,0,0.874610960483551,-0.15817058086395264,0.4918335974216461,-31.8603515625,20.1416015625,-8.72802734375
4.844110012054443,-1382678924,1,-0.9438048005104065,0.0016520395874977112,-0.7635626196861267,50.537109375,92.83447265625,21.240234375
4.870269775390625,-1382678900,0,0.648292601108551,-0.5619791746139526,0.5304078459739685,-56.884765625,31.1279296875,-23.193359375
4.87027907371521,-1382678881,0,0.842628538608551,-0.13717448711395264,0.6903199553489685,-38.51318359375,39.73388671875,-17.822265625
4.8748650550842285,-1382678905,1,-0.8383360505104065,0.04388836771249771,-0.5821661353111267,-12.5732421875,-4.8828125,16.4794921875
4.889396905899048,-1382678862,0,0.793800413608551,-0.25387370586395264,0.5565308928489685,-46.875,125.54931640625,-33.99658203125
4.904637813568115,-1382678869,1,-0.7477598786354065,-0.3670003116130829,-0.056043095886707306,7.26318359375,-51.08642578125,20.93505859375
4.904752969741821,-1382678850,1,-0.7504454255104065,-0.3135335147380829,0.031359247863292694,5.06591796875,-84.77783203125,38.330078125
4.922878980636597,-1382678843,0,0.627296507358551,-0.17184245586395264,0.3778199255466461,-73.2421875,174.86572265625,-42.8466796875
4.934437036514282,-1382678831,1,-0.7794981598854065,-0.13897296786308289,0.1395135521888733,-20.44677734375,-148.13232421875,41.6259765625
4.949173927307129,-1382678807,0,0.762550413608551,-0.33028972148895264,0.7274293303489685,-23.49853515625,37.841796875,-43.701171875
4.971601963043213,-1382678812,1,-0.5915098786354065,-0.21465656161308289,0.2303338646888733,-48.03466796875,-284.97314453125,35.82763671875
4.971610069274902,-1382678793,1,-0.1720762699842453,-0.2961995303630829,-1.1839728355407715,-34.85107421875,-252.01416015625,69.7021484375
4.993425130844116,-1382678774,1,-1.0373106002807617,-0.23296710848808289,-0.7738165259361267,42.48046875,40.1611328125,129.33349609375
5.018611907958984,-1382678788,0,0.800636351108551,-0.40987956523895264,0.6402711272239685,75.50048828125,7.62939453125,11.3525390625
5.018620014190674,-1382678769,0,0.747901976108551,-0.28341472148895264,0.7452515959739685,143.00537109375,42.78564453125,62.19482421875
5.018625974655151,-1382678750,0,0.778175413608551,-0.32394206523895264,0.6927613615989685,218.6279296875,49.13330078125,109.86328125
5.0186309814453125,-1382678731,0,0.670997679233551,-0.36129558086395264,0.7037476897239685,276.79443359375,41.9921875,141.11328125
5.024417877197266,-1382678755,1,-1.2167539596557617,0.16986492276191711,-0.027478642761707306,182.9833984375,-15.44189453125,142.63916015625
5.024425983428955,-1382678736,1,-0.9721251130104065,-0.04742022603750229,-0.2755255103111267,153.38134765625,-141.7236328125,125.6103515625
5.076896905899048,-1382678712,0,0.601417601108551,-0.36739909648895264,0.8097047209739685,299.62158203125,2.13623046875,137.87841796875
5.07690691947937,-1382678693,0,0.591651976108551,-0.054166682064533234,0.8182496428489685,302.79541015625,-11.1083984375,104.736328125
5.08464503288269,-1382678717,1,-0.9611387848854065,-0.15459796786308289,-0.2984747290611267,138.00048828125,-249.755859375,66.58935546875
5.084836006164551,-1382678698,1,-0.9994688630104065,-0.01641436666250229,0.012560419738292694,139.7705078125,-254.638671875,-14.2822265625
5.0848548412323,-1382678679,1,-1.1476621627807617,0.07269696146249771,0.036974482238292694,129.7607421875,-147.94921875,-94.05517578125
5.099277973175049,-1382678674,0,0.491066038608551,-0.17086589336395264,0.8927125334739685,251.0986328125,-29.052734375,123.046875
5.099466800689697,-1382678655,0,0.679542601108551,0.09134113043546677,0.5853394865989685,200.50048828125,-70.6787109375,181.33544921875
5.122437000274658,-1382678660,1,-1.0424375534057617,0.12982586026191711,0.2850213646888733,177.18505859375,-149.59716796875,-72.509765625
5.1224448680877686,-1382678641,1,-1.1273984909057617,0.24628093838691711,0.4300408959388733,266.29638671875,27.4658203125,-80.6884765625
5.129307985305786,-1382678636,0,0.600929319858551,0.20071613788604736,0.8382691740989685,160.09521484375,-49.74365234375,180.72509765625
5.129424095153809,-1382678617,0,0.535743772983551,0.27786457538604736,0.8629273772239685,68.2373046875,-89.84375,164.36767578125
5.168805122375488,-1382678598,0,0.430763304233551,0.08548175543546677,0.6524781584739685,39.9169921875,-83.19091796875,124.1455078125
5.174336910247803,-1382678605,1,-1.1042051315307617,-0.012508116662502289,0.2486444115638733,243.0419921875,45.0439453125,-39.24560546875
5.190516948699951,-1382678579,0,0.603859007358551,-0.06905926018953323,0.5824097990989685,49.072265625,-76.23291015625,96.6796875
5.204519033432007,-1382678586,1,-1.1347227096557617,0.13959148526191711,0.017687372863292694,195.49560546875,24.658203125,-9.09423828125
5.204640865325928,-1382678567,1,-1.2672910690307617,0.5358317494392395,0.062365107238292694,153.076171875,2.38037109375,9.033203125
5.218807935714722,-1382678548,1,-1.3859434127807617,0.9723551869392395,0.049425654113292694,78.9794921875,6.04248046875,-26.55029296875
5.223773002624512,-1382678543,0,1.3045426607131958,0.07596027106046677,0.4107789099216461,74.64599609375,-66.22314453125,174.560546875
5.223781108856201,-1382678524,0,2.0030288696289062,0.5908528566360474,-0.7112913727760315,-86.669921875,62.56103515625,100.09765625
5.235525131225586,-1382678529,1,-1.1220273971557617,0.4350016415119171,-0.043836064636707306,-39.12353515625,-72.32666015625,-60.72998046875
5.249166965484619,-1382678505,0,1.2554703950881958,-0.20846354961395264,0.24598398804664612,-142.822265625,-76.47705078125,-37.9638671875
5.271347761154175,-1382678510,1,-0.9860411286354065,-0.07256671041250229,0.042101435363292694,-7.9345703125,-29.60205078125,-59.4482421875
5.2721240520477295,-1382678491,1,-1.0087461471557617,-0.11333819478750229,0.2386346459388733,22.27783203125,-37.41455078125,-38.2080078125
5.279313087463379,-1382678486,0,0.985450804233551,-0.10543621331453323,0.4061402380466461,-66.5283203125,-126.89208984375,-30.517578125
5.279400110244751,-1382678467,0,0.807960569858551,-0.23800456523895264,0.3924683630466461,-69.091796875,25.634765625,-20.32470703125
5.294209957122803,-1382678472,1,-1.2985410690307617,-0.2507893741130829,0.1290155053138733,64.697265625,-13.12255859375,-54.38232421875
5.320364952087402,-1382678448,0,0.628761351108551,-0.20773112773895264,0.5323609709739685,-109.19189453125,132.14111328125,-0.67138671875
5.3264830112457275,-1382678453,1,-0.7941465973854065,0.3285563290119171,-0.045789189636707306,33.203125,-76.904296875,-151.0009765625
5.326492071151733,-1382678434,1,-0.3651915192604065,0.12323407083749771,-0.0899786427617073,-74.8291015625,-123.291015625,-234.43603515625
5.339253902435303,-1382678429,0,0.558692991733551,-0.038297541439533234,0.5374879240989685,-102.4169921875,201.416015625,55.23681640625
5.339371919631958,-1382678410,0,0.647316038608551,-0.10861004143953323,0.6424683928489685,-85.02197265625,145.69091796875,88.19580078125
5.354112863540649,-1382678415,1,-0.8571348786354065,-0.3909260928630829,0.034533075988292694,-164.73388671875,-301.7578125,-173.7060546875
5.377594947814941,-1382678391,0,0.774025022983551,-0.13131511211395264,0.5997437834739685,-90.087890625,101.806640625,95.947265625
5.377603054046631,-1382678372,0,0.764503538608551,-0.13424479961395264,0.6878785490989685,-101.62353515625,116.88232421875,90.14892578125
5.3859570026397705,-1382678396,1,-0.9003477692604065,-0.2961995303630829,0.1629510521888733,-182.6171875,-275.32958984375,-93.07861328125
5.386082887649536,-1382678377,1,-1.3783750534057617,-0.7991291880607605,0.4136834740638733,-235.29052734375,-278.1982421875,-60.48583984375
5.399166822433472,-1382678353,0,0.758644163608551,-0.5158365964889526,0.8897828459739685,-111.99951171875,212.158203125,49.8046875
5.42366886138916,-1382678341,1,-0.9699278473854065,-0.3706624209880829,0.4649530053138733,-173.15673828125,-326.72119140625,38.63525390625
5.42947793006897,-1382678334,0,0.765235960483551,-0.24069011211395264,0.7625855803489685,-73.8525390625,215.087890625,4.57763671875
5.42955207824707,-1382678315,0,0.725196897983551,-0.22506511211395264,0.7381715178489685,-40.46630859375,199.462890625,-5.4931640625
5.4441609382629395,-1382678322,1,-0.6015196442604065,-0.4529378116130829,0.8524041771888733,-97.47314453125,-277.03857421875,88.8671875
5.475244045257568,-1382678303,1,-0.5524473786354065,-0.3135335147380829,0.8145623803138733,-25.2685546875,-262.39013671875,38.818359375
5.475912809371948,-1382678284,1,-0.5622130036354065,-0.2634846866130829,0.8516717553138733,-9.27734375,-261.16943359375,-14.892578125
5.492609024047852,-1382678279,0,0.899513304233551,-0.11446941643953323,0.7762574553489685,-22.52197265625,174.74365234375,28.74755859375
5.49261999130249,-1382678260,0,0.630958616733551,-0.22408854961395264,0.5601930022239685,-37.841796875,262.87841796875,15.68603515625
5.524415969848633,-1382678241,0,0.513282835483551,-0.25387370586395264,0.6932496428489685,-41.1376953125,342.10205078125,10.3759765625
5.524423122406006,-1382678222,0,0.570167601108551,-0.29098308086395264,1.1117066144943237,10.31494140625,372.1923828125,-1.40380859375
5.5389180183410645,-1382678265,1,-0.6361876130104065,-0.2617757022380829,0.8760858178138733,6.16455078125,-271.97265625,-54.62646484375
5.538928031921387,-1382678246,1,-0.8219786286354065,-0.18902179598808289,0.7442498803138733,20.01953125,-288.57421875,-20.8740234375
5.549072027206421,-1382678203,0,0.750587522983551,-0.30123698711395264,1.4076050519943237,78.30810546875,415.71044921875,-55.96923828125
5.57151198387146,-1382678227,1,-0.7831602692604065,-0.2764241397380829,0.7027459740638733,15.380859375,-303.52783203125,34.66796875
5.571520805358887,-1382678208,1,-0.7096739411354065,-0.3213460147380829,0.8226190209388733,-25.93994140625,-335.38818359375,89.84375
5.571526050567627,-1382678189,1,-0.9579649567604065,-0.14898273348808289,1.5906853675842285,12.87841796875,-301.3916015625,206.298828125
5.580931901931763,-1382678184,0,0.648780882358551,-0.31564128398895264,1.4561890363693237,100.5859375,484.92431640625,-210.75439453125
5.581011772155762,-1382678165,0,0.24033361673355103,-0.49069011211395264,1.3487671613693237,90.02685546875,503.84521484375,-357.60498046875
5.594084978103638,-1382678170,1,-0.3537169098854065,-0.5618245005607605,1.3336052894592285,-50.29296875,-401.2451171875,214.66064453125
5.619509935379028,-1382678146,0,-0.357566773891449,-0.47579753398895264,1.2332886457443237,107.36083984375,443.603515625,-388.97705078125
5.627880096435547,-1382678151,1,-0.2335997074842453,-0.5869709849357605,1.2542595863342285,-9.33837890625,-307.67822265625,178.1005859375
5.627889156341553,-1382678132,1,-0.0902891606092453,-0.5974690318107605,1.0809197425842285,31.55517578125,-270.5078125,179.0771484375
5.6393818855285645,-1382678127,0,-0.597801148891449,-0.44576823711395264,1.2120484113693237,122.4365234375,348.5107421875,-323.8525390625
5.639496088027954,-1382678108,0,-0.469139039516449,-0.40353190898895264,1.0108765363693237,133.056640625,297.30224609375,-257.38525390625
5.654195070266724,-1382678113,1,-0.0629454106092453,-0.5732991099357605,0.7820916771888733,65.85693359375,-237.12158203125,167.48046875
5.675285816192627,-1382678089,0,-0.376365602016449,-0.38644206523895264,0.7393922209739685,112.48779296875,271.240234375,-241.76025390625
5.684206008911133,-1382678077,1,0.4045838713645935,-0.8128010630607605,0.3062615990638733,2.50244140625,-222.83935546875,196.2890625
5.700958967208862,-1382678070,0,-0.570945680141449,-0.47921550273895264,0.5931519865989685,78.67431640625,292.54150390625,-251.89208984375
5.701084136962891,-1382678051,0,-0.977928102016449,-0.6042155027389526,0.23817148804664612,49.31640625,260.8642578125,-212.46337890625
5.726525068283081,-1382678058,1,0.2834901213645935,-0.7778889536857605,0.2828240990638733,9.70458984375,-123.6572265625,105.04150390625
5.726531982421875,-1382678039,1,0.4995545744895935,-0.5542561411857605,0.3858514428138733,50.4150390625,21.05712890625,-1.03759765625
5.730777025222778,-1382678015,0,-1.0362776517868042,-0.6545084714889526,0.2791871130466461,54.62646484375,168.212890625,-24.90234375
5.745154857635498,-1382678020,1,0.2092713862657547,-0.7944905161857605,0.4119744896888733,80.2001953125,103.6376953125,-66.46728515625
5.772439956665039,-1382677996,0,-0.923728883266449,-0.6391276121139526,0.4984253942966461,19.83642578125,145.44677734375,44.12841796875
5.776595115661621,-1382678001,1,-0.1645079106092453,-0.4966389834880829,1.0640740394592285,56.640625,88.43994140625,-128.35693359375
5.7766029834747314,-1382677982,1,0.0874452143907547,-0.16729328036308289,1.2693963050842285,-30.3955078125,31.6162109375,-149.169921875
5.790786027908325,-1382677977,0,-0.973045289516449,-0.48434245586395264,0.4071168005466461,-4.21142578125,78.67431640625,61.21826171875
5.790899753570557,-1382677958,0,-1.0604475736618042,-0.36544597148895264,0.3477906286716461,4.33349609375,-13.7939453125,70.3125
5.806034088134766,-1382677963,1,0.1765565425157547,-0.10430499166250229,1.7308220863342285,-8.48388671875,89.05029296875,-56.70166015625
5.823430061340332,-1382677939,0,-1.0846174955368042,-0.20992839336395264,0.5499390959739685,30.2734375,-170.10498046875,74.5849609375
5.840969800949097,-1382677944,1,0.011273335665464401,-0.03789874166250229,1.6309685707092285,8.11767578125,100.15869140625,-67.3828125
5.840979814529419,-1382677925,1,-0.0165586955845356,0.05829266458749771,1.4669060707092285,66.58935546875,109.4970703125,-92.041015625
5.84958291053772,-1382677920,0,-0.004539426416158676,-0.43624675273895264,1.0968140363693237,-47.607421875,-107.84912109375,19.59228515625
5.849647045135498,-1382677901,0,-0.537010133266449,-0.008512385189533234,0.8455933928489685,-147.5830078125,18.9208984375,86.669921875
5.8828089237213135,-1382677882,0,-0.580223023891449,-0.14816081523895264,0.8231324553489685,-128.2958984375,-58.65478515625,74.76806640625
5.882818937301636,-1382677863,0,-0.23207849264144897,0.16287434101104736,0.9708375334739685,-129.638671875,-123.47412109375,71.71630859375
5.895725965499878,-1382677906,1,-0.0746641606092453,-0.03423663228750229,1.2813591957092285,77.81982421875,103.759765625,-34.11865234375
5.895905017852783,-1382677887,1,-0.1466856449842453,0.04681805521249771,1.1522088050842285,89.90478515625,102.23388671875,-0.48828125
5.895924806594849,-1382677868,1,-0.2611876130104065,0.05853680521249771,1.0115838050842285,79.7119140625,80.01708984375,25.390625
5.919666051864624,-1382677844,0,-0.004783567041158676,0.35403645038604736,1.1268433332443237,-83.740234375,-84.28955078125,16.7236328125
5.925398826599121,-1382677849,1,-0.2921934723854065,0.06659344583749771,0.9683709740638733,56.45751953125,56.09130859375,54.931640625
5.939925909042358,-1382677825,0,-0.015525754541158676,0.24368488788604736,1.3553589582443237,-8.48388671875,-27.2216796875,-40.8935546875
5.940104007720947,-1382677806,0,-0.251609742641449,0.20999348163604736,1.2201050519943237,14.46533203125,26.0009765625,-72.69287109375
5.953858852386475,-1382677813,1,-0.3463926911354065,0.03924969583749771,0.8553338646888733,1.708984375,-10.986328125,27.34375
5.973797082901001,-1382677787,0,-0.622459352016449,-0.31197917461395264,1.0604370832443237,-25.57373046875,128.90625,-125.06103515625
5.985875844955444,-1382677794,1,-0.2826719880104065,0.008732117712497711,0.8987908959388733,-24.47509765625,-28.86962890625,26.91650390625
5.9859490394592285,-1382677775,1,-0.3083067536354065,0.08905438333749771,0.9444451928138733,-36.4990234375,-34.912109375,34.72900390625
6.000545978546143,-1382677751,0,-0.787010133266449,-0.46310222148895264,0.4190796911716461,-39.1845703125,149.169921875,-36.7431640625
6.023544073104858,-1382677756,1,-0.2741270661354065,-0.13360187411308289,1.0123162269592285,-30.6396484375,-54.3212890625,52.79541015625
6.02355694770813,-1382677737,1,-0.1964903324842453,-0.15581867098808289,0.9871698021888733,-11.5966796875,-76.84326171875,44.0673828125
6.043037176132202,-1382677718,1,-0.1142149418592453,-0.011287413537502289,1.0589470863342285,1.64794921875,-85.38818359375,45.0439453125
6.066198825836182,-1382677732,0,-0.784812867641449,-0.45236003398895264,0.5152711272239685,-5.615234375,63.41552734375,-0.54931640625
6.067023038864136,-1382677713,0,-0.698387086391449,-0.49606120586395264,0.7037476897239685,6.53076171875,32.2265625,7.080078125
6.06702995300293,-1382677694,0,-0.956443727016449,-0.29415690898895264,0.5243043303489685,22.4609375,64.27001953125,1.15966796875
6.0743019580841064,-1382677699,1,-0.1161680668592453,-0.010799132287502289,1.1380486488342285,-8.1787109375,-101.318359375,39.794921875
6.074361085891724,-1382677680,1,-0.0866270512342453,0.01849774271249771,1.2151970863342285,-21.42333984375,-102.6611328125,36.865234375
6.089030981063843,-1382677675,0,-0.885154664516449,-0.5724772214889526,0.6617555022239685,12.8173828125,24.35302734375,34.1796875
6.089103937149048,-1382677656,0,-0.831932008266449,-0.25118815898895264,0.7240113615989685,19.1650390625,-18.61572265625,68.42041015625
6.117348909378052,-1382677661,1,-0.0878477543592453,-0.03643389791250229,1.2505974769592285,-12.5732421875,-89.2333984375,48.7060546875
6.121960163116455,-1382677637,0,-0.898826539516449,-0.22897136211395264,0.7911500334739685,22.705078125,-38.9404296875,50.10986328125
6.135646104812622,-1382677642,1,-0.008502054959535599,-0.13409015536308289,1.3216423988342285,11.90185546875,-68.42041015625,41.9921875
6.135740041732788,-1382677623,1,-0.00020127370953559875,-0.08965655416250229,1.3091912269592285,26.30615234375,-62.01171875,12.39013671875
6.149296998977661,-1382677618,0,-0.790428102016449,-0.28243815898895264,0.8675660490989685,30.1513671875,-60.11962890625,51.6357421875
6.14940881729126,-1382677599,0,-0.698875367641449,-0.19650065898895264,0.9080933928489685,41.80908203125,-63.3544921875,47.2412109375
6.1700499057769775,-1382677604,1,-0.0734434574842453,0.006534852087497711,1.2955193519592285,31.73828125,-66.46728515625,8.60595703125
6.179224967956543,-1382677580,0,-0.645164430141449,-0.15109050273895264,0.8993043303489685,69.2138671875,-54.931640625,8.6669921875
6.179318904876709,-1382677561,0,-0.648094117641449,-0.23995769023895264,0.9425172209739685,87.40234375,-62.68310546875,-14.6484375
6.194485902786255,-1382677585,1,-0.0163145549595356,-0.02202960103750229,1.2051873207092285,48.2177734375,-60.97412109375,33.5693359375
6.217405796051025,-1382677542,0,-0.660789430141449,-0.26754558086395264,0.9256715178489685,52.6123046875,-81.48193359375,9.1552734375
6.227510929107666,-1382677549,1,-0.005084086209535599,-0.11114092916250229,1.1321892738342285,62.19482421875,-19.04296875,26.7333984375
6.227518796920776,-1382677530,1,-0.1269102543592453,-5.694478750228882e-05,1.0355095863342285,50.35400390625,-41.68701171875,28.25927734375
6.2407190799713135,-1382677523,0,-0.386131227016449,-0.057828791439533234,0.9947633147239685,3.173828125,-106.4453125,96.61865234375
6.253147125244141,-1382677511,1,-0.0448790080845356,-0.10503741353750229,0.9478631615638733,36.43798828125,-61.03515625,34.0576171875
6.270885944366455,-1382677487,0,-0.398094117641449,-0.29708659648895264,0.9801148772239685,-14.5263671875,-16.4794921875,59.08203125
6.284459829330444,-1382677492,1,0.0815858393907547,-0.14434406161308289,0.7496209740638733,23.37646484375,-61.5234375,33.87451171875
6.284570932388306,-1382677473,1,0.1772889643907547,-0.19170734286308289,0.7505975365638733,13.61083984375,-37.109375,17.578125
6.301100969314575,-1382677468,0,-0.553611695766449,-0.33346354961395264,0.9593629240989685,5.4931640625,-16.54052734375,77.392578125
6.301256895065308,-1382677449,0,-0.516990602016449,-0.37008464336395264,0.9312867522239685,24.4140625,-20.32470703125,97.22900390625
6.322870969772339,-1382677454,1,0.2466249018907547,-0.18072101473808289,0.7076287865638733,3.84521484375,0.30517578125,-8.7890625
6.330928087234497,-1382677430,0,-0.454978883266449,-0.33395183086395264,0.8846558928489685,26.2451171875,-20.6298828125,95.0927734375
6.331033945083618,-1382677411,0,-0.430564820766449,-0.29147136211395264,0.8236207365989685,25.7568359375,-5.43212890625,79.2236328125
6.345798015594482,-1382677435,1,0.1382264643907547,-0.22710773348808289,0.6990838646888733,-8.36181640625,13.916015625,-31.18896484375
6.345875024795532,-1382677416,1,0.2097596675157547,-0.17950031161308289,0.7178826928138733,-18.85986328125,-9.09423828125,-47.36328125
6.375590085983276,-1382677392,0,-0.381980836391449,-0.29513347148895264,0.7164430022239685,21.54541015625,-10.1318359375,66.46728515625
6.378992080688477,-1382677397,1,0.2768983244895935,-0.22442218661308289,0.6924920678138733,-36.1328125,-22.94921875,-65.12451171875
6.379000902175903,-1382677378,1,0.3352479338645935,-0.17412921786308289,0.5977655053138733,-30.029296875,-21.97265625,-82.70263671875
6.390922784805298,-1382677373,0,-0.428367555141449,-0.25509440898895264,0.6659058928489685,29.35791015625,-36.0107421875,52.42919921875
6.391016960144043,-1382677354,0,-0.465965211391449,-0.18307292461395264,0.6532105803489685,46.875,-59.38720703125,52.8564453125
6.404551029205322,-1382677359,1,0.3689393401145935,-0.11260577291250229,0.6216912865638733,-12.26806640625,2.3193359375,-74.76806640625
6.4229819774627686,-1382677335,0,-0.425682008266449,-0.16402995586395264,0.6807984709739685,65.12451171875,-61.767578125,44.37255859375
6.434117078781128,-1382677340,1,0.4582948088645935,-0.07281085103750229,0.7266717553138733,-9.09423828125,21.8505859375,-66.89453125
6.434196949005127,-1382677321,1,0.4841737151145935,-0.12603351473808289,0.8123651146888733,-15.2587890625,27.7099609375,-64.63623046875
6.449203968048096,-1382677316,0,-0.351219117641449,-0.16940104961395264,0.6302613615989685,68.2373046875,-44.00634765625,21.3623046875
6.478353977203369,-1382677297,0,-0.335594117641449,-0.25509440898895264,0.5907105803489685,63.4765625,-59.5703125,-0.42724609375
6.479602098464966,-1382677278,0,-0.322654664516449,-0.11471355706453323,0.7567262053489685,59.75341796875,-143.24951171875,-20.20263671875
6.479698181152344,-1382677259,0,-0.329002320766449,-0.06539715081453323,0.8956422209739685,51.6357421875,-206.0546875,-31.92138671875
6.494302034378052,-1382677285,1,0.4556092619895935,-0.10113116353750229,1.0477166175842285,-36.1328125,-1.0986328125,-80.6884765625
6.494408130645752,-1382677266,1,0.5185975432395935,-0.12090655416250229,1.1170525550842285,-38.0859375,-12.02392578125,-73.30322265625
6.524094820022583,-1382677247,1,0.5056580901145935,-0.16314288973808289,1.1209588050842285,-38.14697265625,-17.08984375,-93.994140625
6.525794982910156,-1382677228,1,0.4036073088645935,-0.13140460848808289,1.1478142738342285,-39.0625,-17.4560546875,-112.060546875
6.539460897445679,-1382677223,0,-0.334861695766449,-0.023404963314533234,1.0142945051193237,7.62939453125,-96.37451171875,-77.57568359375
6.583246946334839,-1382677209,1,0.4082459807395935,-0.12749835848808289,1.2054314613342285,-37.9638671875,-10.009765625,-111.6943359375
6.584378004074097,-1382677190,1,0.3760194182395935,-0.15435382723808289,1.2147088050842285,-29.052734375,-2.38037109375,-114.6240234375
6.584517955780029,-1382677171,1,0.3369569182395935,-0.14287921786308289,1.2896599769592285,-13.18359375,-0.3662109375,-122.9248046875
6.599691867828369,-1382677204,0,-0.295799195766449,-0.14645183086395264,1.0716675519943237,0.54931640625,-63.53759765625,-119.68994140625
6.599816083908081,-1382677185,0,-0.13588708639144897,-0.08663738518953323,1.1107300519943237,-5.9814453125,-82.70263671875,-93.26171875
6.599906921386719,-1382677166,0,-0.20619958639144897,-0.06930340081453323,1.3485230207443237,-8.85009765625,-107.177734375,-48.03466796875
6.6006019115448,-1382677147,0,-0.18373864889144897,-0.09152019768953323,1.4276245832443237,6.103515625,-92.46826171875,-60.48583984375
6.622238874435425,-1382677152,1,0.3132752776145935,-0.17950031161308289,1.2830681800842285,-10.8642578125,-11.41357421875,-128.47900390625
6.629173994064331,-1382677128,0,-0.18471521139144897,-0.13204753398895264,1.4012573957443237,2.86865234375,-45.71533203125,-90.2099609375
6.644384860992432,-1382677133,1,0.2541932463645935,-0.19683429598808289,1.3743767738342285,-11.77978515625,-15.80810546875,-141.7236328125
6.6444618701934814,-1382677114,1,0.1965760737657547,-0.13946124911308289,1.5108513832092285,1.28173828125,-16.845703125,-144.71435546875
6.672749996185303,-1382677109,0,-0.16933435201644897,-0.12716472148895264,1.4022339582443237,8.48388671875,-31.25,-77.392578125
6.672760009765625,-1382677090,0,-0.14296716451644897,-0.10690105706453323,1.4835327863693237,16.6015625,-53.52783203125,-79.345703125
6.676974058151245,-1382677095,1,0.1650819331407547,-0.14483234286308289,1.5399041175842285,33.203125,-17.4560546875,-131.77490234375
6.689341068267822,-1382677071,0,-0.16713708639144897,-0.11959636956453323,1.5335816144943237,32.28759765625,-80.26123046875,-91.85791015625
6.689428806304932,-1382677052,0,-0.17983239889144897,-0.10079754143953323,1.5621460676193237,60.24169921875,-105.3466796875,-109.619140625
6.7047998905181885,-1382677076,1,0.1299256831407547,-0.07867022603750229,1.5508904457092285,52.91748046875,-24.2919921875,-133.6669921875
6.704808950424194,-1382677057,1,0.007855366915464401,0.04217938333749771,1.5320916175842285,57.2509765625,-39.24560546875,-129.69970703125
6.722620010375977,-1382677033,0,-0.20546716451644897,-0.11178386956453323,1.5467652082443237,71.47216796875,-88.134765625,-109.68017578125
6.734162092208862,-1382677021,1,-0.005572367459535599,0.09882000833749771,1.5037713050842285,64.39208984375,-69.88525390625,-81.48193359375
6.749291896820068,-1382677014,0,-0.24770349264144897,-0.09347332268953323,1.5365113019943237,65.7958984375,-63.78173828125,-98.388671875
6.74941086769104,-1382676995,0,-0.292869508266449,-0.07223308831453323,1.4893921613693237,67.2607421875,-61.09619140625,-87.40234375
6.771154165267944,-1382677002,1,0.0239686481654644,0.06244305521249771,1.4366326332092285,73.91357421875,-80.2001953125,-62.31689453125
6.79341983795166,-1382676983,1,0.0842713862657547,-0.03277178853750229,1.4214959144592285,80.2001953125,-91.12548828125,-50.96435546875
6.794280767440796,-1382676964,1,0.1330995112657547,-0.07525225728750229,1.3611931800842285,84.3505859375,-100.52490234375,-47.18017578125
6.818014144897461,-1382676959,0,-0.375633180141449,-0.07198894768953323,1.4686402082443237,89.9658203125,-98.57177734375,-61.58447265625
6.818022012710571,-1382676940,0,-0.404441773891449,-0.029020197689533234,1.4459351301193237,103.515625,-93.44482421875,-42.48046875
6.824136018753052,-1382676945,1,0.1448182612657547,-0.07476397603750229,1.2789177894592285,92.6513671875,-103.69873046875,-54.87060546875
6.839302062988281,-1382676921,0,-0.449363648891449,-0.029020197689533234,1.4203003644943237,109.2529296875,-75.86669921875,-28.4423828125
6.839427947998047,-1382676902,0,-0.436912477016449,0.016145817935466766,1.3414429426193237,110.9619140625,-64.14794921875,-3.96728515625
6.854351043701172,-1382676926,1,0.1504334956407547,-0.02520342916250229,1.1819939613342285,104.30908203125,-102.294921875,-53.52783203125
6.854411840438843,-1382676907,1,0.1562928706407547,-0.008113585412502289,1.0594353675842285,114.31884765625,-99.54833984375,-48.33984375
6.874565124511719,-1382676883,0,-0.432762086391449,0.07400714606046677,1.2486695051193237,111.2060546875,-63.90380859375,7.6904296875
6.884548902511597,-1382676888,1,0.1721620112657547,0.01630047708749771,0.9249139428138733,111.9384765625,-100.03662109375,-46.20361328125
6.884671926498413,-1382676869,1,0.1589784175157547,0.04535321146249771,0.8050408959388733,106.75048828125,-95.52001953125,-46.20361328125
6.921429872512817,-1382676850,1,0.1455506831407547,0.07733563333749771,0.7388787865638733,98.6328125,-85.9375,-47.119140625
6.929832935333252,-1382676864,0,-0.425193727016449,0.07498370856046677,1.1175659894943237,106.8115234375,-69.82421875,7.26318359375
6.929843187332153,-1382676845,0,-0.442039430141449,0.006136052310466766,1.0084351301193237,107.11669921875,-80.62744140625,12.939453125
6.930111885070801,-1382676826,0,-0.425682008266449,-0.06783855706453323,0.9552125334739685,111.14501953125,-85.5712890625,26.0009765625
6.944401979446411,-1382676831,1,0.1497010737657547,0.13348796963691711,0.6155877709388733,90.6982421875,-78.2470703125,-42.724609375
6.944474935531616,-1382676812,1,0.1409120112657547,0.17474773526191711,0.5250115990638733,85.87646484375,-64.453125,-31.18896484375
6.9699060916900635,-1382676807,0,-0.398582398891449,0.008089177310466766,0.8187379240989685,111.9384765625,-80.62744140625,46.38671875
6.969913959503174,-1382676788,0,-0.399314820766449,0.041780583560466766,0.7132691740989685,106.62841796875,-78.61328125,74.462890625
6.975908994674683,-1382676793,1,0.1421327143907547,0.19257000088691711,0.4402948021888733,80.810546875,-53.3447265625,-13.3056640625
6.989607095718384,-1382676769,0,-0.358299195766449,0.027864567935466766,0.6712769865989685,91.49169921875,-87.21923828125,88.56201171875
7.004295110702515,-1382676757,1,0.1621522456407547,0.18329265713691711,0.3333612084388733,53.03955078125,-28.3203125,15.44189453125
7.033480882644653,-1382676738,1,0.1780213862657547,0.17743328213691711,0.3121209740638733,38.51318359375,-9.1552734375,24.23095703125
7.034204959869385,-1382676719,1,0.1782655268907547,0.16302898526191711,0.3028436303138733,25.08544921875,-0.42724609375,31.982421875
7.049716949462891,-1382676750,0,-0.330223023891449,0.15384113788604736,0.5518922209739685,82.3974609375,-85.0830078125,81.6650390625
7.04972505569458,-1382676731,0,-0.342674195766449,0.12405597418546677,0.4268921911716461,71.6552734375,-57.43408203125,52.24609375
7.070688962936401,-1382676700,1,0.2275819331407547,0.17352703213691711,0.2972283959388733,8.7890625,7.99560546875,40.22216796875
7.09343409538269,-1382676681,1,0.2659119963645935,0.16473796963691711,0.3189569115638733,-2.86865234375,21.54541015625,47.119140625
7.094202041625977,-1382676662,1,0.2537049651145935,0.18866375088691711,0.3348260521888733,-12.8173828125,37.109375,49.25537109375
7.116789817810059,-1382676695,0,-0.259666383266449,0.15042316913604736,0.3546265661716461,44.677734375,-64.3310546875,54.6875
7.117686986923218,-1382676676,0,-0.19960778951644897,0.20511066913604736,0.3292359411716461,34.48486328125,-69.9462890625,74.70703125
7.117693901062012,-1382676657,0,-0.16884607076644897,0.19046223163604736,0.2909058630466461,24.96337890625,-56.57958984375,76.96533203125
7.117698907852173,-1382676638,0,-0.14516443014144897,0.21975910663604736,0.24964609742164612,13.0615234375,-39.97802734375,70.3125
7.124084949493408,-1382676643,1,0.2361268550157547,0.21356609463691711,0.3875604271888733,-24.90234375,46.08154296875,55.6640625
7.139309883117676,-1382676619,0,-0.16005700826644897,0.18924152851104736,0.2867554724216461,-4.5166015625,-24.10888671875,67.0166015625
7.154687881469727,-1382676624,1,0.2336854487657547,0.22186687588691711,0.4847283959388733,-41.93115234375,49.6826171875,72.32666015625
7.15484619140625,-1382676605,1,0.2595643401145935,0.22015789151191711,0.5706658959388733,-58.4716796875,46.5087890625,100.09765625
7.173669099807739,-1382676600,0,-0.10097497701644897,0.12845051288604736,0.2970093786716461,-27.28271484375,-11.962890625,71.59423828125
7.17367696762085,-1382676581,0,-0.08412927389144897,0.13626301288604736,0.3460816442966461,-45.47119140625,-2.44140625,87.890625
7.198551893234253,-1382676562,0,-0.053855832666158676,0.12796223163604736,0.3678101599216461,-52.55126953125,7.99560546875,95.27587890625
7.199307918548584,-1382676543,0,-0.054099973291158676,0.062044255435466766,0.3736695349216461,-62.43896484375,14.404296875,91.30859375
7.2194578647613525,-1382676586,1,0.3142518401145935,0.15399578213691711,0.6429315209388733,-74.40185546875,47.18017578125,128.23486328125
7.219465970993042,-1382676567,1,0.3704041838645935,0.06903485208749771,0.6700311303138733,-85.51025390625,45.34912109375,136.474609375
7.2194719314575195,-1382676548,1,0.3647889494895935,0.03241375833749771,0.7191033959388733,-90.9423828125,47.607421875,127.44140625
7.2291460037231445,-1382676524,0,-0.09609216451644897,-0.007047541439533234,0.4015015661716461,-74.40185546875,8.97216796875,89.66064453125
7.24457311630249,-1382676529,1,0.3267030119895935,0.08807782083749771,0.8189569115638733,-88.5009765625,49.6826171875,129.2724609375
7.269490003585815,-1382676505,0,-0.08364099264144897,0.008577458560466766,0.4637574255466461,-89.111328125,3.173828125,107.48291015625
7.269498109817505,-1382676486,0,-0.011131223291158676,0.053987614810466766,0.5799683928489685,-102.96630859375,-0.79345703125,128.11279296875
7.2754058837890625,-1382676493,1,0.3750428557395935,0.01825360208749771,0.8580194115638733,-100.28076171875,26.06201171875,180.72509765625
7.289491891860962,-1382676467,0,0.037452761083841324,0.08987628668546677,0.6766480803489685,-109.31396484375,-2.44140625,115.6005859375
7.3042590618133545,-1382676474,1,0.4453553557395935,-0.09307452291250229,0.8228631615638733,-99.12109375,27.9541015625,183.77685546875
7.304317951202393,-1382676455,1,0.4104432463645935,-0.10674639791250229,0.8296990990638733,-89.05029296875,44.49462890625,155.2734375
7.328083753585815,-1382676431,0,-0.021140988916158676,-0.011930353939533234,0.8390015959739685,-125.3662109375,23.62060546875,69.27490234375
7.334233999252319,-1382676436,1,0.2876405119895935,-0.006404601037502289,0.9456658959388733,-77.81982421875,66.2841796875,141.6015625
7.334296941757202,-1382676417,1,0.2070741206407547,0.01727703958749771,1.0108513832092285,-72.265625,67.68798828125,167.29736328125
7.349448919296265,-1382676412,0,-0.014549192041158676,-0.015836603939533234,0.9830445647239685,-141.90673828125,8.056640625,87.58544921875
7.3495259284973145,-1382676393,0,0.054542604833841324,0.024690739810466766,1.0841187238693237,-136.1083984375,-16.66259765625,112.3046875
7.374814987182617,-1382676398,1,0.2019471675157547,-0.02276202291250229,1.0147576332092285,-71.83837890625,59.08203125,187.255859375
7.379130125045776,-1382676374,0,0.13608556985855103,0.08328448981046677,1.2061890363693237,-107.421875,-37.41455078125,118.0419921875
7.398607015609741,-1382676379,1,0.2732362151145935,-0.07549639791250229,1.0023064613342285,-68.4814453125,55.7861328125,176.08642578125
7.3986170291900635,-1382676360,1,0.1606874018907547,-0.07061358541250229,1.0753045082092285,-44.00634765625,80.01708984375,141.6015625
7.419749021530151,-1382676355,0,0.16318517923355103,0.059602849185466766,1.2840698957443237,-72.57080078125,-23.8037109375,96.435546875
7.419756889343262,-1382676336,0,0.17050939798355103,0.034212224185466766,1.3519409894943237,-56.2744140625,18.24951171875,88.92822265625
7.4242119789123535,-1382676341,1,0.0286073200404644,-0.04009600728750229,1.2967400550842285,-46.142578125,86.12060546875,170.7763671875
7.43947696685791,-1382676317,0,0.15293127298355103,0.025911442935466766,1.2943238019943237,-51.025390625,43.0908203125,102.47802734375
7.455866098403931,-1382676322,1,0.1011170893907547,-0.20489093661308289,1.4632439613342285,-62.1337890625,76.7822265625,241.14990234375
7.4573328495025635,-1382676303,1,0.2004823237657547,-0.3511311709880829,1.5350213050842285,-75.01220703125,65.49072265625,254.5166015625
7.475970983505249,-1382676298,0,0.23423010110855103,0.004427067935466766,1.3521851301193237,-47.30224609375,28.38134765625,136.77978515625
7.475978851318359,-1382676279,0,0.359718382358551,0.06961261481046677,1.6026734113693237,-38.330078125,-21.1181640625,145.8740234375
7.498605012893677,-1382676260,0,0.450538694858551,0.06717120856046677,1.8375366926193237,-7.62939453125,-45.10498046875,98.69384765625
7.4993650913238525,-1382676241,0,0.448585569858551,-0.06539715081453323,1.9356812238693237,5.126953125,-17.76123046875,58.77685546875
7.522413969039917,-1382676284,1,0.3540467619895935,-0.3992268741130829,1.6397576332092285,-61.58447265625,67.2607421875,216.97998046875
7.522420883178711,-1382676265,1,0.2576112151145935,-0.4204671084880829,1.8326287269592285,-29.60205078125,74.5849609375,202.7587890625
7.530019998550415,-1382676222,0,0.442482054233551,-0.20431315898895264,1.9495972394943237,8.4228515625,38.0859375,72.021484375
7.545075178146362,-1382676229,1,0.3247498869895935,-0.6052815318107605,2.0963006019592285,-8.97216796875,70.86181640625,245.30029296875
7.545170068740845,-1382676210,1,0.4636659026145935,-0.7888752818107605,2.1536736488342285,23.01025390625,69.4580078125,230.95703125
7.570312738418579,-1382676203,0,0.696388304233551,-0.31466472148895264,2.0252809524536133,14.5263671875,61.95068359375,114.501953125
7.576379060745239,-1382676191,1,0.5718201994895935,-0.8254963755607605,2.1773552894592285,65.4296875,70.86181640625,190.12451171875
7.589353799819946,-1382676167,0,0.931495726108551,-0.36910808086395264,2.4083375930786133,36.31591796875,28.13720703125,73.486328125
7.628158807754517,-1382676148,0,0.999366819858551,-0.5124186277389526,2.4466676712036133,65.0634765625,28.076171875,54.6875
7.628168106079102,-1382676129,0,1.1443864107131958,-0.5216959714889526,2.3192262649536133,114.80712890625,50.47607421875,83.55712890625
7.635230779647827,-1382676172,1,0.4805116057395935,-0.8474690318107605,2.1861443519592285,111.63330078125,55.419921875,150.69580078125
7.6354100704193115,-1382676153,1,0.4192323088645935,-0.9077717661857605,2.2117791175842285,136.77978515625,41.19873046875,139.16015625
7.635464191436768,-1382676134,1,0.4809998869895935,-1.0244710445404053,2.2283806800842285,149.47509765625,20.8740234375,130.18798828125
7.649288177490234,-1382676110,0,1.3045426607131958,-0.41891276836395264,2.1285524368286133,155.1513671875,74.76806640625,101.01318359375
7.649397850036621,-1382676091,0,1.4075700044631958,-0.33541667461395264,1.9102905988693237,175.84228515625,92.59033203125,82.1533203125
7.678148984909058,-1382676072,0,1.4415055513381958,-0.33053386211395264,1.7347534894943237,186.03515625,102.96630859375,54.62646484375
7.694607973098755,-1382676115,1,0.5911073088645935,-1.1719319820404053,2.2046990394592285,165.52734375,-18.24951171875,97.35107421875
7.694803953170776,-1382676096,1,0.6047791838645935,-1.2810628414154053,2.1292595863342285,188.29345703125,-65.673828125,64.88037109375
7.694824934005737,-1382676077,1,0.5237244963645935,-1.4158284664154053,1.9581170082092285,207.58056640625,-107.666015625,34.24072265625
7.698826789855957,-1382676058,1,0.5325135588645935,-1.5178792476654053,1.7537713050842285,229.4921875,-120.7275390625,15.9912109375
7.722564935684204,-1382676053,0,1.3882828950881958,-0.38937175273895264,1.5636109113693237,188.90380859375,113.83056640625,27.34375
7.722574949264526,-1382676034,0,1.2344743013381958,-0.41818034648895264,1.4068726301193237,183.4716796875,113.22021484375,8.4228515625
7.726513147354126,-1382676039,1,0.5022401213645935,-1.5337483882904053,1.5460076332092285,249.267578125,-129.69970703125,-6.8359375
7.741951942443848,-1382676015,0,1.0862809419631958,-0.46285808086395264,1.2642945051193237,181.2744140625,103.08837890625,-2.9296875
7.754318952560425,-1382676020,1,0.3706483244895935,-1.5361897945404053,1.4239373207092285,256.8359375,-151.55029296875,-32.04345703125
7.75442910194397,-1382676001,1,0.2695741057395935,-1.4504964351654053,1.2015252113342285,249.93896484375,-194.2138671875,-65.49072265625
7.772397994995117,-1382675996,0,0.949073851108551,-0.46652019023895264,1.1639527082443237,186.1572265625,89.2333984375,-12.6953125
7.7724058628082275,-1382675977,0,0.803566038608551,-0.44357097148895264,1.0340698957443237,192.5048828125,70.73974609375,-17.7001953125
7.798171043395996,-1382675958,0,0.634620726108551,-0.42184245586395264,0.8773316740989685,202.7587890625,52.8564453125,-19.47021484375
7.819140911102295,-1382675965,1,0.0950135737657547,-1.1519124507904053,0.7532830834388733,239.8681640625,-223.0224609375,-128.7841796875
7.819149971008301,-1382675946,1,0.004437398165464401,-0.9312092661857605,0.5760369896888733,233.33740234375,-221.8017578125,-150.69580078125
7.829566955566406,-1382675939,0,0.493995726108551,-0.38570964336395264,0.7415894865989685,205.38330078125,31.3720703125,-14.5263671875
7.844426870346069,-1382675927,1,-0.1125059574842453,-0.7305256724357605,0.4402948021888733,211.669921875,-226.01318359375,-174.6826171875
7.844603061676025,-1382675908,1,-0.2267637699842453,-0.5537678599357605,0.3687615990638733,192.56591796875,-227.9052734375,-186.8896484375
7.869729995727539,-1382675903,0,0.262794554233551,-0.32833659648895264,0.5474976897239685,197.57080078125,-20.20263671875,-20.44677734375
7.869737863540649,-1382675884,0,0.14951330423355103,-0.28585612773895264,0.4991578161716461,187.98828125,-57.9833984375,-21.6064453125
7.8885338306427,-1382675865,0,0.015968386083841324,-0.19454753398895264,0.4505738317966461,187.744140625,-94.66552734375,-11.5966796875
7.9042768478393555,-1382675889,1,-0.3402891755104065,-0.3709065616130829,0.3289666771888733,173.4619140625,-234.0087890625,-178.1005859375
7.9208290576934814,-1382675870,1,-0.3070860505104065,-0.3235432803630829,0.2745233178138733,166.50390625,-218.994140625,-160.94970703125
7.927893877029419,-1382675846,0,-0.08657068014144897,-0.11569011956453323,0.4215210974216461,196.533203125,-123.71826171875,0.67138671875
7.927902936935425,-1382675827,0,-0.11074060201644897,-0.016569025814533234,0.3863648474216461,200.927734375,-147.5830078125,0.732421875
7.934355974197388,-1382675851,1,-0.2914610505104065,-0.2607991397380829,0.2520623803138733,168.51806640625,-192.138671875,-165.0390625
7.934452772140503,-1382675832,1,-0.3324766755104065,-0.11675616353750229,0.2513299584388733,161.1328125,-178.466796875,-178.466796875
7.949156999588013,-1382675808,0,-0.15126794576644897,0.0012532398104667664,0.3387574255466461,195.80078125,-174.072265625,-1.52587890625
7.975123167037964,-1382675813,1,-0.4196348786354065,0.03534344583749771,0.2471795678138733,137.939453125,-190.3076171875,-198.18115234375
7.975131034851074,-1382675794,1,-0.6225157380104065,0.17987468838691711,0.2498651146888733,111.63330078125,-211.669921875,-195.4345703125
7.979422092437744,-1382675789,0,-0.20839685201644897,0.043489567935466766,0.2977418005466461,171.630859375,-203.2470703125,-10.6201171875
7.9794840812683105,-1382675770,0,-0.21743005514144897,0.12283527106046677,0.24427500367164612,139.404296875,-228.82080078125,-13.0615234375
7.994211912155151,-1382675775,1,-0.5651426911354065,0.2504313290119171,0.1746698021888733,88.31787109375,-232.36083984375,-172.2412109375
8.019951105117798,-1382675751,0,-0.22426599264144897,0.17410480976104736,0.22523203492164612,120.05615234375,-252.3193359375,-7.62939453125
8.019958972930908,-1382675732,0,-0.280662477016449,0.27810871601104736,0.19495859742164612,101.07421875,-283.935546875,-1.953125
8.024296760559082,-1382675756,1,-0.5204649567604065,0.20965984463691711,0.0757928416132927,71.83837890625,-213.134765625,-159.24072265625
8.024399042129517,-1382675737,1,-0.5033751130104065,0.2653239071369171,-0.037244267761707306,59.08203125,-144.59228515625,-162.4755859375
8.03924298286438,-1382675713,0,-0.298973023891449,0.33816730976104736,0.20765390992164612,80.26123046875,-286.9873046875,-7.99560546875
8.054084062576294,-1382675701,1,-0.6706114411354065,0.5126383900642395,0.1290155053138733,19.4091796875,-80.99365234375,-169.921875
8.072841882705688,-1382675694,0,-0.347068727016449,0.36892902851104736,0.21375742554664612,32.5927734375,-258.85009765625,-36.19384765625
8.087548971176147,-1382675682,1,-0.7211485505104065,0.6080973744392395,0.1566033959388733,-33.50830078125,-126.5869140625,-147.705078125
8.099275827407837,-1382675675,0,-0.440086305141449,0.32864582538604736,0.22254648804664612,-8.1787109375,-231.99462890625,-58.89892578125
8.132341861724854,-1382675639,0,-0.610008180141449,0.35110676288604736,0.17664805054664612,-37.41455078125,-267.27294921875,-46.2646484375
8.132351875305176,-1382675620,0,-0.572166383266449,0.45828449726104736,0.2530640661716461,-36.31591796875,-288.330078125,-3.11279296875
8.144381046295166,-1382675663,1,-0.7211485505104065,0.5949137806892395,0.1507440209388733,-64.8193359375,-145.3857421875,-130.615234375
8.144525051116943,-1382675644,1,-0.7316465973854065,0.6093180775642395,0.1541619896888733,-69.82421875,-128.96728515625,-127.86865234375
8.145848035812378,-1382675625,1,-0.7619200348854065,0.6771891713142395,0.1512323021888733,-81.4208984375,-97.7783203125,-119.56787109375
8.146056175231934,-1382675606,1,-0.7484923005104065,0.7665446400642395,0.1944451928138733,-110.3515625,-78.61328125,-94.29931640625
8.169206857681274,-1382675601,0,-0.511863648891449,0.5290852785110474,0.3568238317966461,-58.7158203125,-271.05712890625,39.24560546875
8.169216871261597,-1382675582,0,-0.406394898891449,0.6477376222610474,0.4200562536716461,-80.9326171875,-245.60546875,72.93701171875
8.188499212265015,-1382675563,0,-0.287986695766449,0.7439290285110474,0.5103883147239685,-85.02197265625,-241.69921875,90.6982421875
8.205178022384644,-1382675587,1,-0.7638731598854065,0.7577555775642395,0.3209100365638733,-128.7841796875,-67.93212890625,-76.59912109375
8.206975936889648,-1382675568,1,-0.8388243317604065,0.7797282338142395,0.4522576928138733,-120.17822265625,-64.02587890625,-72.3876953125
8.217742919921875,-1382675549,1,-0.9025450348854065,0.8209879994392395,0.5355096459388733,-130.31005859375,-73.54736328125,-60.546875
8.224709033966064,-1382675544,0,-0.13295739889144897,0.8213216066360474,0.6007203459739685,-73.18115234375,-252.01416015625,97.16796875
8.22471809387207,-1382675525,0,-0.057762082666158676,0.8464680910110474,0.8160523772239685,-84.5947265625,-222.65625,79.9560546875
8.235894918441772,-1382675530,1,-0.8998594880104065,0.8766520619392395,0.5599237084388733,-155.82275390625,-80.50537109375,-33.3251953125
8.249205827713013,-1382675506,0,-0.06484216451644897,0.8555012941360474,0.9693726897239685,-108.7646484375,-168.212890625,62.43896484375
8.272243022918701,-1382675511,1,-0.7970762848854065,0.8568766713142395,0.5955682396888733,-190.85693359375,-68.603515625,15.68603515625
8.272249937057495,-1382675492,1,-0.7257872223854065,0.7919352650642395,0.8113885521888733,-208.67919921875,-54.74853515625,50.96435546875
8.279340028762817,-1382675487,0,-0.023826535791158676,0.9409505128860474,1.0228394269943237,-136.71875,-88.07373046875,76.23291015625
8.279500007629395,-1382675468,0,0.14023596048355103,1.0432454347610474,0.9254273772239685,-125.30517578125,-18.06640625,110.3515625
8.294806957244873,-1382675473,1,-0.6603575348854065,0.7479899525642395,0.9527459740638733,-219.1162109375,-63.3544921875,61.82861328125
8.320268869400024,-1382675449,0,0.273292601108551,1.0718098878860474,0.7640504240989685,-107.11669921875,-2.25830078125,126.0986328125
8.320278882980347,-1382675430,0,0.335060179233551,1.0271321535110474,0.7367066740989685,-105.52978515625,-11.23046875,122.49755859375
8.324440956115723,-1382675437,1,-0.4269590973854065,0.7684977650642395,1.0706658363342285,-249.45068359375,-107.36083984375,106.75048828125
8.340782880783081,-1382675411,0,0.337257444858551,0.9787923097610474,0.8451051115989685,-108.21533203125,-27.52685546875,110.4736328125
8.369196891784668,-1382675418,1,-0.2702208161354065,0.6881754994392395,1.1500115394592285,-264.0380859375,-120.60546875,151.3671875
8.369205951690674,-1382675399,1,-0.1147032231092453,0.5421794056892395,1.2408318519592285,-269.775390625,-114.990234375,183.837890625
8.37376594543457,-1382675375,0,0.489601194858551,0.9309407472610474,1.0150269269943237,-95.88623046875,-0.8544921875,117.67578125
8.385730028152466,-1382675380,1,0.0715760737657547,0.4572184383869171,1.3533806800842285,-248.9013671875,-107.7880859375,183.9599609375
8.399183988571167,-1382675356,0,0.698585569858551,0.9543782472610474,0.9727906584739685,-94.970703125,33.02001953125,135.55908203125
8.422013759613037,-1382675361,1,0.1665467768907547,0.5131266713142395,1.3370232582092285,-229.00390625,-111.2060546875,185.11962890625
8.422022104263306,-1382675342,1,0.2602967619895935,0.4682047665119171,1.3384881019592285,-208.3740234375,-106.0791015625,211.181640625
8.429663896560669,-1382675337,0,0.859718382358551,0.9902669191360474,0.9452027678489685,-104.55322265625,69.39697265625,141.845703125
8.429744958877563,-1382675318,0,0.874610960483551,0.9614583253860474,0.8836793303489685,-120.361328125,97.83935546875,127.685546875
8.445762872695923,-1382675323,1,0.4936951994895935,0.20306804776191711,1.3914666175842285,-164.48974609375,-73.54736328125,231.87255859375
8.47043490409851,-1382675299,0,0.803077757358551,0.8884602785110474,0.8731812834739685,-140.2587890625,114.44091796875,111.02294921875
8.470441818237305,-1382675280,0,0.739357054233551,0.7807942628860474,0.8485230803489685,-139.22119140625,125.244140625,128.0517578125
8.474427938461304,-1382675304,1,0.5500916838645935,0.15375164151191711,1.4434685707092285,-123.046875,-33.63037109375,215.14892578125
8.474434852600098,-1382675285,1,0.5942811369895935,0.19281414151191711,1.4461541175842285,-101.806640625,-24.7802734375,198.79150390625
8.491042852401733,-1382675261,0,0.847023069858551,0.6196614503860474,0.8717164397239685,-129.57763671875,125.30517578125,192.68798828125
8.50443696975708,-1382675266,1,0.6492127776145935,0.17279461026191711,1.3629021644592285,-86.60888671875,-29.78515625,193.115234375
8.504562139511108,-1382675247,1,0.7888612151145935,0.03314618021249771,1.2701287269592285,-84.47265625,-25.45166015625,207.45849609375
8.533865928649902,-1382675228,1,0.9458436369895935,-0.05059405416250229,1.2291131019592285,-96.13037109375,-10.68115234375,218.017578125
8.550266027450562,-1382675242,0,1.0477067232131958,0.6838704347610474,1.0333374738693237,-120.9716796875,141.845703125,231.62841796875
8.550374031066895,-1382675223,0,0.865821897983551,0.8157063722610474,1.1182984113693237,-119.56787109375,215.9423828125,221.19140625
8.550394058227539,-1382675204,0,1.0210953950881958,0.35818684101104736,1.1046265363693237,-199.21875,272.94921875,199.89013671875
8.574125051498413,-1382675209,1,1.2258729934692383,-0.24908038973808289,1.3484978675842285,-80.9326171875,-2.74658203125,178.77197265625
8.581053733825684,-1382675185,0,0.880470335483551,0.19583332538604736,1.2635620832443237,-227.23388671875,297.66845703125,199.89013671875
8.581209897994995,-1382675166,0,1.2769547700881958,0.19119465351104736,1.3902710676193237,-180.96923828125,263.97705078125,243.896484375
8.59577202796936,-1382675173,1,1.2417421340942383,-0.6216389536857605,1.6077752113342285,32.8369140625,44.921875,163.2080078125
8.622812986373901,-1382675147,0,1.3472672700881958,0.28714191913604736,1.5714234113693237,-80.4443359375,252.38037109375,137.87841796875
8.627341032028198,-1382675154,1,1.3196229934692383,-0.6607014536857605,1.2427849769592285,82.58056640625,66.46728515625,131.34765625
8.627830982208252,-1382675135,1,1.1623964309692383,-0.8406330943107605,0.8350701928138733,55.419921875,86.12060546875,83.06884765625
8.653171062469482,-1382675116,1,1.0962343215942383,-0.9534260630607605,1.1353631019592285,94.17724609375,85.14404296875,62.744140625
8.654011011123657,-1382675097,1,0.9866151213645935,-1.0137288570404053,1.0709099769592285,187.43896484375,111.6943359375,5.06591796875
8.672839164733887,-1382675111,0,0.831153929233551,-0.26730144023895264,1.3653687238693237,-27.28271484375,213.80615234375,69.64111328125
8.672847986221313,-1382675092,0,0.549171507358551,-0.34322917461395264,1.4766968488693237,-17.822265625,277.7099609375,93.32275390625
8.672853946685791,-1382675073,0,0.408790647983551,-0.38204753398895264,1.4473999738693237,11.962890625,309.9365234375,68.9697265625
8.68427586555481,-1382675078,1,0.5832948088645935,-0.8875080943107605,0.8836541771888733,271.91162109375,135.80322265625,-43.15185546875
8.699095010757446,-1382675054,0,0.16342931985855103,-0.5339030027389526,1.2464722394943237,76.416015625,282.8369140625,20.5078125
8.722100973129272,-1382675059,1,0.3723573088645935,-0.6868245005607605,0.9463983178138733,300.23193359375,118.59130859375,-45.7763671875
8.722842931747437,-1382675040,1,0.1714295893907547,-0.5696370005607605,0.9442010521888733,308.28857421875,86.36474609375,-54.01611328125
8.731467008590698,-1382675035,0,0.008155886083841324,-0.5307291746139526,1.0853394269943237,145.01953125,196.4111328125,22.76611328125
8.731477975845337,-1382675016,0,0.023292604833841324,-0.31344401836395264,1.0223511457443237,197.44873046875,123.59619140625,47.7294921875
8.746094942092896,-1382675021,1,0.0164002887904644,-0.5015217661857605,1.0174431800842285,296.93603515625,48.095703125,-64.697265625
8.770195960998535,-1382674997,0,0.014991823583841324,-0.18575847148895264,0.9078492522239685,219.78759765625,72.08251953125,47.30224609375
8.774775981903076,-1382675002,1,-0.3688536286354065,-0.03228350728750229,0.6177850365638733,287.59765625,21.05712890625,-80.078125
8.774914026260376,-1382674983,1,-0.1898985356092453,-0.06695147603750229,0.8797479271888733,254.8828125,8.7890625,-59.26513671875
8.789523839950562,-1382674978,0,-0.11635583639144897,-0.20919597148895264,0.7877320647239685,228.759765625,17.02880859375,56.2744140625
8.78963589668274,-1382674959,0,-0.19252771139144897,-0.07955730706453323,0.8128785490989685,255.31005859375,-22.5830078125,56.7626953125
8.823166847229004,-1382674940,0,-0.058006223291158676,0.010286442935466766,0.6930055022239685,281.55517578125,-79.65087890625,25.81787109375
8.823174953460693,-1382674921,0,-0.19033044576644897,0.13797199726104736,0.5555543303489685,291.3818359375,-128.0517578125,6.77490234375
8.834619045257568,-1382674964,1,-0.3871641755104065,0.16547039151191711,0.8951287865638733,293.8232421875,-7.8125,-70.73974609375
8.834771871566772,-1382674945,1,-0.3925352692604065,0.3075602352619171,0.6067987084388733,271.17919921875,-54.13818359375,-78.43017578125
8.850818872451782,-1382674902,0,-0.14736169576644897,0.16922199726104736,0.4864625036716461,282.2265625,-198.3642578125,21.6064453125
8.872365951538086,-1382674909,1,-0.3495665192604065,0.5077555775642395,0.2332635521888733,190.7958984375,-115.478515625,-109.06982421875
8.873118877410889,-1382674890,1,-0.3605528473854065,0.6476481556892395,-0.0865606740117073,116.27197265625,-142.578125,-101.4404296875
8.880774974822998,-1382674883,0,-0.17055505514144897,0.26199543476104736,0.4303101599216461,277.77099609375,-255.7373046875,22.88818359375
8.895936965942383,-1382674871,1,-0.3805723786354065,0.7399333119392395,-0.2552618384361267,67.9931640625,-117.49267578125,-78.91845703125
8.922363996505737,-1382674847,0,-0.19374841451644897,0.40335285663604736,0.3534058630466461,235.595703125,-322.021484375,-18.85986328125
8.926660060882568,-1382674852,1,-0.2548399567604065,0.7067301869392395,-0.1854376196861267,61.09619140625,-70.068359375,-65.61279296875
