sync_time,timestamp_ms,device_id,ax,ay,az,gx,gy,gz
0.01730489730834961,1582450211,1,-0.3892919719219208,0.08486117422580719,0.8875845074653625,-24.5361328125,-42.78564453125,2.86865234375
0.017309904098510742,1582450230,1,-0.3714697062969208,0.06191195547580719,0.8829458355903625,-28.38134765625,-43.5791015625,6.53076171875
0.023352861404418945,1582450245,0,-0.6593955159187317,0.18740028142929077,0.9178897142410278,-105.8349609375,55.2978515625,75.927734375
0.03711080551147461,1582450249,1,-0.3299658000469208,0.03407992422580719,0.8900259137153625,-32.65380859375,-48.9501953125,14.46533203125
0.06270599365234375,1582450264,0,-0.6362021565437317,0.18398231267929077,0.9142276048660278,-110.29052734375,54.19921875,83.8623046875
0.06271076202392578,1582450283,0,-0.6056845784187317,0.15199989080429077,0.9362002611160278,-113.28125,54.62646484375,93.75
0.0684959888458252,1582450285,1,-0.3116552531719208,0.07582797110080719,0.9271352887153625,-31.8603515625,-49.31640625,30.029296875
0.08218598365783691,1582450302,0,-0.5927451252937317,0.14711707830429077,0.9164248704910278,-105.77392578125,63.04931640625,97.16796875
0.09699201583862305,1582450304,1,-0.3219091594219208,0.08754672110080719,0.9320181012153625,-24.71923828125,-41.68701171875,31.18896484375
0.0970468521118164,1582450323,1,-0.3167822062969208,0.07851351797580719,0.9005239605903625,-24.35302734375,-33.203125,30.21240234375
0.11903905868530273,1582450321,0,-0.6076377034187317,0.17446082830429077,0.8961611986160278,-102.60009765625,70.12939453125,93.26171875
0.11904478073120117,1582450340,0,-0.6318076252937317,0.20033973455429077,0.8815127611160278,-108.45947265625,71.47216796875,93.8720703125
0.1273488998413086,1582450342,1,-0.3326513469219208,0.05165804922580719,0.8429067730903625,-33.50830078125,-35.64453125,33.447265625
0.14213085174560547,1582450376,0,-0.6139853596687317,0.17909950017929077,0.9152041673660278,-125.91552734375,59.26513671875,112.97607421875
0.16518473625183105,1582450361,1,-0.2845556437969208,0.01528109610080719,0.8214223980903625,-45.5322265625,-51.81884765625,42.724609375
0.1651899814605713,1582450380,1,-0.3045751750469208,0.08779086172580719,0.8958852887153625,-40.283203125,-51.3916015625,53.52783203125
0.17137694358825684,1582450395,0,-0.6239951252937317,0.15322059392929077,0.9100772142410278,-121.03271484375,61.279296875,114.3798828125
0.18710780143737793,1582450399,1,-0.3272802531719208,0.08339633047580719,0.9388540387153625,-31.982421875,-51.1474609375,52.1240234375
0.18713974952697754,1582450418,1,-0.3089697062969208,0.03017367422580719,0.9058950543403625,-32.28759765625,-48.828125,52.30712890625
0.2119150161743164,1582450414,0,-0.6418173909187317,0.17494910955429077,0.9198428392410278,-114.68505859375,61.34033203125,111.81640625
0.21191883087158203,1582450433,0,-0.6584189534187317,0.15566200017929077,0.9298526048660278,-118.0419921875,54.01611328125,117.5537109375
0.21892881393432617,1582450437,1,-0.3018896281719208,-0.09384976327419281,0.8465688824653625,-48.828125,-61.82861328125,64.0869140625
0.2321627140045166,1582450452,0,-0.6266806721687317,0.12172646075487137,0.9808779954910278,-134.1552734375,43.8232421875,135.55908203125
0.24703383445739746,1582450456,1,-0.20081540942192078,-0.10190640389919281,0.9574087262153625,-54.26025390625,-75.01220703125,87.646484375
0.24706101417541504,1582450475,1,-0.2833349406719208,-0.01108609139919281,1.0074576139450073,-36.62109375,-64.88037109375,95.76416015625
0.2681407928466797,1582450471,0,-0.5673545002937317,0.09999794512987137,0.9996768236160278,-143.6767578125,55.60302734375,154.47998046875
0.26814699172973633,1582450490,0,-0.5641806721687317,0.09487099200487137,0.9855166673660278,-134.58251953125,65.4296875,159.7900390625
0.27587890625,1582450494,1,-0.21180173754692078,0.01259554922580719,0.9915884137153625,-29.6630859375,-57.2509765625,108.33740234375
0.29230594635009766,1582450509,0,-0.5461142659187317,0.15370887517929077,1.0111514329910278,-128.11279296875,65.3076171875,164.9169921875
0.31616997718811035,1582450513,1,-0.18299314379692078,0.00380648672580719,0.9381216168403625,-33.203125,-56.09130859375,108.33740234375
0.3222649097442627,1582450528,0,-0.5549033284187317,0.15322059392929077,0.9730654954910278,-141.357421875,64.63623046875,167.3583984375
0.3223581314086914,1582450547,0,-0.4867880940437317,0.14321082830429077,0.9750186204910278,-162.65869140625,46.7529296875,177.1240234375
0.33721303939819336,1582450549,1,-0.046762675046920776,-0.09458218514919281,0.8870962262153625,-61.58447265625,-82.275390625,124.1455078125
0.3630638122558594,1582450566,0,-0.4025595784187317,0.14174598455429077,1.0118838548660278,-173.828125,52.67333984375,194.76318359375
0.363070011138916,1582450585,0,-0.3930380940437317,0.11342567950487137,1.0323916673660278,-157.16552734375,64.02587890625,199.21875
0.3678879737854004,1582450568,1,-0.047250956296920776,0.07338656485080719,1.0023306608200073,-55.17578125,-75.927734375,140.68603515625
0.3678929805755615,1582450587,1,-0.12903806567192078,0.2015603929758072,1.0645865201950073,-31.73828125,-60.48583984375,138.73291015625
0.3808019161224365,1582450604,0,-0.4135459065437317,0.20497840642929077,1.0353213548660278,-133.72802734375,77.81982421875,188.17138671875
0.39708399772644043,1582450606,1,-0.10511228442192078,0.1559060961008072,1.0345572233200073,-25.57373046875,-45.59326171875,128.47900390625
0.3970949649810791,1582450625,1,-0.10047361254692078,0.10732211172580719,0.9569204449653625,-38.75732421875,-34.11865234375,114.501953125
0.4174199104309082,1582450640,0,-0.4259970784187317,0.23891395330429077,1.0028506517410278,-152.7099609375,84.9609375,165.83251953125
0.4274749755859375,1582450644,1,-0.042612284421920776,-0.03647671639919281,0.8858755230903625,-69.091796875,-35.7666015625,113.4033203125
0.44206905364990234,1582450659,0,-0.4306357502937317,0.13881629705429077,0.9925967454910278,-177.734375,69.091796875,180.60302734375
0.4646930694580078,1582450663,1,0.024282246828079224,-0.1792989820241928,0.9735220074653625,-94.66552734375,-41.50390625,126.03759765625
0.46469688415527344,1582450682,1,0.16856935620307922,0.1290506273508072,1.0094107389450073,-72.998046875,-57.18994140625,117.919921875
0.4719576835632324,1582450678,0,-0.2587607502937317,0.21010535955429077,1.2342959642410278,-176.7578125,60.24169921875,209.16748046875
0.472064733505249,1582450697,0,-0.2289755940437317,0.18593543767929077,1.2589541673660278,-143.310546875,55.0537109375,231.01806640625
0.4857490062713623,1582450701,1,0.013540059328079224,0.2423318773508072,1.1348990201950073,-33.63037109375,-48.7060546875,153.25927734375
0.5126290321350098,1582450716,0,-0.3097861409187317,0.27724403142929077,1.1051455736160278,-113.09814453125,58.4716796875,239.990234375
0.5126338005065918,1582450735,0,-0.1530478596687317,0.31972450017929077,1.1366397142410278,-102.23388671875,40.46630859375,229.67529296875
0.5196118354797363,1582450720,1,-0.053842753171920776,0.1329568773508072,0.9913442730903625,-37.41455078125,-15.68603515625,140.380859375
0.5196177959442139,1582450739,1,-0.17200681567192078,0.693503737449646,1.0516470670700073,-15.13671875,-161.19384765625,34.36279296875
0.5324928760528564,1582450754,0,-0.10544043034315109,0.5728983283042908,1.1578799486160278,-76.59912109375,36.07177734375,203.67431640625
0.5469818115234375,1582450758,1,0.3743799030780792,0.327048659324646,1.0697134733200073,35.94970703125,-83.19091796875,38.02490234375
0.5470097064971924,1582450777,1,0.3267724812030792,0.363425612449646,1.0670279264450073,77.20947265625,-56.396484375,-14.892578125
0.567451000213623,1582450773,0,-0.2914755940437317,0.6612772345542908,1.0384951829910278,-59.9365234375,50.96435546875,114.44091796875
0.5674560070037842,1582450792,0,-0.025606445968151093,0.23720496892929077,1.3321963548660278,-83.43505859375,19.1650390625,111.63330078125
0.5898697376251221,1582450811,0,-0.2460654377937317,0.08559364825487137,1.1918154954910278,-123.9013671875,68.42041015625,175.23193359375
0.6134488582611084,1582450813,1,0.12584474682807922,0.2008279711008072,1.1512564420700073,-36.9873046875,-5.67626953125,-6.28662109375
0.6134538650512695,1582450832,1,0.032338887453079224,-0.09214077889919281,1.0367544889450073,-48.33984375,-6.89697265625,13.671875
0.6221158504486084,1582450830,0,-0.1799033284187317,0.22035926580429077,1.1315127611160278,-116.455078125,95.3369140625,186.21826171875
0.6221969127655029,1582450849,0,-0.3761923909187317,0.24867957830429077,1.0985537767410278,-77.880859375,110.53466796875,148.0712890625
0.6364858150482178,1582450851,1,0.035512715578079224,-0.06015835702419281,0.9110220074653625,-0.48828125,-4.94384765625,31.6162109375
0.664496898651123,1582450868,0,-0.2577841877937317,0.22109168767929077,1.1368838548660278,-79.1015625,80.6884765625,154.052734375
0.669562816619873,1582450870,1,-0.024545878171920776,0.03237093985080719,0.9766958355903625,35.5224609375,-42.54150390625,53.16162109375
0.6695680618286133,1582450889,1,0.09752443432807922,0.10390414297580719,1.1485708951950073,39.0625,-71.2890625,75.68359375
0.682060718536377,1582450904,0,-0.1469443440437317,0.29653114080429077,1.2264834642410278,-88.9892578125,72.32666015625,169.43359375
0.6969809532165527,1582450908,1,0.18541505932807922,0.12099398672580719,1.2564810514450073,10.43701171875,-65.91796875,79.1015625
0.6970129013061523,1582450927,1,0.17882326245307922,0.304831862449646,1.1058462858200073,-37.7197265625,-27.40478515625,78.91845703125
0.718034029006958,1582450923,0,-0.2231162190437317,0.31874793767929077,1.3014346361160278,-102.1728515625,81.11572265625,160.0341796875
0.7180397510528564,1582450942,0,-0.2262900471687317,0.30116981267929077,1.3019229173660278,-120.30029296875,91.36962890625,149.59716796875
0.7271838188171387,1582450946,1,-0.00013181567192077637,0.357077956199646,1.1832388639450073,-63.1103515625,53.77197265625,106.38427734375
0.7419829368591309,1582450961,0,-0.2406943440437317,0.27822059392929077,1.3348819017410278,-115.1123046875,85.51025390625,139.70947265625
0.7647140026092529,1582450965,1,-0.15516111254692078,0.320701003074646,1.1915396451950073,-93.505859375,105.65185546875,140.68603515625
0.764718770980835,1582450984,1,-0.5929052829742432,0.05532015860080719,0.9000356793403625,-137.8173828125,44.25048828125,159.3017578125
0.7720327377319336,1582450980,0,-0.2092002034187317,0.40785926580429077,1.4354678392410278,-88.56201171875,96.25244140625,125.79345703125
0.7720658779144287,1582450999,0,-0.2387412190437317,0.49184364080429077,1.4825869798660278,-76.904296875,133.7890625,96.435546875
0.7856898307800293,1582451003,1,-0.2852880656719208,-0.432472825050354,1.0133169889450073,-214.599609375,-140.44189453125,122.25341796875
0.8137469291687012,1582451018,0,-0.3901084065437317,0.19081825017929077,1.1449404954910278,-86.42578125,147.216796875,78.61328125
0.8193788528442383,1582451022,1,0.11534669995307922,-0.2237325757741928,1.2608755826950073,-119.32373046875,-78.43017578125,118.2861328125
0.819382905960083,1582451041,1,-0.19324705004692078,-0.1370626538991928,1.0860708951950073,-61.767578125,-51.94091796875,118.1640625
0.8320348262786865,1582451037,0,-0.3273642659187317,0.31752723455429077,1.0734072923660278,-107.72705078125,95.5810546875,115.966796875
0.8321018218994141,1582451056,0,-0.2465537190437317,0.41030067205429077,1.1173526048660278,-90.39306640625,49.37744140625,115.8447265625
0.8475790023803711,1582451077,1,-0.2613622844219208,0.1412576586008072,0.9654653668403625,-7.14111328125,-64.8193359375,129.21142578125
0.8671398162841797,1582451075,0,-0.1654990315437317,0.43178504705429077,1.1681338548660278,-77.0263671875,35.94970703125,96.19140625
0.8671450614929199,1582451094,0,-0.04391699284315109,0.39052528142929077,1.1300479173660278,-67.81005859375,54.6875,70.61767578125
0.8774118423461914,1582451096,1,-0.16956540942192078,0.06899203360080719,0.9115102887153625,0.06103515625,-38.75732421875,147.88818359375
0.8907768726348877,1582451113,0,0.008329100906848907,0.36513465642929077,0.9747744798660278,-62.92724609375,54.19921875,57.92236328125
0.9163498878479004,1582451115,1,-0.4212743937969208,0.309714674949646,1.2147330045700073,0.79345703125,10.498046875,172.05810546875
0.9163548946380615,1582451134,1,-0.6702978610992432,0.2311014086008072,1.0565298795700073,-6.04248046875,-19.95849609375,167.6025390625
0.9221267700195312,1582451132,0,0.11306542903184891,0.35268348455429077,0.8485537767410278,-43.0908203125,9.70458984375,65.24658203125
0.9369659423828125,1582451153,1,-0.4019872844219208,0.2166971117258072,1.0711783170700073,-6.8359375,-68.54248046875,158.50830078125
0.9627399444580078,1582451168,0,0.07522363215684891,0.38393348455429077,0.9779483079910278,-52.001953125,8.6669921875,57.92236328125
0.9674909114837646,1582451172,1,-0.22498533129692078,0.1832498461008072,1.3114126920700073,9.21630859375,-62.56103515625,138.00048828125
0.9674959182739258,1582451191,1,-0.20203611254692078,0.12197054922580719,1.0909537076950073,70.61767578125,-1.03759765625,127.44140625
0.9822449684143066,1582451187,0,0.11037988215684891,0.5506815314292908,0.9720889329910278,-70.37353515625,60.791015625,41.748046875
0.9822800159454346,1582451206,0,-0.013887695968151093,0.5196756720542908,0.9100772142410278,-100.7080078125,111.87744140625,-7.2021484375
0.9963788986206055,1582451210,1,-0.20374509692192078,0.11928500235080719,1.0348013639450073,75.0732421875,2.13623046875,78.0029296875
1.0187909603118896,1582451225,0,-0.11520605534315109,0.37685340642929077,0.9147158861160278,-116.0888671875,115.1123046875,-56.21337890625
1.0187957286834717,1582451244,0,-0.07785253971815109,0.20058387517929077,0.8326846361160278,-118.408203125,111.38916015625,-79.7119140625
1.0270490646362305,1582451229,1,-0.22522947192192078,0.1532205492258072,1.0067251920700073,50.59814453125,-18.85986328125,50.47607421875
1.0271389484405518,1582451248,1,0.11461427807807922,0.08437289297580719,1.2174185514450073,27.099609375,-33.3251953125,46.5087890625
1.042259931564331,1582451263,0,-0.3051474690437317,0.16957801580429077,0.9449893236160278,-106.4453125,67.0166015625,-27.34375
1.064647912979126,1582451267,1,0.019155293703079224,0.10121859610080719,1.1585806608200073,23.01025390625,-40.771484375,45.41015625
1.064652919769287,1582451286,1,0.11632326245307922,0.02699984610080719,1.0499380826950073,15.7470703125,-51.94091796875,55.7861328125
1.0720610618591309,1582451282,0,-0.3119834065437317,0.14443153142929077,1.0494815111160278,-68.29833984375,46.7529296875,17.08984375
1.0721349716186523,1582451301,0,-0.3500693440437317,0.23378700017929077,1.1317569017410278,-49.37744140625,51.513671875,11.90185546875
1.0873827934265137,1582451305,1,0.17906740307807922,-0.00376187264919281,0.9827993512153625,26.06201171875,-38.818359375,59.26513671875
1.1130189895629883,1582451320,0,-0.3219931721687317,0.25209754705429077,1.1229678392410278,-44.73876953125,66.2841796875,1.8310546875
1.1196680068969727,1582451341,1,0.14781740307807922,0.03163851797580719,0.9911001324653625,62.92724609375,-14.404296875,41.56494140625
1.1320221424102783,1582451339,0,-0.2953818440437317,0.18300575017929077,1.0614444017410278,-45.8984375,74.8291015625,0.30517578125
1.132098913192749,1582451358,0,-0.3105185627937317,0.20107215642929077,1.0626651048660278,-53.466796875,59.4482421875,16.4794921875
1.1471929550170898,1582451360,1,0.17979982495307922,0.07607211172580719,0.9266470074653625,58.9599609375,-16.17431640625,44.98291015625
1.167846918106079,1582451377,0,-0.2621787190437317,0.22890418767929077,1.1205264329910278,-58.7158203125,42.96875,31.67724609375
1.1678516864776611,1582451396,0,-0.2555869221687317,0.28481239080429077,1.1437197923660278,-56.640625,42.05322265625,35.888671875
1.1771798133850098,1582451379,1,0.22301271557807922,0.1847146898508072,0.9510610699653625,39.73388671875,-14.404296875,52.91748046875
1.1772119998931885,1582451398,1,0.15807130932807922,0.1773904711008072,0.9417837262153625,28.99169921875,-13.916015625,50.1708984375
1.215466022491455,1582451417,1,0.11559084057807922,0.1468728929758072,0.9537466168403625,21.66748046875,-20.69091796875,49.01123046875
1.2154719829559326,1582451436,1,0.16490724682807922,0.1681131273508072,0.9178579449653625,11.41357421875,-33.69140625,53.16162109375
1.2221970558166504,1582451432,0,-0.3478720784187317,0.27822059392929077,1.0524111986160278,-39.97802734375,56.0302734375,28.80859375
1.22222900390625,1582451451,0,-0.3158896565437317,0.25722450017929077,1.0326358079910278,-39.794921875,55.0537109375,36.2548828125
1.2371768951416016,1582451455,1,0.2547509968280792,0.11000765860080719,0.8729360699653625,0.06103515625,-48.4619140625,69.64111328125
1.2652928829193115,1582451470,0,-0.2831748127937317,0.26430457830429077,1.0331240892410278,-53.77197265625,46.32568359375,58.65478515625
1.2712209224700928,1582451474,1,0.3350732624530792,0.01088656485080719,0.8221548199653625,-1.77001953125,-44.98291015625,68.4814453125
1.271225929260254,1582451493,1,0.3436181843280792,0.03066195547580719,0.7965200543403625,12.14599609375,-33.38623046875,45.8984375
1.2821509838104248,1582451489,0,-0.2765830159187317,0.33559364080429077,1.0341006517410278,-68.603515625,42.6025390625,75.13427734375
1.2821698188781738,1582451508,0,-0.2848837971687317,0.37050575017929077,1.0121279954910278,-74.462890625,38.330078125,72.32666015625
1.296372890472412,1582451512,1,0.3885400593280792,0.06606234610080719,0.7989614605903625,28.9306640625,-25.390625,18.73779296875
1.3203847408294678,1582451527,0,-0.2814658284187317,0.37172645330429077,0.9730654954910278,-76.72119140625,40.34423828125,56.15234375
1.3203957080841064,1582451546,0,-0.2604697346687317,0.36562293767929077,0.9532901048660278,-82.6416015625,42.724609375,52.67333984375
1.3272278308868408,1582451531,1,0.2752588093280792,0.1773904711008072,0.8245962262153625,40.0390625,-25.2685546875,-4.2724609375
1.3272459506988525,1582451550,1,0.2545068562030792,0.2437967211008072,0.7574575543403625,32.3486328125,-29.541015625,16.41845703125
1.3418829441070557,1582451565,0,-0.2472861409187317,0.32802528142929077,0.9488955736160278,-88.134765625,44.12841796875,63.17138671875
1.3651049137115479,1582451569,1,0.3047998249530792,0.1593240648508072,0.7716177105903625,19.53125,-20.751953125,43.88427734375
1.3721809387207031,1582451584,0,-0.1506064534187317,0.35610145330429077,0.9486514329910278,-93.81103515625,44.00634765625,89.17236328125
1.3722100257873535,1582451603,0,-0.1484091877937317,0.40444129705429077,0.9689151048660278,-87.21923828125,33.8134765625,69.4580078125
1.3871760368347168,1582451605,1,0.2974756062030792,0.1512674242258072,0.8348501324653625,29.84619140625,4.2724609375,10.43701171875
1.4129447937011719,1582451622,0,-0.2018759846687317,0.38613075017929077,0.9549990892410278,-74.951171875,16.17431640625,29.78515625
1.4195787906646729,1582451624,1,0.20616701245307922,0.2494119554758072,0.8158071637153625,29.11376953125,-0.06103515625,-18.12744140625
1.419584035873413,1582451643,1,0.18712404370307922,0.295554518699646,0.7911489605903625,8.60595703125,-13.7939453125,-25.57373046875
1.4312069416046143,1582451641,0,-0.1989462971687317,0.32949012517929077,0.9452334642410278,-75.1953125,11.16943359375,25.20751953125
1.4312169551849365,1582451660,0,-0.2140830159187317,0.30824989080429077,0.9061709642410278,-65.91796875,15.93017578125,41.80908203125
1.4471168518066406,1582451662,1,0.18175294995307922,0.288718581199646,0.8070181012153625,-12.939453125,-11.8408203125,-26.2451171875
1.4691951274871826,1582451696,0,-0.2052939534187317,0.37294715642929077,0.9755069017410278,-54.87060546875,37.2314453125,49.49951171875
1.478083848953247,1582451681,1,0.17003419995307922,0.256736159324646,0.8292348980903625,-7.75146484375,-4.21142578125,-31.8603515625
1.4780890941619873,1582451700,1,0.13097169995307922,0.255027174949646,0.8531606793403625,10.07080078125,4.69970703125,-52.24609375
1.4923977851867676,1582451715,0,-0.2668173909187317,0.31777137517929077,0.9723330736160278,-63.90380859375,48.33984375,33.8134765625
1.5152320861816406,1582451719,1,0.09337404370307922,0.335105299949646,0.8856313824653625,16.41845703125,-0.9765625,-69.39697265625
1.5222408771514893,1582451734,0,-0.3344443440437317,0.27602332830429077,0.9252139329910278,-72.20458984375,48.095703125,32.2265625
1.5223169326782227,1582451753,0,-0.3283408284187317,0.24941200017929077,0.9088565111160278,-72.6318359375,44.25048828125,45.22705078125
1.5397429466247559,1582451738,1,0.033803731203079224,0.424704909324646,0.9146841168403625,-1.3427734375,-9.3994140625,-61.09619140625
1.539747953414917,1582451757,1,0.027456074953079224,0.344138503074646,1.0291861295700073,-28.62548828125,-14.2822265625,-32.71484375
1.562755823135376,1582451772,0,-0.3151572346687317,0.23476356267929077,1.0140811204910278,-71.47216796875,40.22216796875,55.7861328125
1.5675437450408936,1582451776,1,0.06944826245307922,0.2352517992258072,1.1263540983200073,-37.2314453125,-9.765625,-15.625
1.5675489902496338,1582451795,1,0.13243654370307922,0.293845534324646,1.0806998014450073,-37.4755859375,-17.9443359375,-31.982421875
1.5821878910064697,1582451791,0,-0.3840048909187317,0.24526160955429077,1.0948916673660278,-80.322265625,41.1376953125,50.23193359375
1.5822217464447021,1582451810,0,-0.4020712971687317,0.16420692205429077,1.0802432298660278,-86.42578125,52.001953125,56.45751953125
1.5972869396209717,1582451814,1,0.14977052807807922,0.314597487449646,0.9925649762153625,-37.90283203125,-20.6298828125,-34.85107421875
1.6178748607635498,1582451829,0,-0.4052451252937317,0.11952919512987137,1.0030947923660278,-82.275390625,57.31201171875,88.134765625
1.627201795578003,1582451833,1,0.12657716870307922,0.332419753074646,0.9198110699653625,-33.38623046875,-34.24072265625,-10.68115234375
1.6414728164672852,1582451848,0,-0.3200400471687317,0.16225379705429077,0.8829776048660278,-72.265625,58.2275390625,134.27734375
1.6416409015655518,1582451867,0,-0.1552451252937317,0.31972450017929077,0.9134951829910278,-70.37353515625,37.353515625,151.9775390625
1.6643378734588623,1582451869,1,0.08629396557807922,0.2459939867258072,0.8675649762153625,-56.396484375,-31.3720703125,-11.77978515625
1.6704647541046143,1582451886,0,-0.1784384846687317,0.38808387517929077,1.0192080736160278,-83.3740234375,12.02392578125,135.55908203125
1.6705107688903809,1582451905,0,-0.1659873127937317,0.30239051580429077,1.0946475267410278,-99.4873046875,-24.4140625,128.11279296875
1.685586929321289,1582451888,1,0.13390138745307922,0.1993631273508072,0.9000356793403625,-50.6591796875,-47.4853515625,-19.71435546875
1.6856689453125,1582451907,1,0.08385255932807922,0.2281717211008072,0.9708364605903625,-44.189453125,-52.3681640625,-29.541015625
1.7120027542114258,1582451924,0,-0.03732519596815109,0.16933387517929077,1.1571475267410278,-87.7685546875,-30.76171875,162.53662109375
1.7187988758087158,1582451926,1,0.028188496828079224,0.288718581199646,0.9720571637153625,-43.27392578125,-58.89892578125,-18.310546875
1.7188029289245605,1582451945,1,0.021108418703079224,0.273581862449646,0.9469106793403625,-46.69189453125,-58.65478515625,0.06103515625
1.7307207584381104,1582451960,0,0.1799599528312683,0.38857215642929077,1.1217471361160278,-41.07666015625,2.50244140625,193.78662109375
1.7455368041992188,1582451964,1,0.07237794995307922,0.2245096117258072,0.9246938824653625,-48.2177734375,-57.9833984375,8.9111328125
1.7676429748535156,1582451979,0,0.2290322184562683,0.43715614080429077,1.1215029954910278,-51.6357421875,40.6494140625,158.75244140625
1.7759790420532227,1582451983,1,0.06383302807807922,0.2064432054758072,0.8961294293403625,-48.828125,-54.443359375,13.36669921875
1.7759850025177002,1582452002,1,0.09630373120307922,0.1905740648508072,0.9605825543403625,-55.23681640625,-51.08642578125,15.0146484375
1.790611982345581,1582451998,0,0.2451454997062683,0.38710731267929077,1.1156436204910278,-77.63671875,65.85693359375,141.78466796875
1.7906849384307861,1582452017,0,0.2239052653312683,0.29970496892929077,1.0421572923660278,-97.412109375,82.275390625,149.35302734375
1.8140969276428223,1582452021,1,0.047231465578079224,0.2276834398508072,1.0145376920700073,-60.85205078125,-54.0771484375,7.2021484375
1.8206570148468018,1582452036,0,0.2539345622062683,0.29750770330429077,0.9872256517410278,-93.81103515625,77.1484375,166.93115234375
1.8207359313964844,1582452055,0,0.3159462809562683,0.33095496892929077,1.0013858079910278,-84.8388671875,65.7958984375,174.560546875
1.8356270790100098,1582452040,1,0.043325215578079224,0.2474588304758072,1.0313833951950073,-64.94140625,-59.6923828125,18.310546875
1.835658073425293,1582452059,1,0.057973653078079224,0.1769021898508072,1.0103873014450073,-62.01171875,-59.6923828125,35.7666015625
1.8610398769378662,1582452074,0,0.3296181559562683,0.32533973455429077,1.0436221361160278,-78.67431640625,65.3076171875,170.5322265625
1.8795809745788574,1582452093,0,0.3178994059562683,0.27455848455429077,1.1820498704910278,-68.05419921875,80.62744140625,151.06201171875
1.8805389404296875,1582452112,0,0.2715126872062683,0.29726356267929077,1.0702334642410278,-62.6220703125,94.8486328125,135.43701171875
1.8955039978027344,1582452078,1,0.07677248120307922,0.11244906485080719,0.9976919293403625,-53.16162109375,-49.31640625,34.0576171875
1.895554780960083,1582452097,1,0.14635255932807922,0.12026156485080719,1.0116080045700073,-15.13671875,-46.44775390625,16.9677734375
1.9186758995056152,1582452131,0,0.2458779215812683,0.23940223455429077,1.0287295579910278,-75.927734375,98.2666015625,137.0849609375
1.925731897354126,1582452133,1,0.022084981203079224,0.1546853929758072,1.0704458951950073,-0.42724609375,-31.06689453125,0.244140625
1.9257607460021973,1582452152,1,0.028188496828079224,0.2069314867258072,1.1021841764450073,1.15966796875,-29.35791015625,13.00048828125
1.9410560131072998,1582452150,0,0.1711708903312683,0.22377723455429077,0.9684268236160278,-88.2568359375,90.9423828125,143.00537109375
1.9410619735717773,1582452169,0,0.1352822184562683,0.16616004705429077,0.9977236986160278,-84.65576171875,81.6650390625,152.34375
1.9643118381500244,1582452171,1,0.054555684328079224,0.1705545336008072,1.0609244108200073,-12.0849609375,-26.30615234375,32.04345703125
1.970686912536621,1582452188,0,0.12234277278184891,0.12734168767929077,1.0582705736160278,-69.2138671875,82.09228515625,162.04833984375
1.9856839179992676,1582452190,1,0.09044435620307922,0.12367953360080719,0.9967153668403625,-26.0009765625,-26.123046875,36.9873046875
1.985719919204712,1582452209,1,0.09117677807807922,0.10951937735080719,0.9603384137153625,-37.29248046875,-31.55517578125,34.7900390625
2.011908769607544,1582452224,0,0.1721474528312683,0.10707802325487137,1.0716983079910278,-62.255859375,114.44091796875,162.04833984375
2.017995834350586,1582452228,1,0.10533693432807922,0.11318148672580719,0.9210317730903625,-40.0390625,-23.49853515625,36.07177734375
2.018281936645508,1582452247,1,0.10875490307807922,0.08998812735080719,0.9146841168403625,-32.470703125,-9.82666015625,41.3818359375
2.0305919647216797,1582452243,0,0.2217079997062683,0.11830849200487137,1.0299502611160278,-69.091796875,126.28173828125,165.58837890625
2.030632972717285,1582452262,0,0.2561318278312683,0.19716590642929077,0.9640322923660278,-73.3642578125,128.47900390625,172.9736328125
2.045536756515503,1582452266,1,0.11827638745307922,0.11806429922580719,0.8634145855903625,-22.39990234375,-2.01416015625,50.10986328125
2.0680289268493652,1582452281,0,0.2431923747062683,0.27651160955429077,0.9357119798660278,-77.33154296875,126.3427734375,171.32568359375
2.0770089626312256,1582452285,1,0.13341310620307922,0.1263650804758072,0.8282583355903625,-20.93505859375,-0.30517578125,63.4765625
2.077049970626831,1582452304,1,0.13023927807807922,0.1578592211008072,0.8128774762153625,-29.84619140625,6.2255859375,73.18115234375
2.0920920372009277,1582452300,0,0.2546669840812683,0.25429481267929077,0.9923526048660278,-85.0830078125,123.35205078125,164.61181640625
2.092146873474121,1582452319,0,0.3208290934562683,0.22377723455429077,1.0550967454910278,-89.2333984375,118.71337890625,170.654296875
2.115079879760742,1582452323,1,0.10069826245307922,0.2415994554758072,0.8404653668403625,-41.1376953125,14.892578125,77.5146484375
2.1203079223632812,1582452338,0,0.3596474528312683,0.24037879705429077,1.0685244798660278,-89.2333984375,122.13134765625,193.90869140625
2.1371006965637207,1582452342,1,0.036977559328079224,0.330954909324646,0.9156606793403625,-57.06787109375,27.7099609375,88.92822265625
2.1371920108795166,1582452361,1,-0.007211893796920776,0.316306471824646,0.9832876324653625,-66.22314453125,29.052734375,113.037109375
2.1631019115448,1582452357,0,0.4067665934562683,0.33559364080429077,1.0817080736160278,-86.3037109375,134.1552734375,217.6513671875
2.163106918334961,1582452376,0,0.5849892497062683,0.40907996892929077,1.1153994798660278,-88.43994140625,150.57373046875,230.52978515625
2.1679880619049072,1582452397,1,-0.016245096921920776,0.350974440574646,1.1236685514450073,-80.62744140625,29.72412109375,162.29248046875
2.18208909034729,1582452395,0,0.7063271403312683,0.41176551580429077,1.1759463548660278,-88.92822265625,154.96826171875,231.14013671875
2.182114839553833,1582452414,0,0.7949501872062683,0.37050575017929077,1.3238955736160278,-81.9091796875,131.2255859375,230.95703125
2.1972198486328125,1582452416,1,-0.12244626879692078,0.475974440574646,1.3336294889450073,-98.14453125,37.4755859375,180.60302734375
2.217913866043091,1582452433,0,0.7156044840812683,0.35317176580429077,1.5470401048660278,-59.9365234375,94.1162109375,240.90576171875
2.2257018089294434,1582452435,1,-0.13294431567192078,0.469870924949646,1.5096548795700073,-113.4033203125,45.8984375,211.181640625
2.225796937942505,1582452454,1,-0.06507322192192078,0.375876784324646,1.7332876920700073,-114.68505859375,65.24658203125,247.55859375
2.242269992828369,1582452452,0,0.8489052653312683,0.35439246892929077,1.7316104173660278,-31.6162109375,74.27978515625,232.23876953125
2.2660579681396484,1582452473,1,-0.024057596921920776,0.250144362449646,2.0670278072357178,-90.02685546875,76.35498046875,266.4794921875
2.2726428508758545,1582452488,0,1.224881887435913,0.37074989080429077,1.9750186204910278,0.91552734375,99.4873046875,191.83349609375
2.287015914916992,1582452492,1,-0.14319822192192078,0.1588357836008072,2.4493520259857178,-60.6689453125,48.52294921875,292.96875
2.2870709896087646,1582452511,1,-0.11390134692192078,-0.04087124764919281,2.8189809322357178,-31.8603515625,24.35302734375,341.1865234375
2.31266188621521,1582452507,0,1.199979543685913,0.21083778142929077,2.1503114700317383,18.61572265625,94.970703125,145.20263671875
2.312666893005371,1582452526,0,1.188260793685913,0.05995888262987137,2.3346376419067383,50.048828125,52.24609375,127.9296875
2.3188040256500244,1582452530,1,0.2579248249530792,-0.552834153175354,3.1380727291107178,65.36865234375,17.7001953125,334.04541015625
2.3321359157562256,1582452545,0,1.322049856185913,-0.05747275799512863,2.4530458450317383,94.482421875,11.04736328125,124.20654296875
2.332224130630493,1582452564,0,1.525174856185913,-0.05234580487012863,2.4388856887817383,132.01904296875,-1.64794921875,113.76953125
2.3471338748931885,1582452549,1,0.3282373249530792,-0.796730637550354,3.2706410884857178,201.11083984375,-38.818359375,270.751953125
2.3471617698669434,1582452568,1,0.2940576374530792,-0.852638840675354,3.1930043697357178,237.48779296875,-135.986328125,230.89599609375
2.367924928665161,1582452583,0,1.751493215560913,-0.14804893732070923,2.2626161575317383,167.29736328125,8.9111328125,66.34521484375
2.3782458305358887,1582452587,1,0.4256494343280792,-1.031105637550354,2.9986684322357178,240.17333984375,-197.509765625,215.27099609375
2.3782498836517334,1582452606,1,0.4310205280780792,-1.339455246925354,2.7852895259857178,285.70556640625,-231.50634765625,187.3779296875
2.392204761505127,1582452602,0,1.857694387435913,-0.30649620294570923,2.0167665481567383,169.73876953125,12.02392578125,0.244140625
2.3922510147094727,1582452621,0,1.796659231185913,-0.43051964044570923,1.8007022142410278,152.16064453125,4.0283203125,-46.142578125
2.4155168533325195,1582452625,1,0.2881982624530792,-1.473000168800354,2.5865590572357178,331.54296875,-263.671875,158.3251953125
2.4222757816314697,1582452640,0,1.665555715560913,-0.45883995294570923,1.6193057298660278,135.07080078125,-11.1083984375,-83.0078125
2.435723066329956,1582452661,1,0.045034199953079224,-1.450539231300354,2.1368520259857178,331.11572265625,-337.40234375,129.7607421875
2.4638428688049316,1582452659,0,1.518338918685913,-0.5274434685707092,1.4300967454910278,127.38037109375,-40.8935546875,-127.62451171875
2.4638469219207764,1582452678,0,1.301786184310913,-0.6009297966957092,1.2423526048660278,136.5966796875,-72.021484375,-164.12353515625
2.4690308570861816,1582452680,1,-0.12854978442192078,-1.386330246925354,1.8470572233200073,288.818359375,-378.662109375,112.73193359375
2.4820849895477295,1582452697,0,1.076932668685913,-0.6194844841957092,1.0939151048660278,142.7001953125,-105.8349609375,-169.98291015625
2.482142925262451,1582452716,0,0.9455849528312683,-0.5440450310707092,0.9615908861160278,136.962890625,-124.45068359375,-159.912109375
2.496990919113159,1582452699,1,-0.21302244067192078,-1.287209153175354,1.5968130826950073,237.9150390625,-405.09033203125,91.12548828125
2.4970247745513916,1582452718,1,-0.3140966594219208,-1.186134934425354,1.3111685514450073,173.88916015625,-433.77685546875,60.302734375
2.5255110263824463,1582452737,1,-0.3538915812969208,-1.032814621925354,0.9808462262153625,116.88232421875,-454.77294921875,19.10400390625
2.5261640548706055,1582452756,1,-0.4747411906719208,-0.965187668800354,0.6807973980903625,88.9892578125,-464.9658203125,-21.728515625
2.542167901992798,1582452752,0,0.6745888590812683,-0.5308614373207092,0.7289248704910278,114.1357421875,-151.3671875,-159.3017578125
2.5422189235687256,1582452771,0,0.4895302653312683,-0.5257344841957092,0.6031924486160278,94.05517578125,-163.9404296875,-152.587890625
2.564563035964966,1582452775,1,-0.4727880656719208,-0.874367356300354,0.47962555289268494,80.4443359375,-471.435546875,-58.65478515625
2.572299003601074,1582452790,0,0.2763954997062683,-0.5049825310707092,0.48209869861602783,72.81494140625,-177.06298828125,-141.66259765625
2.587496042251587,1582452794,1,-0.5509130954742432,-0.574562668800354,0.17249663174152374,53.466796875,-481.93359375,-102.96630859375
2.587568998336792,1582452813,1,-0.6190283298492432,-0.379982590675354,-0.13878266513347626,-18.06640625,-477.05078125,-141.41845703125
2.6132619380950928,1582452809,0,0.1335732340812683,-0.5394063591957092,0.46159088611602783,52.06298828125,-184.08203125,-127.38037109375
2.6132659912109375,1582452828,0,0.0053994134068489075,-0.5640645623207092,0.43571197986602783,26.06201171875,-182.55615234375,-90.39306640625
2.619067907333374,1582452832,1,-0.6290380954742432,-0.2090841382741928,-0.5198861956596375,-97.59521484375,-425.048828125,-165.71044921875
2.6304209232330322,1582452847,0,-0.1418173909187317,-0.6368184685707092,0.39616119861602783,5.31005859375,-189.453125,-33.203125
2.6304919719696045,1582452866,0,-0.2128623127937317,-0.6016622185707092,0.36979401111602783,-0.8544921875,-209.228515625,34.48486328125
2.647158145904541,1582452851,1,-0.4464208781719208,-0.10019741952419281,-0.6041147112846375,-134.765625,-314.8193359375,-143.49365234375
2.647162914276123,1582452870,1,-0.4932958781719208,-0.06382046639919281,-0.40977874398231506,-135.6201171875,-208.1298828125,-116.2109375
2.669273853302002,1582452885,0,-0.2531455159187317,-0.5760274529457092,0.36564362049102783,5.859375,-234.4970703125,86.669921875
2.677119016647339,1582452889,1,-0.5130712985992432,0.12001742422580719,-0.38682952523231506,-119.7509765625,-183.65478515625,-146.484375
2.6921207904815674,1582452904,0,-0.3219931721687317,-0.48838096857070923,0.37003815174102783,11.77978515625,-263.0615234375,138.24462890625
2.692192792892456,1582452923,0,-0.3869345784187317,-0.46592003107070923,0.47599518299102783,-2.25830078125,-269.22607421875,195.3125
2.7150018215179443,1582452925,1,-0.7269384860992432,0.288718581199646,-0.23448579013347626,-187.6220703125,-160.64453125,-187.19482421875
2.7219619750976562,1582452942,0,-0.4540732502937317,-0.28574424982070923,0.46037018299102783,-51.8798828125,-251.03759765625,235.9619140625
2.7355029582977295,1582452944,1,-0.7176611423492432,0.264548659324646,-0.10631196200847626,-204.52880859375,-142.578125,-164.00146484375
2.7355520725250244,1582452963,1,-0.7552587985992432,0.10341586172580719,0.04310210421681404,-182.373046875,-80.62744140625,-116.39404296875
2.7636497020721436,1582452961,0,-0.5920127034187317,-0.15366417169570923,0.6742373704910278,-74.70703125,-219.29931640625,295.22705078125
2.7636539936065674,1582452980,0,-0.5065634846687317,0.09950966387987137,0.6698428392410278,-152.89306640625,-205.99365234375,219.54345703125
2.7684459686279297,1582452982,1,-0.8243505954742432,0.1292947679758072,0.19324858486652374,-154.72412109375,-54.62646484375,-116.02783203125
2.782033920288086,1582453016,0,-0.5387900471687317,0.19325965642929077,1.0223819017410278,-297.18017578125,-261.1083984375,68.7255859375
2.797048807144165,1582453001,1,-0.8360693454742432,0.256736159324646,0.30262359976768494,-147.03369140625,-44.921875,-133.056640625
2.7971088886260986,1582453020,1,-0.8827002048492432,0.358298659324646,0.38904938101768494,-171.08154296875,-68.66455078125,-153.564453125
2.8184866905212402,1582453035,0,-0.6669638752937317,0.20229285955429077,1.2460147142410278,-309.99755859375,-211.60888671875,60.6689453125
2.827319860458374,1582453039,1,-0.9893896579742432,0.602683424949646,0.42274078726768494,-217.83447265625,-98.32763671875,-156.92138671875
2.8419528007507324,1582453054,0,-0.6698935627937317,0.29091590642929077,1.3363467454910278,-286.07177734375,-114.1357421875,146.728515625
2.842028856277466,1582453073,0,-0.6017783284187317,0.41860145330429077,1.3946963548660278,-260.80322265625,-39.00146484375,200.50048828125
2.866029739379883,1582453058,1,-0.9827978610992432,0.668845534324646,0.41444000601768494,-234.19189453125,-90.02685546875,-134.27734375
2.866034984588623,1582453077,1,-0.9698584079742432,0.742331862449646,0.49061188101768494,-217.28515625,-63.90380859375,-107.421875
2.873279094696045,1582453092,0,-0.5690634846687317,0.6578592658042908,1.3617373704910278,-227.294921875,-23.0712890625,219.6044921875
2.8872828483581543,1582453096,1,-0.9227392673492432,0.900534987449646,0.5343130230903625,-183.41064453125,-47.4853515625,-101.01318359375
2.8873159885406494,1582453115,1,-0.8712255954742432,0.999900221824646,0.5240591168403625,-161.68212890625,-38.818359375,-99.12109375
2.913184881210327,1582453111,0,-0.4084189534187317,0.8106912970542908,1.2928897142410278,-202.5146484375,-40.95458984375,215.087890625
2.9131908416748047,1582453130,0,-0.1728232502937317,0.8958963751792908,1.3114444017410278,-192.19970703125,-31.005859375,223.57177734375
2.9193527698516846,1582453134,1,-0.8118994235992432,1.047263503074646,0.5194204449653625,-175.10986328125,-45.5322265625,-83.740234375
2.9321279525756836,1582453149,0,0.04470605403184891,0.9952616095542908,1.2621279954910278,-200.439453125,24.35302734375,235.41259765625
2.947300910949707,1582453153,1,-0.7369482517242432,1.049949049949646,0.5247915387153625,-214.78271484375,-54.0771484375,-48.095703125
2.96751070022583,1582453168,0,0.1379677653312683,1.0985331535339355,1.1937686204910278,-234.619140625,87.40234375,224.30419921875
2.9675159454345703,1582453187,0,0.2187783122062683,1.0411601066589355,1.2125674486160278,-277.16064453125,121.09375,197.20458984375
2.9773740768432617,1582453189,1,-0.6353857517242432,0.965964674949646,0.6749380230903625,-235.77880859375,-26.0009765625,-25.57373046875
2.9922049045562744,1582453206,0,0.3359658122062683,0.9417948126792908,1.2489444017410278,-276.91650390625,103.94287109375,204.9560546875
2.992223024368286,1582453225,0,0.4870888590812683,0.8482889533042908,1.3085147142410278,-230.28564453125,65.7958984375,239.68505859375
3.0149519443511963,1582453208,1,-0.5824072360992432,0.899314284324646,0.9105337262153625,-256.28662109375,-14.7705078125,18.310546875
3.0149567127227783,1582453227,1,-0.4332372844219208,0.677390456199646,1.2952994108200073,-278.62548828125,-21.78955078125,64.697265625
3.021976947784424,1582453244,0,0.5635048747062683,0.8851541876792908,1.2950869798660278,-186.03515625,59.87548828125,254.638671875
3.037104845046997,1582453246,1,-0.3834325969219208,0.583152174949646,1.4876822233200073,-285.33935546875,-41.015625,61.95068359375
3.0371768474578857,1582453265,1,-0.18860837817192078,0.679831862449646,1.5440787076950073,-272.3388671875,-64.697265625,43.51806640625
3.0623040199279785,1582453280,0,0.8840615153312683,0.7743143439292908,1.2286807298660278,-185.85205078125,119.44580078125,245.9716796875
3.067080020904541,1582453284,1,0.027211934328079224,0.808249831199646,1.5286978483200073,-242.67578125,-61.70654296875,69.3359375
3.0819478034973145,1582453299,0,1.010526418685913,0.6397928595542908,1.0926944017410278,-211.12060546875,133.7890625,283.50830078125
3.0970640182495117,1582453303,1,0.009389668703079224,0.589499831199646,1.7877310514450073,-223.2666015625,-55.35888671875,92.59033203125
3.097127914428711,1582453322,1,0.15050294995307922,0.391501784324646,2.0177114009857178,-233.21533203125,-67.0166015625,121.337890625
3.1194279193878174,1582453318,0,1.044950246810913,0.5728983283042908,1.1034365892410278,-213.623046875,117.67578125,309.02099609375
3.119434118270874,1582453337,0,1.122342824935913,0.5519022345542908,1.1818057298660278,-189.27001953125,93.994140625,316.71142578125
3.127211093902588,1582453341,1,0.4088037312030792,0.345115065574646,1.9837759733200073,-236.2060546875,-112.548828125,114.3798828125
3.141213893890381,1582453356,0,1.125760793685913,0.27187293767929077,1.2782412767410278,-148.92578125,51.45263671875,306.33544921875
3.1412198543548584,1582453375,0,1.352811574935913,-0.006447367370128632,1.1464053392410278,-87.40234375,40.771484375,371.7041015625
3.165015935897827,1582453360,1,0.6771142482757568,0.428611159324646,1.8260611295700073,-210.14404296875,-132.32421875,96.37451171875
3.1650209426879883,1582453379,1,0.8272607326507568,0.428122878074646,1.8746451139450073,-196.96044921875,-120.91064453125,118.95751953125
3.1720938682556152,1582453394,0,1.578885793685913,-0.006691507995128632,1.0729190111160278,-46.142578125,83.0078125,440.5517578125
3.1871960163116455,1582453398,1,0.9764306545257568,0.339499831199646,1.9769400358200073,-196.83837890625,-120.05615234375,169.61669921875
3.1872777938842773,1582453417,1,1.3133447170257568,0.2203592211008072,1.8890494108200073,-172.4853515625,-140.9912109375,217.4072265625
3.212378978729248,1582453413,0,1.962918996810913,0.26723426580429077,1.1424990892410278,-30.76171875,151.91650390625,437.19482421875
3.212383985519409,1582453432,0,2.446073293685913,0.6476053595542908,0.8763858079910278,3.0517578125,175.29296875,323.73046875
3.2298009395599365,1582453451,0,2.420682668685913,0.36000770330429077,0.6222354173660278,4.0283203125,149.71923828125,193.603515625
3.245494842529297,1582453453,1,1.5030419826507568,-0.2498556226491928,1.3180044889450073,-116.02783203125,-73.73046875,239.92919921875
3.2455639839172363,1582453472,1,1.1400048732757568,-0.558449387550354,1.2406119108200073,-76.72119140625,-23.74267578125,290.95458984375
3.2696409225463867,1582453470,0,2.298856496810913,0.04286903887987137,0.5892764329910278,37.78076171875,150.0244140625,136.8408203125
3.2696468830108643,1582453489,0,2.156034231185913,0.19985145330429077,0.6210147142410278,54.74853515625,208.06884765625,114.80712890625
3.2774858474731445,1582453491,1,1.2044579982757568,-0.910256028175354,1.1256216764450073,-4.94384765625,-46.44775390625,283.99658203125
3.2921390533447266,1582453508,0,1.606473684310913,-0.12729698419570923,0.42423737049102783,50.84228515625,210.63232421875,90.02685546875
3.3165299892425537,1582453510,1,1.0316064357757568,-0.791115403175354,0.8912466168403625,67.0166015625,-64.39208984375,170.83740234375
3.3165347576141357,1582453529,1,1.0110986232757568,-0.576027512550354,0.9913442730903625,142.27294921875,-68.603515625,120.2392578125
3.3221089839935303,1582453544,0,1.191434621810913,-0.46567589044570923,1.0638858079910278,200.3173828125,161.43798828125,-7.6904296875
3.3373026847839355,1582453548,1,0.5606591701507568,-0.665382981300354,0.8416860699653625,177.1240234375,-51.26953125,66.22314453125
3.3373188972473145,1582453567,1,0.6002099514007568,-0.708595871925354,1.0216177701950073,216.064453125,-86.669921875,-6.16455078125
3.350705862045288,1582453563,0,1.074735403060913,-0.20639854669570923,0.9833194017410278,209.41162109375,168.212890625,-55.96923828125
3.3507328033447266,1582453582,0,0.7676064372062683,-0.18247276544570923,0.6757022142410278,142.7001953125,164.306640625,-58.77685546875
3.368790864944458,1582453586,1,-0.10096189379692078,0.1561502367258072,0.9217641949653625,210.63232421875,-120.66650390625,-9.09423828125
3.3819048404693604,1582453601,0,0.6313759684562683,-0.19101768732070923,0.24601469933986664,65.0634765625,96.0693359375,-104.43115234375
3.3969638347625732,1582453605,1,0.5262353420257568,-0.11338101327419281,0.9117544293403625,283.26416015625,-119.0185546875,-18.06640625
3.396976947784424,1582453624,1,0.3897607624530792,-0.04062710702419281,0.5872915387153625,349.365234375,-119.20166015625,-88.07373046875
3.418670892715454,1582453620,0,0.3730751872062683,0.11415810137987137,0.8475772142410278,99.4873046875,10.07080078125,-142.7001953125
3.418674945831299,1582453639,0,0.3127724528312683,0.11562294512987137,0.7838565111160278,141.05224609375,-0.6103515625,-158.50830078125
3.4272708892822266,1582453643,1,0.2833154499530792,0.10634554922580719,0.27894195914268494,302.978515625,-178.3447265625,-113.76953125
3.4432647228240967,1582453658,0,0.2136513590812683,0.05702919512987137,0.5365420579910278,125.0,2.74658203125,-176.025390625
3.4654879570007324,1582453662,1,0.08824709057807922,0.280906081199646,-0.03477875515818596,190.3076171875,-204.9560546875,-140.5029296875
3.465492010116577,1582453681,1,-0.057504862546920776,0.417136549949646,-0.06895844638347626,119.7509765625,-179.3212890625,-150.146484375
3.472160816192627,1582453677,0,0.1677529215812683,-0.16245323419570923,0.24674712121486664,76.84326171875,-8.7890625,-148.8037109375
3.472188949584961,1582453696,0,0.0024697259068489075,-0.14975792169570923,0.13761626183986664,-21.240234375,-52.6123046875,-99.30419921875
3.4873738288879395,1582453717,1,-0.2935888469219208,0.651999831199646,-0.15391938388347626,125.91552734375,-2.01416015625,-134.94873046875
3.5133168697357178,1582453715,0,-0.07687597721815109,0.03505653887987137,0.42887604236602783,-29.1748046875,-101.50146484375,-57.12890625
3.5133230686187744,1582453734,0,-0.07321386784315109,0.23476356267929077,0.6058779954910278,-11.90185546875,-135.80322265625,-46.93603515625
3.5192017555236816,1582453736,1,-0.2589208781719208,0.775779128074646,0.02357085421681404,88.5009765625,-14.22119140625,-69.2138671875
3.532139778137207,1582453753,0,-0.06808691471815109,0.19570106267929077,0.7943545579910278,-36.2548828125,-78.0029296875,-53.89404296875
3.5471577644348145,1582453755,1,-0.16175290942192078,0.749656081199646,0.22156889736652374,55.7861328125,-12.8173828125,-70.9228515625
3.5472500324249268,1582453774,1,-0.21497556567192078,0.673728346824646,0.35950836539268494,-10.8642578125,-18.73779296875,-80.01708984375
3.5670928955078125,1582453772,0,-0.09225683659315109,0.19057410955429077,0.8292666673660278,-82.6416015625,-23.3154296875,-48.76708984375
3.5773818492889404,1582453793,1,-0.22498533129692078,0.568747878074646,0.40223297476768494,-43.8232421875,-14.70947265625,-63.53759765625
3.5922367572784424,1582453808,0,0.020047850906848907,0.36757606267929077,0.9022647142410278,-187.01171875,109.68017578125,-2.685546875
3.6158769130706787,1582453812,1,-0.08143064379692078,0.379050612449646,0.43445953726768494,-14.58740234375,38.14697265625,-27.28271484375
3.6158809661865234,1582453831,1,0.010122090578079224,0.260886549949646,0.45814117789268494,9.6435546875,61.8896484375,-32.958984375
3.6222269535064697,1582453827,0,-0.016329102218151093,0.29653114080429077,0.8190127611160278,-197.509765625,140.0146484375,11.65771484375
3.6222569942474365,1582453846,0,-0.04147558659315109,0.32265418767929077,0.7494326829910278,-161.07177734375,120.42236328125,56.70166015625
3.637206792831421,1582453850,1,0.08458498120307922,0.1983865648508072,0.5255239605903625,-35.46142578125,57.18994140625,-39.306640625
3.6644089221954346,1582453865,0,0.0058876946568489075,0.36147254705429077,0.7071963548660278,-125.48828125,60.85205078125,81.35986328125
3.6644129753112793,1582453884,0,0.1367470622062683,0.46034950017929077,0.6644717454910278,-120.1171875,42.724609375,92.46826171875
3.6699490547180176,1582453869,1,0.16930177807807922,0.1375955492258072,0.6226919293403625,-95.458984375,29.78515625,-62.255859375
3.6699538230895996,1582453888,1,0.043569356203079224,0.425437331199646,0.8663442730903625,-183.2275390625,-0.79345703125,-46.56982421875
3.68190598487854,1582453903,0,0.1750771403312683,0.43251746892929077,0.7076846361160278,-162.53662109375,42.78564453125,112.060546875
3.6970198154449463,1582453907,1,0.12511232495307922,0.1632303148508072,0.9991567730903625,-145.20263671875,23.86474609375,-5.0048828125
3.6970880031585693,1582453926,1,0.11046388745307922,0.2049783617258072,1.1361197233200073,-110.4736328125,56.2744140625,2.5634765625
3.7180187702178955,1582453922,0,0.2109658122062683,0.44448035955429077,0.7560244798660278,-204.7119140625,55.48095703125,122.61962890625
3.7180240154266357,1582453941,0,0.2693154215812683,0.45033973455429077,0.7582217454910278,-231.01806640625,68.54248046875,129.08935546875
3.72723388671875,1582453945,1,0.22228029370307922,0.279685378074646,1.1786001920700073,-123.046875,28.86962890625,-8.23974609375
3.7422518730163574,1582453960,0,0.2942177653312683,0.40370887517929077,0.7943545579910278,-241.63818359375,68.90869140625,138.427734375
3.763849973678589,1582453981,1,0.3756006062030792,0.2298807054758072,1.4071158170700073,-242.7978515625,-56.70166015625,-26.0009765625
3.772068977355957,1582453979,0,0.3723427653312683,0.33168739080429077,0.9178897142410278,-240.29541015625,63.232421875,175.4150390625
3.7720978260040283,1582453998,0,0.4167763590812683,0.26625770330429077,0.9850283861160278,-221.5576171875,57.06787109375,233.2763671875
3.787220001220703,1582454000,1,0.5018212795257568,0.276267409324646,1.3668326139450073,-259.70458984375,-50.9033203125,53.22265625
3.8128788471221924,1582454017,0,0.5798622965812683,0.28896278142929077,1.0243350267410278,-211.7919921875,64.3310546875,279.60205078125
3.812882900238037,1582454036,0,0.8064247965812683,0.34633582830429077,1.0756045579910278,-197.44873046875,82.45849609375,287.353515625
3.8200180530548096,1582454019,1,0.6707665920257568,0.02699984610080719,1.5164908170700073,-227.05078125,-33.3251953125,54.3212890625
3.8200228214263916,1582454038,1,0.7520654201507568,0.2289041429758072,1.4185904264450073,-230.52978515625,-58.28857421875,48.88916015625
3.845258951187134,1582454057,1,0.9322412014007568,0.274314284324646,1.3431509733200073,-227.4169921875,-85.02197265625,40.58837890625
3.847059965133667,1582454076,1,1.2120263576507568,0.2018045336008072,1.4852408170700073,-205.56640625,-83.984375,53.1005859375
3.8671278953552246,1582454072,0,1.148954153060913,0.42519325017929077,0.7902041673660278,-211.60888671875,142.39501953125,304.0771484375
3.8671329021453857,1582454091,0,1.202909231185913,0.23110145330429077,1.1466494798660278,-236.2060546875,225.76904296875,310.85205078125
3.877431869506836,1582454095,1,1.1260888576507568,0.448630690574646,1.5782583951950073,-130.79833984375,-54.38232421875,127.3193359375
3.8922629356384277,1582454110,0,1.434598684310913,0.19692176580429077,1.1769229173660278,-173.40087890625,272.4609375,342.83447265625
3.9163999557495117,1582454114,1,1.4053857326507568,0.291648268699646,1.6263540983200073,-72.265625,-19.8974609375,117.1875
3.916404962539673,1582454133,1,1.3602197170257568,0.283347487449646,1.4820669889450073,-22.64404296875,0.244140625,116.2109375
3.922010898590088,1582454129,0,1.520536184310913,0.38246864080429077,1.3173037767410278,-122.86376953125,229.79736328125,338.0126953125
3.922055959701538,1582454148,0,1.630643606185913,0.5982889533042908,1.2880069017410278,0.3662109375,52.79541015625,302.79541015625
3.937156915664673,1582454152,1,1.4710595607757568,0.391745924949646,1.0052603483200073,-16.2353515625,2.197265625,134.21630859375
3.9617857933044434,1582454167,0,1.600126028060913,0.28432410955429077,1.3041201829910278,9.82666015625,-44.3115234375,266.54052734375
3.9617919921875,1582454186,0,1.876493215560913,0.5553202033042908,1.5341006517410278,111.2060546875,85.205078125,163.02490234375
3.9678449630737305,1582454171,1,1.0743310451507568,-0.1312032788991928,1.2786978483200073,-23.49853515625,-6.7138671875,155.1513671875
3.967849016189575,1582454190,1,1.2928369045257568,-0.291603684425354,0.8885610699653625,61.70654296875,-12.6953125,133.48388671875
3.981887102127075,1582454205,0,1.739530324935913,0.43080848455429077,1.5070010423660278,84.65576171875,190.12451171875,28.01513671875
3.9970688819885254,1582454209,1,1.3482568264007568,-0.1988302320241928,1.2288931608200073,165.6494140625,-15.68603515625,67.9931640625
4.0196309089660645,1582454224,0,1.564237356185913,-0.24008995294570923,0.7347842454910278,76.416015625,200.25634765625,-120.4833984375
4.019635915756226,1582454243,0,0.9714638590812683,0.36586707830429077,0.6527529954910278,56.396484375,13.0615234375,-161.07177734375
4.027265787124634,1582454245,1,0.6336572170257568,-0.1250997632741928,1.0853384733200073,173.40087890625,-69.4580078125,58.837890625
4.042086839675903,1582454262,0,0.6406533122062683,-0.04770713299512863,1.4620791673660278,166.80908203125,-39.36767578125,-96.13037109375
4.0651469230651855,1582454264,1,0.4307763874530792,-0.1607442945241928,1.0230826139450073,228.3935546875,-44.189453125,-13.48876953125
4.065155744552612,1582454283,1,0.4561670124530792,-0.03354702889919281,0.9256704449653625,276.2451171875,-118.10302734375,-14.892578125
4.072046756744385,1582454281,0,0.4446083903312683,-0.14145714044570923,1.1366397142410278,189.0869140625,7.62939453125,-117.00439453125
4.072075843811035,1582454300,0,0.6582314372062683,0.22817176580429077,1.0196963548660278,126.03759765625,34.72900390625,-188.29345703125
4.087272882461548,1582454302,1,-0.2581884562969208,0.317038893699646,0.10950835049152374,236.083984375,-83.31298828125,28.4423828125
4.112371921539307,1582454336,0,0.08474511653184891,-0.15659385919570923,0.6505557298660278,99.06005859375,-32.2265625,-104.4921875
4.118197917938232,1582454321,1,0.3297021687030792,0.1358865648508072,0.6456411480903625,251.5869140625,-72.8759765625,-37.59765625
4.11820387840271,1582454340,1,0.21837404370307922,0.2499002367258072,0.41248688101768494,214.66064453125,-127.44140625,-68.17626953125
4.132129907608032,1582454355,0,0.05691308528184891,0.10536903887987137,0.5077334642410278,77.392578125,-105.16357421875,-75.439453125
4.147098779678345,1582454359,1,-0.039438456296920776,0.377341628074646,0.08582670986652374,160.58349609375,-114.6240234375,-91.00341796875
4.167798757553101,1582454374,0,0.07790917903184891,0.06703896075487137,0.45646393299102783,77.2705078125,-128.41796875,-47.42431640625
4.167804002761841,1582454393,0,0.08108300715684891,0.21742957830429077,0.38981354236602783,63.3544921875,-124.69482421875,-51.7578125
4.177039861679077,1582454378,1,0.12389162182807922,0.363181471824646,0.08558256924152374,120.66650390625,-75.62255859375,-94.23828125
4.177109003067017,1582454397,1,-0.022348612546920776,0.466208815574646,0.15345366299152374,93.017578125,-58.53271484375,-88.37890625
4.192263841629028,1582454412,0,0.030545897781848907,-0.011574320495128632,0.37931549549102783,20.6298828125,-107.23876953125,-45.71533203125
4.2146828174591064,1582454416,1,0.16954591870307922,0.348533034324646,0.22816069424152374,124.45068359375,-51.94091796875,-101.62353515625
4.21468710899353,1582454435,1,-0.23328611254692078,0.560691237449646,-0.18516938388347626,102.9052734375,-5.67626953125,-91.1865234375
4.2220518589019775,1582454431,0,0.2695595622062683,0.07192177325487137,0.49967682361602783,-93.44482421875,-51.69677734375,-68.42041015625
4.222064971923828,1582454450,0,-0.1371787190437317,0.30434364080429077,0.7618838548660278,-154.96826171875,24.47509765625,-77.880859375
4.2372658252716064,1582454454,1,-0.12806150317192078,0.580710768699646,0.08607085049152374,30.2734375,-1.77001953125,-54.13818359375
4.265480041503906,1582454469,0,-0.2316611409187317,0.07582802325487137,0.7081729173660278,-192.81005859375,111.63330078125,-44.61669921875
4.270043849945068,1582454473,1,-0.047983378171920776,0.459861159324646,0.35535797476768494,-12.51220703125,2.13623046875,-65.185546875
4.281996726989746,1582454488,0,-0.3017295002937317,0.15004676580429077,0.6808291673660278,-211.48681640625,116.02783203125,14.95361328125
4.282067060470581,1582454507,0,-0.1901572346687317,0.19911903142929077,0.6896182298660278,-205.01708984375,103.45458984375,65.673828125
4.297038793563843,1582454509,1,-0.047250956296920776,0.263327956199646,0.5311391949653625,-63.4765625,-4.69970703125,-114.8681640625
4.319150924682617,1582454526,0,-0.1891806721687317,0.33364051580429077,0.6329776048660278,-202.33154296875,92.83447265625,75.927734375
4.319154977798462,1582454545,0,-0.2084677815437317,0.30263465642929077,0.7567569017410278,-192.9931640625,87.5244140625,79.9560546875
4.327105760574341,1582454528,1,-0.15809080004692078,0.337058424949646,0.6041372418403625,-90.39306640625,-13.671875,-121.27685546875
4.327140808105469,1582454547,1,-0.025766581296920776,0.2308572679758072,0.5860708355903625,-96.00830078125,-3.23486328125,-71.2890625
4.341825723648071,1582454564,0,-0.08957128971815109,0.27870887517929077,0.8876162767410278,-179.931640625,96.86279296875,97.59521484375
4.36564302444458,1582454566,1,0.23863771557807922,0.00258578360080719,0.7840688824653625,-91.064453125,31.73828125,-56.09130859375
4.365646839141846,1582454585,1,0.09459474682807922,0.1844705492258072,0.6419790387153625,-107.23876953125,34.36279296875,-72.20458984375
4.370613098144531,1582454600,0,0.06277246028184891,0.44741004705429077,0.8861514329910278,-206.4208984375,130.4931640625,115.66162109375
4.3872458934783936,1582454604,1,-0.023569315671920776,0.1825174242258072,0.7074087262153625,-140.68603515625,11.77978515625,-103.33251953125
4.412203788757324,1582454619,0,0.04934472590684891,0.40151160955429077,0.8680850267410278,-236.26708984375,127.685546875,82.21435546875
4.4180591106414795,1582454623,1,-0.2696630656719208,0.355613112449646,0.9215200543403625,-200.98876953125,2.5634765625,-59.26513671875
4.418062925338745,1582454642,1,-0.11219236254692078,0.2491678148508072,1.0731314420700073,-194.2138671875,14.7705078125,5.859375
4.4320290088653564,1582454638,0,0.1694619059562683,0.41054481267929077,0.8942080736160278,-234.9853515625,73.91357421875,90.087890625
4.432106018066406,1582454657,0,0.2627236247062683,0.37758582830429077,0.9257022142410278,-204.833984375,38.26904296875,138.36669921875
4.448426961898804,1582454661,1,-0.036997050046920776,0.295798659324646,1.0833853483200073,-164.306640625,29.23583984375,9.82666015625
4.469136953353882,1582454676,0,0.4573037028312683,0.5589823126792908,1.0118838548660278,-175.1708984375,28.86962890625,152.587890625
4.469141721725464,1582454695,0,0.6452919840812683,0.5777811408042908,1.1385928392410278,-187.255859375,52.8564453125,155.45654296875
4.475660800933838,1582454680,1,0.014516621828079224,0.496482253074646,1.1776236295700073,-180.908203125,5.79833984375,9.58251953125
4.47575306892395,1582454699,1,0.033071309328079224,0.562644362449646,1.3321646451950073,-208.80126953125,-10.43701171875,34.5458984375
4.4924187660217285,1582454714,0,0.7075478434562683,0.5670389533042908,1.1610537767410278,-212.7685546875,103.08837890625,160.400390625
4.517438888549805,1582454718,1,0.20616701245307922,0.322898268699646,1.4781607389450073,-237.548828125,-30.6396484375,76.23291015625
4.517443895339966,1582454737,1,0.5340478420257568,0.2347635179758072,1.5682486295700073,-241.14990234375,-41.19873046875,88.7451171875
4.5222108364105225,1582454733,0,0.6665322184562683,0.5409159064292908,1.1415225267410278,-228.271484375,138.00048828125,149.4140625
4.522260904312134,1582454752,0,0.6948525309562683,0.37148231267929077,1.0963565111160278,-235.90087890625,127.197265625,185.546875
4.5499889850616455,1582454771,0,0.7920204997062683,0.39296668767929077,1.0912295579910278,-232.0556640625,103.57666015625,219.7265625
4.56833291053772,1582454773,1,0.9324853420257568,0.327048659324646,1.8184927701950073,-176.45263671875,-51.94091796875,90.75927734375
4.568338871002197,1582454792,1,1.0328271389007568,0.343650221824646,1.9173697233200073,-136.16943359375,-47.42431640625,121.39892578125
4.580410957336426,1582454790,0,0.8699013590812683,0.37636512517929077,1.4154483079910278,-212.34130859375,124.3896484375,251.5869140625
4.597164869308472,1582454811,1,1.1597802639007568,0.298972487449646,1.9056509733200073,-116.02783203125,-60.36376953125,123.22998046875
4.619285821914673,1582454809,0,1.260282278060913,0.45839637517929077,1.4369326829910278,-208.31298828125,173.7060546875,207.8857421875
4.619290828704834,1582454828,0,1.131620168685913,0.29384559392929077,1.5048037767410278,-159.5458984375,231.01806640625,178.22265625
4.627156019210815,1582454830,1,1.3597314357757568,0.12099398672580719,1.7616080045700073,-93.32275390625,-81.6650390625,122.6806640625
4.6271679401397705,1582454849,1,1.3140771389007568,-0.09946499764919281,1.2454947233200073,-67.626953125,-59.5703125,84.16748046875
4.641788959503174,1582454864,0,1.159452199935913,0.5519022345542908,1.3321963548660278,-57.67822265625,122.1923828125,223.57177734375
4.666254758834839,1582454868,1,1.0301415920257568,-0.2496114820241928,1.3270376920700073,-50.048828125,-44.25048828125,114.68505859375
4.666260004043579,1582454887,1,1.2408349514007568,-0.373634934425354,1.3248404264450073,40.58837890625,-44.49462890625,86.24267578125
4.671987056732178,1582454883,0,1.239774465560913,0.7401346564292908,1.2135440111160278,-3.96728515625,34.1796875,197.8759765625
4.6720499992370605,1582454902,0,1.229764699935913,0.36269325017929077,1.5958682298660278,-40.34423828125,44.61669921875,128.41796875
4.687213897705078,1582454906,1,0.8568017482757568,-0.269142746925354,1.2476919889450073,110.7177734375,-27.64892578125,12.6953125
4.712994813919067,1582454921,0,1.129911184310913,0.33949989080429077,2.0590028762817383,72.265625,169.73876953125,27.64892578125
4.719717979431152,1582454925,1,0.9410302639007568,-0.12168179452419281,1.2830923795700073,156.06689453125,-55.48095703125,-9.46044921875
4.719724893569946,1582454944,1,0.3900049030780792,-0.1775899976491928,0.9122427105903625,114.31884765625,-28.564453125,-26.9775390625
4.732048988342285,1582454940,0,0.5425087809562683,-0.15049034357070923,1.6627627611160278,99.79248046875,163.2080078125,27.2216796875
4.732130765914917,1582454959,0,0.5920693278312683,-0.15488487482070923,1.1637393236160278,140.625,138.18359375,-7.62939453125
4.747193813323975,1582454963,1,0.2667138874530792,0.08412875235080719,1.3338736295700073,104.1259765625,-88.8671875,13.0615234375
4.767880916595459,1582454978,0,0.3764931559562683,0.01601357012987137,1.0338565111160278,201.35498046875,-5.2490234375,-23.4375
4.776968002319336,1582454982,1,0.5816552639007568,-0.2151876538991928,1.2159537076950073,198.42529296875,-100.4638671875,-31.25
4.776978015899658,1582455001,1,0.14928224682807922,-0.257912278175354,1.1236685514450073,245.60546875,-99.853515625,-38.26904296875
4.79210090637207,1582454997,0,0.5119912028312683,0.15981239080429077,1.1788760423660278,235.9619140625,-25.69580078125,-21.78955078125
4.7921648025512695,1582455016,0,0.1765419840812683,0.30776160955429077,1.0257998704910278,242.49267578125,-20.8740234375,-73.8525390625
4.815962791442871,1582455037,1,0.3846338093280792,-0.1968771070241928,0.7318227887153625,202.57568359375,-80.26123046875,-45.34912109375
4.822009801864624,1582455035,0,0.04885644465684891,0.03261513262987137,0.9293643236160278,185.60791015625,-5.126953125,-58.4716796875
4.822038888931274,1582455054,0,0.05837792903184891,0.15639442205429077,0.6444522142410278,114.8681640625,-30.76171875,-74.70703125
4.837324857711792,1582455056,1,0.19859865307807922,0.1605447679758072,0.47645172476768494,211.73095703125,-109.375,-75.13427734375
4.864007949829102,1582455073,0,-0.12082128971815109,0.13539832830429077,0.5741397142410278,80.4443359375,-74.70703125,-92.22412109375
4.869452714920044,1582455075,1,0.21324709057807922,0.2469705492258072,0.25062164664268494,191.95556640625,-97.16796875,-98.93798828125
4.869457960128784,1582455094,1,0.042348653078079224,0.452536940574646,0.15418608486652374,160.70556640625,-80.322265625,-113.037109375
4.880194902420044,1582455092,0,0.020047850906848907,0.13954871892929077,0.45963776111602783,77.20947265625,-98.876953125,-80.810546875
4.8957679271698,1582455113,1,-0.010874003171920776,0.564109206199646,0.11707670986652374,108.33740234375,-81.97021484375,-97.96142578125
4.919043779373169,1582455128,0,-0.1774619221687317,0.11366982012987137,0.21574126183986664,76.171875,-125.0,-79.28466796875
4.927057981491089,1582455132,1,-0.07898923754692078,0.595603346824646,0.08460600674152374,67.9931640625,-73.66943359375,-74.27978515625
4.927148818969727,1582455151,1,-0.041635721921920776,0.609275221824646,0.07361967861652374,50.10986328125,-53.16162109375,-72.81494140625
4.942062854766846,1582455147,0,-0.2914755940437317,0.007956929504871368,0.09489165246486664,47.42431640625,-130.7373046875,-54.26025390625
4.942069053649902,1582455166,0,-0.3290732502937317,0.0035623982548713684,0.24503813683986664,-26.123046875,-130.18798828125,7.080078125
4.964979887008667,1582455170,1,-0.07288572192192078,0.644431471824646,0.08924467861652374,33.203125,-34.0576171875,-74.3408203125
4.972164869308472,1582455185,0,-0.3840048909187317,0.13442176580429077,0.5131045579910278,-65.73486328125,-110.04638671875,44.61669921875
4.972205877304077,1582455204,0,-0.2792685627937317,0.11220497637987137,0.5917178392410278,-101.50146484375,-86.12060546875,52.001953125
4.985435962677002,1582455189,1,-0.047006815671920776,0.493552565574646,0.13148100674152374,1.8310546875,-20.01953125,-70.98388671875
4.9854888916015625,1582455208,1,-0.08484861254692078,0.427390456199646,0.22986967861652374,-33.5693359375,-13.0615234375,-82.275390625
5.012229919433594,1582455223,0,-0.2175009846687317,0.17861121892929077,0.5963565111160278,-163.9404296875,-46.32568359375,75.86669921875
5.01716685295105,1582455227,1,-0.11902830004692078,0.403464674949646,0.28821930289268494,-84.77783203125,-4.69970703125,-75.86669921875
5.01717209815979,1582455246,1,-0.041635721921920776,0.2303689867258072,0.5172231793403625,-102.9052734375,7.75146484375,-64.51416015625
5.032005786895752,1582455242,0,-0.1764853596687317,0.19643348455429077,0.6659365892410278,-209.04541015625,8.60595703125,114.19677734375
5.032042980194092,1582455261,0,-0.05221777409315109,0.24599403142929077,0.8451358079910278,-236.02294921875,67.3828125,147.0947265625
5.04703688621521,1582455265,1,0.033803731203079224,0.07338656485080719,0.5699575543403625,-90.4541015625,33.26416015625,-67.93212890625
5.068212032318115,1582455280,0,0.04372949153184891,0.48232215642929077,0.9132510423660278,-238.09814453125,102.60009765625,157.53173828125
5.0778398513793945,1582455301,1,0.025014668703079224,0.1810525804758072,0.7039907574653625,-138.12255859375,19.8974609375,-87.646484375
5.0906031131744385,1582455299,0,0.1689736247062683,0.49111121892929077,1.0411807298660278,-216.00341796875,110.7177734375,159.85107421875
5.090673923492432,1582455318,0,0.2395302653312683,0.5084452033042908,1.0528994798660278,-194.7021484375,98.9990234375,156.67724609375
5.115300893783569,1582455320,1,-0.18958494067192078,0.1451639086008072,0.8653677105903625,-173.88916015625,10.07080078125,-87.21923828125
5.122111082077026,1582455337,0,0.7424599528312683,0.6776346564292908,0.48478424549102783,-219.66552734375,92.46826171875,141.78466796875
5.122184991836548,1582455356,0,0.2888466715812683,0.34194129705429077,0.8407412767410278,-289.1845703125,56.82373046875,143.12744140625
5.136987924575806,1582455339,1,-0.21082517504692078,0.560935378074646,1.0550650358200073,-205.810546875,-1.3427734375,-0.67138671875
5.137045860290527,1582455358,1,0.15392091870307922,0.10317172110080719,1.0565298795700073,-190.7958984375,16.66259765625,14.16015625
5.169137954711914,1582455377,1,-0.039438456296920776,0.328269362449646,1.1312369108200073,-153.3203125,36.0107421875,-12.3291015625
5.169142723083496,1582455396,1,0.21275880932807922,0.1988748461008072,1.1869009733200073,-159.24072265625,32.04345703125,-28.25927734375
5.182117938995361,1582455392,0,0.7234169840812683,0.7042459845542908,1.1163760423660278,-235.77880859375,116.51611328125,213.07373046875
5.182180881500244,1582455411,0,0.8220497965812683,0.7020487189292908,1.2548037767410278,-254.5166015625,166.80908203125,158.38623046875
5.197154760360718,1582455415,1,0.041127949953079224,0.465720534324646,1.3368033170700073,-177.24609375,24.10888671875,12.26806640625
5.217166900634766,1582455430,0,0.8166787028312683,0.5704569220542908,1.2257510423660278,-259.033203125,198.42529296875,122.98583984375
5.2272326946258545,1582455434,1,0.3926904499530792,0.289939284324646,1.4622915983200073,-181.884765625,3.60107421875,59.26513671875
5.22726583480835,1582455453,1,0.5032861232757568,0.331687331199646,1.5047720670700073,-172.7294921875,0.0,59.02099609375
5.242860794067383,1582455449,0,0.7497841715812683,0.5150370001792908,1.1029483079910278,-231.62841796875,194.2138671875,131.89697265625
5.242866039276123,1582455468,0,0.6374794840812683,0.36074012517929077,1.0292178392410278,-199.5849609375,163.9404296875,174.62158203125
5.265919923782349,1582455472,1,0.6768701076507568,0.339255690574646,1.6236685514450073,-187.80517578125,-30.21240234375,51.08642578125
5.272024869918823,1582455487,0,0.7021767497062683,0.41176551580429077,1.0682803392410278,-191.58935546875,137.939453125,217.7734375
5.272118806838989,1582455506,0,0.7915322184562683,0.48915809392929077,1.3011904954910278,-211.24267578125,165.6494140625,209.04541015625
5.286942958831787,1582455491,1,0.7579247951507568,0.323630690574646,1.8509634733200073,-192.81005859375,-64.0869140625,47.9736328125
5.286971807479858,1582455510,1,0.9205224514007568,0.332419753074646,1.9583853483200073,-175.35400390625,-74.40185546875,92.4072265625
5.313186883926392,1582455525,0,0.8928505778312683,0.38393348455429077,1.3802920579910278,-217.6513671875,211.24267578125,184.6923828125
5.320016860961914,1582455529,1,1.2779443264007568,0.2311014086008072,1.9591177701950073,-125.244140625,-76.7822265625,112.060546875
5.332224130630493,1582455544,0,1.844510793685913,1.2613749504089355,1.7926455736160278,-205.56640625,250.9765625,159.60693359375
5.332252025604248,1582455563,0,1.410917043685913,0.8624491095542908,1.3614932298660278,-185.791015625,256.7138671875,67.19970703125
5.347044944763184,1582455565,1,1.1004540920257568,0.10732211172580719,1.5865591764450073,-39.97802734375,-24.23095703125,88.2568359375
5.366774797439575,1582455582,0,1.381864309310913,0.9395975470542908,1.7086611986160278,-81.0546875,170.8984375,139.09912109375
5.376943826675415,1582455584,1,1.0667626857757568,-0.275490403175354,1.3465689420700073,-75.927734375,-80.9326171875,121.64306640625
5.376955986022949,1582455603,1,1.1802880764007568,-0.302590012550354,1.3299673795700073,5.0048828125,-79.1015625,84.3505859375
5.392159938812256,1582455601,0,1.120145559310913,0.6004862189292908,1.5106631517410278,-12.39013671875,167.05322265625,117.00439453125
5.392225742340088,1582455620,0,0.6655556559562683,0.14443153142929077,1.4945498704910278,-0.6103515625,152.2216796875,89.7216796875
5.415703773498535,1582455622,1,0.7977197170257568,-0.420754075050354,1.2970083951950073,59.814453125,-46.875,61.34033203125
5.422272682189941,1582455656,0,0.5403115153312683,-0.07578330487012863,1.3060733079910278,55.0537109375,152.587890625,36.7431640625
5.437293767929077,1582455641,1,0.7083642482757568,-0.319435715675354,0.9681509137153625,109.80224609375,-53.16162109375,52.1240234375
5.437340021133423,1582455660,1,0.5701806545257568,-0.388527512550354,1.0030630826950073,119.5068359375,-78.2470703125,24.4140625
5.463788747787476,1582455675,0,0.8576943278312683,-0.5003438591957092,1.1195498704910278,104.98046875,127.8076171875,-3.7841796875
5.468779802322388,1582455679,1,0.24205568432807922,0.05629672110080719,1.2652701139450073,145.263671875,-116.2109375,-34.0576171875
5.482014894485474,1582455694,0,0.2639443278312683,0.07997841387987137,1.0773135423660278,192.138671875,44.189453125,49.560546875
5.482050895690918,1582455713,0,0.1809365153312683,0.03432411700487137,1.1532412767410278,236.26708984375,20.20263671875,8.72802734375
5.4961998462677,1582455698,1,0.5928857326507568,-0.1817403882741928,1.1329458951950073,227.23388671875,-114.990234375,-25.08544921875
5.496263027191162,1582455717,1,0.13268068432807922,-0.285744309425354,0.9930532574653625,250.18310546875,-90.88134765625,-74.52392578125
5.519158840179443,1582455732,0,0.11355371028184891,0.02626747637987137,1.0572940111160278,241.2109375,23.92578125,-35.94970703125
5.527031898498535,1582455736,1,-0.13123533129692078,0.2103494554758072,0.46717438101768494,204.77294921875,-98.81591796875,-6.591796875
5.527063846588135,1582455755,1,0.3321435749530792,-0.04868374764919281,0.7188833355903625,233.0322265625,-87.2802734375,-62.8662109375
5.541956901550293,1582455751,0,-0.08200293034315109,-0.010353617370128632,0.6835147142410278,244.7509765625,-35.94970703125,-62.1337890625
5.542049884796143,1582455770,0,-0.06637793034315109,0.11708778887987137,0.49894440174102783,224.67041015625,-95.15380859375,-15.80810546875
5.564313888549805,1582455774,1,0.16075685620307922,0.267234206199646,0.40589508414268494,282.5927734375,-86.85302734375,-95.458984375
5.572211027145386,1582455789,0,-0.04977636784315109,0.28090614080429077,0.6273623704910278,163.330078125,-147.8271484375,-34.3017578125
5.587085723876953,1582455793,1,0.042348653078079224,0.339743971824646,0.19861967861652374,263.48876953125,-92.46826171875,-111.63330078125
5.612795829772949,1582455808,0,-0.2519248127937317,0.27699989080429077,0.5350772142410278,159.72900390625,-153.25927734375,-12.451171875
5.612800121307373,1582455827,0,-0.1318076252937317,0.36830848455429077,0.27213776111602783,115.72265625,-144.4091796875,-16.6015625
5.619570016860962,1582455829,1,0.027211934328079224,0.544089674949646,0.15345366299152374,180.2978515625,-72.20458984375,-82.51953125
5.632291793823242,1582455846,0,-0.2558310627937317,0.31996864080429077,0.24430571496486664,57.7392578125,-113.76953125,-42.724609375
5.632364749908447,1582455865,0,-0.3258994221687317,0.17861121892929077,0.14469633996486664,-3.5400390625,-87.09716796875,-66.58935546875
5.648485898971558,1582455848,1,0.13854005932807922,0.505759596824646,0.10389311611652374,102.84423828125,-76.59912109375,-81.54296875
5.648491859436035,1582455867,1,-0.009409159421920776,0.500876784324646,0.13685210049152374,28.99169921875,-62.255859375,-112.12158203125
5.669067859649658,1582455884,0,-0.4579795002937317,0.11269325762987137,0.24918852746486664,-42.90771484375,-97.65625,-30.029296875
5.678930997848511,1582455886,1,-0.20716306567192078,0.572165846824646,0.17591460049152374,-3.72314453125,-43.3349609375,-93.1396484375
5.678936958312988,1582455905,1,-0.23133298754692078,0.635154128074646,0.13904936611652374,-14.22119140625,-14.83154296875,-61.58447265625
5.692640066146851,1582455920,0,-0.2909873127937317,0.24135535955429077,0.5028506517410278,-113.4033203125,-42.29736328125,5.7373046875
5.713841915130615,1582455924,1,-0.10486814379692078,0.504294753074646,0.26746734976768494,-24.5361328125,0.30517578125,-39.12353515625
5.72219705581665,1582455939,0,-0.2721884846687317,0.24867957830429077,0.5028506517410278,-170.41015625,4.638671875,35.888671875
5.737060785293579,1582455943,1,-0.06409665942192078,0.393210768699646,0.30115875601768494,-54.87060546875,-5.79833984375,-49.072265625
5.7371180057525635,1582455962,1,-0.036264628171920776,0.413718581199646,0.39515289664268494,-100.28076171875,-10.55908203125,-60.97412109375
5.764986991882324,1582455958,0,-0.1740439534187317,0.40297645330429077,0.6229678392410278,-218.93310546875,62.31689453125,75.98876953125
5.764992713928223,1582455977,0,-0.11960058659315109,0.29360145330429077,0.7101260423660278,-231.01806640625,77.7587890625,68.90869140625
5.769490003585815,1582455981,1,-0.16248533129692078,0.289451003074646,0.45521149039268494,-126.89208984375,-0.1220703125,-48.76708984375
5.781953811645508,1582455996,0,0.016141600906848907,0.39955848455429077,0.7198916673660278,-202.880859375,62.98828125,74.8291015625
5.781991004943848,1582456015,0,0.08767480403184891,0.5060037970542908,0.8763858079910278,-176.26953125,52.30712890625,89.35546875
5.796982049942017,1582456000,1,-0.07361814379692078,0.309226393699646,0.6815298199653625,-131.7138671875,9.6435546875,-20.1416015625
5.79705286026001,1582456019,1,-0.027963846921920776,0.303855299949646,0.7223013043403625,-118.65234375,14.95361328125,-13.48876953125
5.8176939487457275,1582456034,0,0.2012001872062683,0.49111121892929077,0.9440127611160278,-164.73388671875,20.20263671875,105.28564453125
5.827086925506592,1582456038,1,-0.0033056437969207764,0.375144362449646,0.8050649762153625,-143.73779296875,6.8359375,-7.32421875
5.827153921127319,1582456057,1,0.035756856203079224,0.405906081199646,0.7757681012153625,-167.54150390625,6.103515625,3.11279296875
5.841894865036011,1582456053,0,0.1816689372062683,0.5609354376792908,0.8707705736160278,-180.7861328125,36.43798828125,143.9208984375
5.8419108390808105,1582456072,0,0.2243935465812683,0.6034159064292908,0.9654971361160278,-203.4912109375,54.3212890625,160.70556640625
5.869856119155884,1582456091,0,0.3840615153312683,0.36806434392929077,0.8341494798660278,-190.73486328125,44.37255859375,158.69140625
5.886976718902588,1582456093,1,-0.08533689379692078,0.645652174949646,1.1944693326950073,-196.2890625,0.8544921875,19.83642578125
5.8870038986206055,1582456112,1,0.2647607624530792,0.395163893699646,1.0150259733200073,-190.36865234375,24.90234375,40.22216796875
5.913049936294556,1582456110,0,0.3613564372062683,0.8817362189292908,0.8578311204910278,-178.1005859375,0.9765625,180.60302734375
5.9130539894104,1582456129,0,0.5412880778312683,0.7933573126792908,0.7872744798660278,-205.62744140625,6.591796875,173.88916015625
5.918876886367798,1582456131,1,0.24522951245307922,0.496970534324646,1.1795767545700073,-180.0537109375,20.3857421875,37.29248046875
5.932145833969116,1582456148,0,0.6289345622062683,0.6515116095542908,0.8324404954910278,-256.103515625,51.45263671875,179.13818359375
5.946932077407837,1582456150,1,0.4927881062030792,0.409079909324646,1.3368033170700073,-178.77197265625,8.056640625,47.8515625
5.946966886520386,1582456169,1,0.5499169826507568,0.445945143699646,1.4823111295700073,-180.0537109375,3.2958984375,46.81396484375
5.967118978500366,1582456184,0,0.6745888590812683,0.6446756720542908,0.9828311204910278,-290.283203125,134.33837890625,245.9716796875
5.977168798446655,1582456188,1,0.7242333889007568,0.379294753074646,1.5858267545700073,-187.01171875,-10.92529296875,69.03076171875
5.977173089981079,1582456207,1,0.9171044826507568,0.324607253074646,1.6375845670700073,-161.43798828125,-6.2255859375,62.31689453125
5.99207878112793,1582456203,0,0.7688271403312683,0.6043924689292908,1.0018740892410278,-287.41455078125,179.99267578125,276.79443359375
5.992160797119141,1582456222,0,0.9055458903312683,0.6434549689292908,1.2103701829910278,-268.9208984375,151.55029296875,294.86083984375
6.014850854873657,1582456226,1,1.0806787014007568,0.306052565574646,1.6983755826950073,-111.4501953125,3.11279296875,86.3037109375
6.021911859512329,1582456241,0,1.651883840560913,1.1297831535339355,1.4969912767410278,-248.53515625,252.74658203125,210.14404296875
6.036926984786987,1582456245,1,1.0997216701507568,0.363913893699646,1.7296255826950073,-61.46240234375,24.169921875,53.16162109375
6.036953926086426,1582456264,1,1.0804345607757568,0.1927713304758072,1.8289908170700073,-15.93017578125,-23.681640625,53.89404296875
6.063269853591919,1582456260,0,1.360379934310913,0.7772440314292908,1.1774111986160278,-227.84423828125,266.29638671875,165.6494140625
6.063275098800659,1582456279,0,1.284452199935913,0.6913065314292908,1.3644229173660278,-170.2880859375,228.45458984375,195.556640625
6.068196773529053,1582456283,1,0.7911279201507568,0.251365065574646,1.4200552701950073,1.28173828125,-48.40087890625,107.7880859375
6.0819337368011475,1582456298,0,1.282987356185913,0.5799784064292908,1.5695010423660278,-42.29736328125,130.18798828125,175.537109375
6.097028970718384,1582456302,1,1.1942040920257568,-0.03769741952419281,0.6146352887153625,-63.8427734375,-14.09912109375,78.79638671875
6.097080945968628,1582456321,1,0.5862939357757568,-0.1500021070241928,0.9935415387153625,-96.61865234375,-5.79833984375,86.669921875
6.118693828582764,1582456317,0,1.268583059310913,0.28969520330429077,1.1698428392410278,-11.16943359375,36.56005859375,125.8544921875
6.118697881698608,1582456336,0,1.028348684310913,0.26406043767929077,1.3807803392410278,13.5498046875,52.6123046875,97.2900390625
6.12703275680542,1582456357,1,0.7808740139007568,-0.338234543800354,1.3917349576950073,105.04150390625,-72.81494140625,28.38134765625
6.142441987991333,1582456355,0,0.9751259684562683,0.26430457830429077,1.1092959642410278,91.6748046875,82.763671875,52.30712890625
6.142448902130127,1582456374,0,0.7309853434562683,-0.06308799237012863,1.2003604173660278,111.572265625,38.75732421875,46.9970703125
6.164698839187622,1582456376,1,0.4649560749530792,-0.08286343514919281,1.0880240201950073,161.0107421875,-69.580078125,-4.08935546875
6.17219090461731,1582456393,0,0.5954872965812683,0.013328023254871368,1.2135440111160278,136.41357421875,60.9130859375,-3.41796875
6.186946868896484,1582456395,1,0.4070947468280792,-0.00498257577419281,1.1234244108200073,140.13671875,-88.07373046875,-6.8359375
6.186978816986084,1582456414,1,0.4224756062030792,-0.06577359139919281,1.2765005826950073,173.40087890625,-115.72265625,-31.18896484375
6.212039947509766,1582456412,0,0.5593544840812683,0.09145302325487137,1.1241885423660278,173.7060546875,55.84716796875,-47.4853515625
6.218007802963257,1582456433,1,0.2862451374530792,-0.1441427320241928,0.9683950543403625,216.12548828125,-117.7978515625,-27.587890625
6.232285976409912,1582456448,0,0.2678505778312683,0.12270302325487137,0.8009463548660278,175.29296875,20.6298828125,-94.1162109375
6.246966123580933,1582456452,1,-0.18982908129692078,0.511618971824646,0.09461577236652374,172.607421875,-101.318359375,28.99169921875
6.246971845626831,1582456471,1,0.3565576374530792,0.1310037523508072,0.5802114605903625,163.26904296875,-92.041015625,-1.953125
6.269653081893921,1582456467,0,0.1460244059562683,0.07241005450487137,0.7096377611160278,178.16162109375,-43.27392578125,-73.05908203125
6.269657850265503,1582456486,0,0.10207910090684891,0.24770301580429077,0.5421572923660278,165.71044921875,-136.77978515625,-89.53857421875
6.278731107711792,1582456490,1,0.3057763874530792,0.1808084398508072,0.6190298199653625,206.11572265625,-87.5244140625,-51.1474609375
6.29214072227478,1582456505,0,0.04079980403184891,0.35903114080429077,0.5380069017410278,121.7041015625,-153.01513671875,-76.84326171875
6.292190074920654,1582456524,0,0.1264931559562683,0.25600379705429077,0.42960846424102783,69.4580078125,-114.92919921875,-71.35009765625
6.31558895111084,1582456509,1,0.21007326245307922,0.320701003074646,0.46351227164268494,215.8203125,-86.48681640625,-93.017578125
6.315593957901001,1582456528,1,0.15807130932807922,0.540183424949646,0.29090484976768494,198.18115234375,-79.7119140625,-89.35546875
6.320349931716919,1582456543,0,-0.09494238346815109,0.26015418767929077,0.37492096424102783,4.94384765625,-80.50537109375,-100.341796875
6.337055921554565,1582456547,1,0.13561037182807922,0.540427565574646,0.09437163174152374,135.80322265625,-61.46240234375,-85.693359375
6.3371288776397705,1582456566,1,0.051625996828079224,0.566306471824646,0.11683256924152374,58.53271484375,-63.4765625,-85.5712890625
6.363351821899414,1582456562,0,-0.3012412190437317,0.14614051580429077,0.27506744861602783,-35.33935546875,-60.302734375,-77.0263671875
6.363356828689575,1582456581,0,-0.3376181721687317,0.12441200762987137,0.21281157433986664,-61.4013671875,-98.876953125,-40.22216796875
6.3685829639434814,1582456585,1,-0.048471659421920776,0.481833815574646,0.14515288174152374,27.40478515625,-35.58349609375,-86.85302734375
6.382022857666016,1582456600,0,-0.2099326252937317,0.26821082830429077,0.46745026111602783,-55.0537109375,-133.056640625,-18.37158203125
6.397119998931885,1582456621,1,-0.08509275317192078,0.412009596824646,0.28968414664268494,9.3994140625,-8.23974609375,-77.57568359375
6.41794490814209,1582456619,0,-0.1874716877937317,0.26503700017929077,0.5301944017410278,-85.38818359375,-117.98095703125,-6.2255859375
6.417973041534424,1582456638,0,-0.2465537190437317,0.25893348455429077,0.5248233079910278,-117.98095703125,-57.92236328125,46.630859375
6.427130937576294,1582456640,1,-0.12488767504692078,0.484275221824646,0.29676422476768494,-11.77978515625,-7.99560546875,-88.0126953125
6.442137956619263,1582456657,0,-0.2189658284187317,0.28407996892929077,0.5072451829910278,-156.73828125,-6.103515625,97.47314453125
6.442198753356934,1582456676,0,-0.1330283284187317,0.34560340642929077,0.5240908861160278,-201.47705078125,34.60693359375,148.86474609375
6.465343952178955,1582456659,1,-0.13343259692192078,0.493552565574646,0.26209625601768494,-48.095703125,-1.89208984375,-93.994140625
6.465347766876221,1582456678,1,-0.14222165942192078,0.362937331199646,0.33704742789268494,-77.63671875,8.60595703125,-91.85791015625
6.485430002212524,1582456697,1,-0.16932126879692078,0.342673659324646,0.5194204449653625,-87.95166015625,27.03857421875,-72.021484375
6.48701286315918,1582456716,1,-0.10413572192192078,0.345847487449646,0.6002309918403625,-98.6328125,24.169921875,-59.6923828125
6.51102089881897,1582456712,0,0.1711708903312683,0.5096659064292908,0.7494326829910278,-165.22216796875,38.26904296875,159.24072265625
6.511025905609131,1582456731,0,0.2934853434562683,0.5155252814292908,0.7831240892410278,-123.9013671875,39.36767578125,143.85986328125
6.51743483543396,1582456735,1,-0.08265134692192078,0.440818190574646,0.6695669293403625,-115.966796875,15.31982421875,-61.70654296875
6.532260894775391,1582456750,0,0.3174111247062683,0.43715614080429077,0.6896182298660278,-117.98095703125,49.49951171875,159.36279296875
6.547311782836914,1582456754,1,-0.09314939379692078,0.510642409324646,0.7064321637153625,-153.4423828125,9.1552734375,-50.59814453125
6.547341823577881,1582456773,1,-0.052377909421920776,0.407126784324646,0.7767446637153625,-169.189453125,14.09912109375,-47.36328125
6.566941976547241,1582456769,0,0.2773720622062683,0.42153114080429077,0.6329776048660278,-129.2724609375,55.6640625,200.8056640625
6.566947937011719,1582456788,0,0.3945595622062683,0.5113748908042908,0.7728701829910278,-157.53173828125,78.7353515625,234.06982421875
6.577547788619995,1582456792,1,-0.0008642375469207764,0.393943190574646,0.9066274762153625,-165.34423828125,24.59716796875,-37.04833984375
6.5921618938446045,1582456807,0,0.6035439372062683,0.6637186408042908,0.8680850267410278,-186.5234375,119.384765625,224.54833984375
6.592229843139648,1582456826,0,0.6699501872062683,0.8360819220542908,0.9015322923660278,-198.1201171875,157.1044921875,186.03515625
6.61495304107666,1582456811,1,0.10826662182807922,0.345847487449646,1.0738638639450073,-153.50341796875,20.1416015625,-29.78515625
6.614958763122559,1582456830,1,0.24620607495307922,0.368552565574646,1.1903189420700073,-146.728515625,7.99560546875,-35.15625
6.621052026748657,1582456845,0,0.7568642497062683,0.5020975470542908,0.8382998704910278,-206.54296875,170.34912109375,167.96875
6.6371588706970215,1582456849,1,-0.00037595629692077637,0.808982253074646,1.4278677701950073,-167.29736328125,-28.86962890625,-18.4326171875
6.664296865463257,1582456864,0,0.6609169840812683,0.5873026251792908,0.5426455736160278,-220.39794921875,144.04296875,184.6923828125
6.664301872253418,1582456883,0,0.8288857340812683,0.46327918767929077,0.7333194017410278,-200.8056640625,135.986328125,231.87255859375
6.6690168380737305,1582456885,1,0.3389795124530792,0.517722487449646,1.1724966764450073,-163.14697265625,5.43212890625,23.92578125
6.681364059448242,1582456902,0,0.8396279215812683,0.42787879705429077,0.7806826829910278,-191.83349609375,136.962890625,249.81689453125
6.695405721664429,1582456904,1,0.4383447468280792,0.492087721824646,1.2647818326950073,-151.30615234375,13.3056640625,30.2734375
6.69548487663269,1582456923,1,0.4857080280780792,0.571677565574646,1.4349478483200073,-168.64013671875,-7.62939453125,45.34912109375
6.71929407119751,1582456921,0,1.084501028060913,0.49623817205429077,0.8578311204910278,-210.5712890625,162.78076171875,276.0009765625
6.719299793243408,1582456940,0,1.157254934310913,0.5055155158042908,0.9896670579910278,-235.41259765625,219.8486328125,262.87841796875
6.725736856460571,1582456942,1,0.5469872951507568,0.474265456199646,1.6510123014450073,-163.26904296875,-25.7568359375,86.181640625
6.74147891998291,1582456976,0,1.788846731185913,1.0165019035339355,1.1114932298660278,-177.67333984375,260.07080078125,234.130859375
6.766070127487183,1582456961,1,0.8663232326507568,0.331687331199646,1.7767447233200073,-113.34228515625,-5.37109375,143.1884765625
6.766074895858765,1582456980,1,1.2469384670257568,0.386863112449646,1.7738150358200073,-44.98291015625,30.33447265625,62.01171875
6.772351026535034,1582456995,0,1.561063528060913,0.5406717658042908,1.0375186204910278,-138.0615234375,156.06689453125,160.94970703125
6.787060022354126,1582456999,1,1.0823876857757568,0.272605299949646,1.5604361295700073,-4.33349609375,29.052734375,67.2607421875
6.8123390674591064,1582457014,0,1.679960012435913,0.5191873908042908,1.6290713548660278,-100.89111328125,92.95654296875,148.193359375
6.8123438358306885,1582457033,0,1.761991262435913,0.32216590642929077,0.9347354173660278,26.79443359375,113.09814453125,129.2724609375
6.819340705871582,1582457018,1,1.2134912014007568,0.335593581199646,1.1917837858200073,-41.19873046875,11.29150390625,91.24755859375
6.819345951080322,1582457037,1,0.5303857326507568,0.1559060961008072,1.3702505826950073,-155.76171875,-33.5693359375,125.244140625
6.830554962158203,1582457052,0,1.482450246810913,0.5121073126792908,1.2623721361160278,53.03955078125,64.39208984375,112.79296875
6.847648859024048,1582457056,1,1.0269677639007568,0.06728304922580719,1.7572134733200073,1.3427734375,-58.89892578125,124.08447265625
6.847653865814209,1582457075,1,0.7486474514007568,-0.2476583570241928,1.7965201139450073,142.27294921875,-12.87841796875,64.88037109375
6.869266033172607,1582457071,0,1.047391653060913,-0.04843955487012863,0.9730654954910278,94.23828125,19.1650390625,72.021484375
6.869271755218506,1582457090,0,1.337674856185913,0.27724403142929077,1.2223330736160278,117.49267578125,33.69140625,3.35693359375
6.877028942108154,1582457094,1,0.4813134968280792,0.263572096824646,1.1431998014450073,231.38427734375,-32.3486328125,39.00146484375
6.892408847808838,1582457109,0,1.020536184310913,0.04970497637987137,1.0863467454910278,135.80322265625,27.2216796875,-46.2646484375
6.915893077850342,1582457113,1,0.4786279499530792,0.11708773672580719,1.3519400358200073,156.79931640625,-65.5517578125,48.33984375
6.922195911407471,1582457128,0,1.068631887435913,0.26796668767929077,0.9977236986160278,145.01953125,32.5927734375,-79.1015625
6.9222400188446045,1582457147,0,0.9048134684562683,0.03285927325487137,0.9440127611160278,150.57373046875,4.39453125,-89.84375
6.9364917278289795,1582457149,1,0.3963525593280792,-0.01816616952419281,1.1258658170700073,168.9453125,-101.74560546875,33.38623046875
6.962386846542358,1582457166,0,1.013700246810913,0.17470496892929077,0.9418154954910278,150.20751953125,-34.1796875,-115.53955078125
6.9623918533325195,1582457185,0,0.5722939372062683,0.14394325017929077,0.8607608079910278,164.794921875,-102.1728515625,-140.869140625
6.968289852142334,1582457168,1,0.23814943432807922,0.11049593985080719,0.9539907574653625,250.42724609375,-136.5966796875,20.6298828125
6.968294858932495,1582457187,1,-0.13245603442192078,0.369529128074646,0.21253569424152374,210.3271484375,-109.92431640625,71.6552734375
6.981973886489868,1582457204,0,0.3647744059562683,0.12319130450487137,0.7250186204910278,200.927734375,-150.20751953125,-132.9345703125
6.996931791305542,1582457206,1,0.3113916218280792,0.00405062735080719,0.8094595074653625,192.56591796875,-95.3369140625,6.9580078125
6.9969868659973145,1582457225,1,0.17223146557807922,0.359031081199646,0.6348989605903625,193.84765625,-116.02783203125,5.18798828125
7.018488883972168,1582457240,0,0.2663857340812683,0.25991004705429077,0.34196197986602783,69.2138671875,-156.005859375,-92.1630859375
7.027200698852539,1582457244,1,0.22154787182807922,0.347800612449646,0.46937164664268494,171.69189453125,-111.4501953125,-0.48828125
7.041946887969971,1582457259,0,0.1775185465812683,0.08437294512987137,0.28287994861602783,-18.12744140625,-110.7177734375,-95.88623046875
7.066175937652588,1582457263,1,0.14244630932807922,0.351951003074646,0.34681305289268494,143.73779296875,-120.30029296875,-33.0810546875
7.066180944442749,1582457282,1,0.08629396557807922,0.449607253074646,0.16102202236652374,115.3564453125,-114.2578125,-61.03515625
7.0723206996917725,1582457278,0,-0.05197363346815109,-0.02085166424512863,0.19669829308986664,-55.7861328125,-89.599609375,-73.18115234375
7.072333812713623,1582457297,0,-0.11007910221815109,0.11928505450487137,0.31315338611602783,-76.904296875,-84.65576171875,-35.0341796875
7.087199926376343,1582457301,1,0.06822755932807922,0.406394362449646,0.06556303799152374,81.48193359375,-104.248046875,-78.4912109375
7.113225936889648,1582457316,0,-0.1437705159187317,0.18300575017929077,0.26408112049102783,-99.7314453125,-72.6318359375,-36.07177734375
7.11323094367981,1582457335,0,-0.1799033284187317,0.08315224200487137,0.24210844933986664,-134.3994140625,-74.52392578125,-23.193359375
7.119696855545044,1582457320,1,0.033803731203079224,0.378074049949646,0.04676421359181404,44.7998046875,-93.8720703125,-97.0458984375
7.119700908660889,1582457339,1,-0.027231425046920776,0.360740065574646,0.03968413546681404,20.3857421875,-87.646484375,-108.21533203125
7.1321470737457275,1582457354,0,-0.2321494221687317,0.06801552325487137,0.32902252674102783,-175.96435546875,-58.7158203125,22.76611328125
7.146956920623779,1582457358,1,-0.11927244067192078,0.393943190574646,0.05360015109181404,-4.82177734375,-70.9228515625,-121.337890625
7.146987676620483,1582457377,1,-0.18494626879692078,0.326072096824646,0.19080717861652374,-33.02001953125,-54.38232421875,-126.77001953125
7.168295860290527,1582457373,0,-0.2074912190437317,0.10756630450487137,0.44083893299102783,-203.67431640625,-18.9208984375,78.369140625
7.190238952636719,1582457392,0,-0.08957128971815109,0.18715614080429077,0.5775576829910278,-222.96142578125,22.15576171875,123.1689453125
7.1918628215789795,1582457411,0,-0.07174902409315109,0.31386512517929077,0.5719424486160278,-221.435546875,46.44775390625,142.2119140625
7.21291708946228,1582457413,1,-0.17200681567192078,0.450583815574646,0.23035795986652374,-83.8623046875,-39.97802734375,-112.6708984375
7.212924003601074,1582457432,1,-0.3097021281719208,0.457419753074646,0.30726227164268494,-116.27197265625,-23.681640625,-88.19580078125
7.222223997116089,1582457430,0,0.0022255852818489075,0.38149207830429077,0.6698428392410278,-192.2607421875,53.7109375,153.1982421875
7.222315788269043,1582457449,0,0.09011621028184891,0.35536903142929077,0.7267276048660278,-164.55078125,49.13330078125,163.14697265625
7.236393928527832,1582457451,1,-0.19202634692192078,0.527488112449646,0.42005524039268494,-140.93017578125,-21.05712890625,-71.35009765625
7.263981819152832,1582457468,0,0.1670204997062683,0.38539832830429077,0.6603213548660278,-172.36328125,50.47607421875,177.6123046875
7.269977807998657,1582457470,1,-0.19031736254692078,0.536277174949646,0.5606802105903625,-169.49462890625,-19.22607421875,-64.88037109375
7.2699830532073975,1582457489,1,-0.14930173754692078,0.496482253074646,0.6178091168403625,-185.48583984375,-2.86865234375,-52.55126953125
7.281280755996704,1582457504,0,0.3479287028312683,0.45839637517929077,0.7137881517410278,-218.1396484375,94.482421875,207.21435546875
7.297313690185547,1582457508,1,-0.12073728442192078,0.469870924949646,0.7430532574653625,-200.37841796875,2.3193359375,-43.02978515625
7.297343969345093,1582457527,1,-0.09827634692192078,0.453269362449646,0.8353384137153625,-212.21923828125,4.8828125,-25.20751953125
7.3194968700408936,1582457523,0,0.4619423747062683,0.49111121892929077,0.7560244798660278,-216.552734375,125.3662109375,212.46337890625
7.319501876831055,1582457542,0,0.6006142497062683,0.48940223455429077,0.8072940111160278,-195.1904296875,145.20263671875,200.927734375
7.327204942703247,1582457546,1,-0.041635721921920776,0.421286940574646,1.0086783170700073,-215.14892578125,0.67138671875,-7.75146484375
7.342496871948242,1582457561,0,0.7505165934562683,0.48403114080429077,0.8055850267410278,-180.908203125,142.27294921875,199.70703125
7.365646839141846,1582457565,1,0.044790059328079224,0.360007643699646,1.1080435514450073,-219.1162109375,8.36181640625,7.75146484375
7.365652084350586,1582457584,1,0.20885255932807922,0.422019362449646,1.2000845670700073,-225.341796875,8.1787109375,24.4140625
7.372023820877075,1582457580,0,0.7773720622062683,0.46694129705429077,0.8278018236160278,-179.443359375,144.04296875,208.80126953125
7.372100830078125,1582457599,0,0.8327919840812683,0.44887489080429077,0.8260928392410278,-186.58447265625,151.18408203125,237.548828125
7.38716983795166,1582457603,1,0.17271974682807922,0.398826003074646,1.2694205045700073,-223.32763671875,9.765625,31.982421875
7.41281795501709,1582457618,0,1.024442434310913,0.5514139533042908,0.8868838548660278,-178.3447265625,166.32080078125,248.046875
7.417878866195679,1582457622,1,0.2818506062030792,0.398337721824646,1.4139517545700073,-221.435546875,11.29150390625,42.54150390625
7.417882919311523,1582457641,1,0.4444482624530792,0.406150221824646,1.6143912076950073,-210.38818359375,-2.99072265625,62.255859375
7.432202100753784,1582457637,0,1.191678762435913,0.6642069220542908,0.9015322923660278,-151.7333984375,195.3125,215.14892578125
7.432268857955933,1582457656,0,1.301053762435913,0.5797342658042908,0.9391299486160278,-153.80859375,208.6181640625,166.32080078125
7.445443868637085,1582457677,1,0.5836083889007568,0.368064284324646,1.7970083951950073,-161.2548828125,8.4228515625,87.158203125
7.470150947570801,1582457675,0,1.452665090560913,0.5406717658042908,0.9589053392410278,-179.74853515625,190.7958984375,167.17529296875
7.470155715942383,1582457694,0,1.722684621810913,0.8114237189292908,1.2201358079910278,-118.59130859375,200.927734375,172.2412109375
7.477055072784424,1582457696,1,0.7774560451507568,0.467673659324646,1.7699087858200073,-139.2822265625,9.21630859375,91.12548828125
7.492352724075317,1582457713,0,1.604032278060913,0.9290995001792908,0.9557315111160278,-39.12353515625,164.61181640625,127.74658203125
7.5171568393707275,1582457715,1,0.9847314357757568,0.08461703360080719,1.7335318326950073,-122.25341796875,14.6484375,73.54736328125
7.517162084579468,1582457734,1,0.7711083889007568,0.02651156485080719,1.8643912076950073,-99.30419921875,-3.84521484375,93.68896484375
7.521808862686157,1582457732,0,1.506376028060913,0.7730936408042908,0.8321963548660278,-25.20751953125,127.3193359375,103.21044921875
7.537175893783569,1582457753,1,1.0291650295257568,-0.1365743726491928,1.7833365201950073,-26.611328125,-16.845703125,106.75048828125
7.564589738845825,1582457768,0,1.441678762435913,0.6278299689292908,0.8893252611160278,-24.84130859375,171.875,89.90478515625
7.5695319175720215,1582457772,1,0.9962060451507568,0.01943148672580719,1.4952505826950073,70.4345703125,-7.4462890625,79.65087890625
7.569535970687866,1582457791,1,0.8377587795257568,-0.08066616952419281,1.2962759733200073,72.6318359375,-19.95849609375,54.26025390625
7.582261085510254,1582457787,0,1.418729543685913,0.7452616095542908,0.9723330736160278,10.986328125,219.1162109375,24.4140625
7.582306861877441,1582457806,0,1.051542043685913,0.14150184392929077,0.7706729173660278,62.98828125,123.10791015625,18.24951171875
7.5971338748931885,1582457810,1,0.7852685451507568,-0.11533413827419281,1.1439322233200073,40.22216796875,-39.48974609375,41.32080078125
7.618395805358887,1582457825,0,0.9460732340812683,0.48403114080429077,1.0275088548660278,147.15576171875,35.400390625,18.06640625
7.6184000968933105,1582457844,0,0.9248329997062683,0.38027137517929077,0.7811709642410278,190.185546875,-17.02880859375,10.1318359375
7.627118825912476,1582457829,1,0.5836083889007568,-0.04868374764919281,1.1207388639450073,116.76025390625,-62.43896484375,6.53076171875
7.627184867858887,1582457848,1,0.4947412312030792,0.1932596117258072,1.0958365201950073,145.751953125,-60.546875,28.62548828125
7.641755819320679,1582457863,0,0.7707802653312683,0.36025184392929077,0.5841494798660278,162.2314453125,-52.978515625,-16.90673828125
7.664808034896851,1582457867,1,0.3223779499530792,-0.02744351327419281,0.9283559918403625,181.396484375,-63.1103515625,36.4990234375
7.664812803268433,1582457886,1,0.4158838093280792,-0.1463399976491928,1.4654654264450073,259.70458984375,-86.7919921875,11.474609375
7.672498941421509,1582457882,0,0.5620400309562683,0.22743934392929077,0.5736514329910278,102.783203125,-48.828125,-35.2783203125
7.672530889511108,1582457901,0,0.6931435465812683,0.5008768439292908,0.5397158861160278,43.0908203125,-34.72900390625,-72.021484375
7.685572862625122,1582457905,1,-0.21277830004692078,0.760642409324646,0.15833647549152374,229.67529296875,-67.87109375,107.97119140625
7.7121288776397705,1582457920,0,-0.019014649093151093,-0.15464073419570923,0.5680361986160278,70.6787109375,-76.0498046875,-40.58837890625
7.718822002410889,1582457941,1,0.3841455280780792,0.1844705492258072,0.8712270855903625,274.47509765625,-104.55322265625,54.99267578125
7.731934070587158,1582457939,0,0.8616005778312683,0.6183084845542908,0.33976471424102783,38.26904296875,-94.970703125,-93.994140625
7.731964826583862,1582457958,0,0.6465126872062683,0.48036903142929077,0.45573151111602783,11.71875,-61.5234375,-225.5859375
7.747150897979736,1582457960,1,0.5089013576507568,-0.06967984139919281,0.9686391949653625,173.76708984375,-142.02880859375,8.36181640625
7.769422769546509,1582457977,0,0.1452919840812683,-0.010353617370128632,0.32023346424102783,38.39111328125,-50.78125,-95.52001953125
7.769427061080933,1582457996,0,0.4822060465812683,0.36269325017929077,0.18229399621486664,-49.8046875,-76.904296875,-97.0458984375
7.779587745666504,1582457979,1,0.3607080280780792,0.317038893699646,0.5828970074653625,200.01220703125,-118.896484375,-22.216796875
7.7795939445495605,1582457998,1,0.2803857624530792,0.384177565574646,0.5084341168403625,172.54638671875,-125.06103515625,-20.20263671875
7.8152689933776855,1582458017,1,0.3958642780780792,0.1576150804758072,0.35218414664268494,107.72705078125,-148.01025390625,-59.2041015625
7.815274000167847,1582458036,1,0.19420412182807922,0.431052565574646,0.14197905361652374,95.03173828125,-117.85888671875,-90.27099609375
7.8221447467803955,1582458032,0,0.2361122965812683,0.32924598455429077,0.26286041736602783,-95.15380859375,-87.58544921875,-137.0849609375
7.822245836257935,1582458051,0,0.03713769465684891,0.26235145330429077,0.24552641808986664,-99.4873046875,-102.05078125,-112.48779296875
7.837240934371948,1582458055,1,0.21495607495307922,0.417624831199646,0.14124663174152374,85.693359375,-94.6044921875,-84.3505859375
7.863917827606201,1582458070,0,-0.09543066471815109,0.20131629705429077,0.32902252674102783,-116.63818359375,-110.16845703125,-74.0966796875
7.869996786117554,1582458074,1,0.15611818432807922,0.461081862449646,0.04090483859181404,84.04541015625,-81.48193359375,-114.19677734375
7.870002031326294,1582458093,1,0.09581544995307922,0.424704909324646,-0.09141938388347626,63.720703125,-73.79150390625,-133.36181640625
7.882519721984863,1582458089,0,-0.2060263752937317,0.21669715642929077,0.23185454308986664,-131.4697265625,-106.4453125,-30.6396484375
7.8825249671936035,1582458108,0,-0.3090537190437317,0.15712684392929077,0.30949127674102783,-169.189453125,-76.66015625,39.0625
7.897019863128662,1582458112,1,-0.0037939250469207764,0.411277174949646,-0.10899750888347626,30.517578125,-57.373046875,-144.53125
7.919920921325684,1582458127,0,-0.2568076252937317,0.23622840642929077,0.43766510486602783,-190.4296875,-41.1376953125,99.18212890625
7.919926881790161,1582458146,0,-0.2643759846687317,0.30312293767929077,0.46720612049102783,-183.28857421875,-20.20263671875,128.0517578125
7.927085876464844,1582458131,1,-0.18104001879692078,0.397117018699646,0.0018423385918140411,2.5634765625,-35.94970703125,-150.7568359375
7.927161931991577,1582458150,1,-0.22181150317192078,0.289451003074646,0.01868804171681404,-8.48388671875,-14.83154296875,-147.705078125
7.942482948303223,1582458165,0,-0.2555869221687317,0.26869910955429077,0.6173526048660278,-148.5595703125,-16.357421875,153.1982421875
7.964257717132568,1582458169,1,-0.3260595500469208,0.302390456199646,0.03577788546681404,2.86865234375,12.14599609375,-142.9443359375
7.971419811248779,1582458184,0,-0.2101767659187317,0.28847450017929077,0.5543643236160278,-122.55859375,-15.93017578125,177.1240234375
7.971438884735107,1582458203,0,-0.1689170002937317,0.24843543767929077,0.6066104173660278,-121.4599609375,-16.357421875,202.45361328125
7.987097978591919,1582458205,1,-0.2931005656719208,0.363669753074646,0.05408843234181404,10.7421875,38.4521484375,-153.50341796875
8.013739109039307,1582458222,0,-0.06418066471815109,0.25136512517929077,0.6979190111160278,-134.94873046875,-9.46044921875,236.26708984375
8.019307136535645,1582458224,1,-0.3158056437969208,0.2057107836008072,0.03284819796681404,3.173828125,51.57470703125,-177.06298828125
8.019311904907227,1582458243,1,-0.6939795017242432,0.617576003074646,0.10193999111652374,-29.11376953125,54.443359375,-177.8564453125
8.031902074813843,1582458241,0,0.021512694656848907,0.16371864080429077,0.6749697923660278,-159.24072265625,24.658203125,272.3388671875
8.031973838806152,1582458260,0,0.09499902278184891,0.15834754705429077,0.6400576829910278,-168.45703125,27.587890625,309.9365234375
8.048056840896606,1582458262,1,-0.5726416110992432,0.326072096824646,0.11780913174152374,-71.533203125,46.630859375,-158.8134765625
8.067215919494629,1582458296,0,0.3596474528312683,0.08754677325487137,0.6537295579910278,-145.44677734375,66.95556640625,320.86181640625
8.075543880462646,1582458281,1,-0.5990087985992432,0.297019362449646,0.23035795986652374,-59.75341796875,89.90478515625,-174.01123046875
8.075575828552246,1582458300,1,-0.5321142673492432,0.1256326586008072,0.34949859976768494,-18.12744140625,110.04638671875,-213.37890625
8.092309713363647,1582458315,0,0.6140419840812683,0.09828896075487137,0.6925479173660278,-153.13720703125,84.228515625,339.9658203125
8.115713834762573,1582458319,1,-0.5003759860992432,-0.2288595288991928,0.36561188101768494,9.521484375,113.1591796875,-284.36279296875
8.121964931488037,1582458334,0,0.9577919840812683,0.19203895330429077,0.9674502611160278,-187.80517578125,136.71875,357.11669921875
8.121994972229004,1582458353,0,0.9887978434562683,-0.010109476745128632,0.8968936204910278,-201.35498046875,204.52880859375,371.39892578125
8.137008905410767,1582458338,1,-0.6881201267242432,-0.2496114820241928,0.44691070914268494,13.916015625,114.501953125,-369.44580078125
8.1370849609375,1582458357,1,-0.8106787204742432,-0.427590012550354,0.5435903668403625,-18.1884765625,90.88134765625,-395.751953125
8.16281771659851,1582458372,0,1.216825246810913,0.012351460754871368,0.9017764329910278,-173.7060546875,191.0400390625,416.9921875
8.167578935623169,1582458376,1,-0.8438818454742432,-0.796730637550354,0.7169302105903625,-27.40478515625,96.0693359375,-430.11474609375
8.16758394241333,1582458395,1,-1.0018408298492432,-0.952004075050354,0.7547720074653625,24.658203125,150.0244140625,-468.26171875
8.182207107543945,1582458391,0,1.475858449935913,0.07216591387987137,0.9181338548660278,-75.5615234375,154.96826171875,474.365234375
8.1822350025177,1582458410,0,1.908231496810913,-0.07187705487012863,0.9408389329910278,-57.92236328125,107.177734375,436.82861328125
8.197150945663452,1582458414,1,-0.9022314548492432,-1.058937668800354,0.9349477887153625,64.27001953125,210.63232421875,-535.7666015625
8.218117952346802,1582458429,0,2.187772512435913,0.12050575762987137,1.0763369798660278,26.18408203125,114.56298828125,363.1591796875
8.227138757705688,1582458433,1,-0.9620459079742432,-1.438820481300354,1.1847037076950073,141.05224609375,283.50830078125,-597.65625
8.242071866989136,1582458448,0,2.245389699935913,-0.14463096857070923,0.8878604173660278,13.36669921875,147.0947265625,305.0537109375
8.24213981628418,1582458467,0,2.291532278060913,-0.15195518732070923,0.9464541673660278,-1.77001953125,161.2548828125,295.5322265625
8.26651382446289,1582458469,1,-1.6036474704742432,-1.729836106300354,1.4390982389450073,382.6904296875,371.7041015625,-802.18505859375
8.272119760513306,1582458486,0,2.515897512435913,0.11952919512987137,0.9354678392410278,47.7294921875,147.15576171875,253.84521484375
8.272154808044434,1582458505,0,2.574247121810913,-0.22837120294570923,1.0135928392410278,114.56298828125,83.984375,199.52392578125
8.28692889213562,1582458488,1,-2.073129892349243,-1.574074387550354,1.8585318326950073,421.08154296875,248.59619140625,-848.20556640625
8.286962032318115,1582458507,1,-2.814584970474243,-1.514748215675354,2.4786489009857178,462.09716796875,48.52294921875,-764.0380859375
8.312464952468872,1582458524,0,2.542752981185913,-0.47446495294570923,1.4142276048660278,197.93701171875,99.06005859375,158.99658203125
8.31875491142273,1582458526,1,-3.196176767349243,-3.0372090339660645,2.6161000728607178,567.0166015625,-117.1875,-590.8203125
8.332156896591187,1582458560,0,2.854520559310913,-0.5657735466957092,1.3478213548660278,295.8984375,205.078125,43.02978515625
8.346918821334839,1582458545,1,-3.298715829849243,-3.0206074714660645,1.7357290983200073,633.544921875,-106.4453125,-503.5400390625
8.346946716308594,1582458564,1,-3.081918954849243,-3.5823750495910645,1.4884146451950073,769.59228515625,-23.3154296875,-429.5654296875
8.367755889892578,1582458579,0,2.267606496810913,-0.30918174982070923,0.8693057298660278,251.15966796875,148.13232421875,-67.626953125
8.376141786575317,1582458583,1,-2.923715829849243,-3.4004902839660645,1.9002798795700073,746.09375,-90.8203125,-324.64599609375
8.376171112060547,1582458602,1,-2.464487314224243,-2.9983906745910645,1.6837271451950073,641.41845703125,-203.857421875,-214.9658203125
8.392231941223145,1582458598,0,2.180448293685913,-0.27622276544570923,0.9125186204910278,258.544921875,-30.1513671875,-16.7236328125
8.392279863357544,1582458617,0,1.617460012435913,-0.6827169060707092,1.2513858079910278,255.37109375,-18.73779296875,-93.93310546875
8.415008068084717,1582458621,1,-2.175424814224243,-3.0386738777160645,1.5445669889450073,560.11962890625,-240.90576171875,-116.943359375
8.42210578918457,1582458636,0,0.9861122965812683,-0.7269063591957092,1.1232119798660278,300.96435546875,15.68603515625,-67.9931640625
8.422138929367065,1582458655,0,0.7886025309562683,-0.6375508904457092,0.32560455799102783,264.5263671875,-56.2744140625,-65.5517578125
8.436885833740234,1582458640,1,-1.7420752048492432,-2.8729023933410645,1.2569693326950073,525.32958984375,-253.0517578125,-11.474609375
8.436911821365356,1582458659,1,-1.3660986423492432,-3.1377949714660645,1.0626333951950073,444.27490234375,-260.55908203125,41.9921875
8.464826822280884,1582458674,0,1.573758840560913,-0.32529503107070923,0.43522369861602783,128.47900390625,-93.20068359375,-195.98388671875
8.469369888305664,1582458678,1,-0.4110204875469208,-2.7459492683410645,0.40833649039268494,353.94287109375,-209.8388671875,13.00048828125
8.469372987747192,1582458697,1,0.17101076245307922,-3.0369648933410645,-0.10191743075847626,237.24365234375,-105.40771484375,-116.69921875
8.482178926467896,1582458693,0,0.3938271403312683,-1.1419453620910645,0.7794619798660278,101.74560546875,-80.50537109375,-154.47998046875
8.482244968414307,1582458712,0,0.6819130778312683,-0.5245137810707092,0.5389834642410278,79.833984375,-63.5986328125,-127.99072265625
8.517542839050293,1582458731,0,0.7458779215812683,-0.45615440607070923,0.41984283924102783,72.3876953125,-87.21923828125,-141.9677734375
8.52707576751709,1582458733,1,-0.23060056567192078,-1.027687668800354,1.1934927701950073,215.51513671875,-51.69677734375,279.9072265625
8.527102947235107,1582458752,1,0.4876611530780792,-0.993263840675354,1.3011587858200073,364.74609375,-168.27392578125,335.26611328125
8.543869018554688,1582458750,0,0.8581826090812683,-0.37387901544570923,0.25333893299102783,19.6533203125,-116.5771484375,-205.810546875
8.54387378692627,1582458769,0,0.8669716715812683,-0.26572471857070923,0.44572174549102783,30.029296875,-162.353515625,-240.1123046875
8.565892934799194,1582458771,1,0.3983056843280792,-0.400490403175354,0.5365102887153625,411.865234375,-253.60107421875,338.68408203125
8.570475101470947,1582458788,0,0.7973915934562683,-0.6639180779457092,0.7819033861160278,49.98779296875,-160.15625,-287.90283203125
8.586177825927734,1582458790,1,-0.11585447192192078,-0.1683126538991928,-0.28892913460731506,415.83251953125,-188.53759765625,319.4580078125
8.586266994476318,1582458809,1,-0.3414404094219208,-0.2095724195241928,-0.8282358050346375,299.13330078125,-75.86669921875,333.31298828125
8.612853050231934,1582458824,0,0.3218056559562683,-0.7405782341957092,0.5609561204910278,-70.1904296875,-66.10107421875,-267.822265625
8.618842840194702,1582458828,1,-0.2606298625469208,-0.436867356300354,-0.6739389300346375,211.12060546875,29.11376953125,291.8701171875
8.619098901748657,1582458847,1,-0.08997556567192078,-0.399269700050354,-0.38341155648231506,129.5166015625,97.47314453125,194.51904296875
8.632107019424438,1582458843,0,0.4541298747062683,-0.6927266716957092,0.24381743371486664,-64.208984375,-116.51611328125,-272.52197265625
8.632118701934814,1582458862,0,0.6987587809562683,-0.8245626091957092,0.08414946496486664,-108.09326171875,-184.5703125,-329.65087890625
8.647008895874023,1582458866,1,-0.060678690671920776,-0.02231656014919281,-0.37120452523231506,83.3740234375,92.529296875,142.822265625
8.66996693611145,1582458881,0,0.6277138590812683,-1.1805195808410645,0.32243072986602783,-145.99609375,-188.5986328125,-351.25732421875
8.675541877746582,1582458885,1,0.13951662182807922,0.533347487449646,-0.48643890023231506,97.96142578125,72.57080078125,157.5927734375
8.675573110580444,1582458904,1,0.23009279370307922,0.682029128074646,-0.8389779925346375,100.4638671875,83.80126953125,213.9892578125
8.692065715789795,1582458900,0,0.4507119059562683,-1.2002949714660645,0.28385651111602783,-181.33544921875,-182.861328125,-293.02978515625
8.692126035690308,1582458919,0,0.4922158122062683,-1.0750508308410645,0.24332915246486664,-211.97509765625,-218.07861328125,-230.04150390625
8.716906070709229,1582458923,1,0.6102197170257568,0.470359206199646,-0.6265756487846375,50.6591796875,108.21533203125,263.0615234375
8.721842050552368,1582458938,0,0.6382119059562683,-1.0980000495910645,0.36808502674102783,-218.1396484375,-297.54638671875,-230.3466796875
8.736929893493652,1582458942,1,0.9068505764007568,-0.11191616952419281,-0.12120454013347626,47.8515625,141.4794921875,248.1689453125
8.736981868743896,1582458961,1,0.9727685451507568,-0.03574429452419281,0.10462553799152374,44.25048828125,140.13671875,183.41064453125
8.764847993850708,1582458957,0,0.6050087809562683,-1.3899922370910645,0.5026065111160278,-234.55810546875,-368.22509765625,-223.876953125
8.76485300064087,1582458976,0,0.6645790934562683,-1.5755391120910645,0.7430850267410278,-262.14599609375,-411.2548828125,-203.55224609375
8.769493818283081,1582458997,1,0.7103173732757568,-0.06040249764919281,-0.04161469265818596,-72.32666015625,113.4033203125,221.0693359375
8.780505895614624,1582458995,0,0.8381630778312683,-1.6683125495910645,1.2662783861160278,-309.75341796875,-420.7763671875,-174.25537109375
8.780537843704224,1582459014,0,0.9612099528312683,-1.8062520027160645,1.7403994798660278,-365.41748046875,-391.845703125,-171.69189453125
8.79559874534607,1582459016,1,0.5247704982757568,-0.2308126538991928,0.04114897921681404,-70.37353515625,153.99169921875,261.8408203125
8.818036079406738,1582459033,0,1.006131887435913,-1.9659199714660645,2.1141786575317383,-392.51708984375,-381.7138671875,-145.81298828125
8.826941967010498,1582459035,1,0.6605126857757568,-1.130715012550354,0.5963247418403625,-112.9150390625,186.279296875,287.353515625
8.866015911102295,1582459054,1,0.8018701076507568,-1.349465012550354,0.7579458355903625,-135.986328125,164.97802734375,208.6181640625
8.86601996421814,1582459073,1,0.20104005932807922,-1.021095871925354,0.42518219351768494,-192.2607421875,106.62841796875,192.2607421875
8.871255874633789,1582459052,0,1.078153371810913,-1.8995137214660645,2.2482118606567383,-366.943359375,-360.7177734375,-100.64697265625
8.871381044387817,1582459088,0,1.656766653060913,-1.3768086433410645,2.3922548294067383,-353.57666015625,-305.17578125,-88.0126953125
8.871392011642456,1582459107,0,1.427274465560913,-1.7142109870910645,2.5131044387817383,-433.65478515625,-264.70947265625,-151.3671875
8.899658918380737,1582459126,0,0.9709755778312683,-1.9021992683410645,2.6676454544067383,-475.7080078125,-224.2431640625,-148.681640625
8.919316053390503,1582459092,1,-0.23816892504692078,-1.018898606300354,0.05457671359181404,-260.80322265625,88.07373046875,261.962890625
8.91932487487793,1582459111,1,-0.5138037204742432,-1.767189621925354,-0.09972016513347626,-296.81396484375,158.26416015625,351.6845703125
8.919330835342407,1582459130,1,-0.6405127048492432,-2.6250996589660645,0.5518911480903625,-214.41650390625,362.97607421875,284.3017578125
8.91961669921875,1582459149,1,-1.5411474704742432,-1.845314621925354,0.9603384137153625,-127.3193359375,495.17822265625,100.09765625
8.947220087051392,1582459168,1,-2.378793954849243,-1.357765793800354,1.4962271451950073,-330.87158203125,359.19189453125,88.0126953125
8.965021848678589,1582459145,0,0.9018837809562683,-1.5328145027160645,2.8705263137817383,-463.8671875,-184.26513671875,-146.484375
8.965027809143066,1582459164,0,0.8530556559562683,-1.2029805183410645,3.1085634231567383,-404.4189453125,-187.31689453125,-201.59912109375
8.965031862258911,1582459183,0,0.7727333903312683,-1.0442891120910645,3.6847352981567383,-368.22509765625,-198.42529296875,-231.01806640625
8.97652292251587,1582459187,1,-2.907602548599243,-0.954689621925354,1.5887564420700073,-518.37158203125,145.263671875,179.8095703125
8.976595878601074,1582459206,1,-3.593637704849243,-0.491310715675354,1.0621451139450073,-580.4443359375,84.41162109375,418.212890625
8.992075681686401,1582459202,0,0.4394814372062683,-1.1080098152160645,4.200848579406738,-391.66259765625,-107.7880859375,-291.015625
8.992094039916992,1582459221,0,0.06765527278184891,-1.4212422370910645,4.463055610656738,-386.53564453125,-39.61181640625,-351.5625
9.015630960464478,1582459225,1,-3.839243173599243,-1.380715012550354,1.6192740201950073,-691.650390625,50.72021484375,717.28515625
9.021898031234741,1582459240,0,-0.2150595784187317,-1.6226582527160645,4.782391548156738,-284.48486328125,62.31689453125,-425.1708984375
9.03711485862732,1582459261,1,-3.013559579849243,-2.0865254402160645,2.5623891353607178,-611.63330078125,-258.1787109375,812.19482421875
9.062299013137817,1582459259,0,-0.5268271565437317,-1.9188008308410645,4.655194282531738,-100.341796875,102.96630859375,-375.8544921875
9.062303066253662,1582459278,0,-0.04660253971815109,-1.6246113777160645,3.6581239700317383,-2.38037109375,186.1572265625,-314.27001953125
