sync_time,timestamp_ms,device_id,ax,ay,az,gx,gy,gz
0.007427215576171875,-148161559,0,0.07722367346286774,0.2675299346446991,-0.34560173749923706,-1.64794921875,37.65869140625,-82.58056640625
0.011038064956665039,-148161540,0,0.02717484161257744,0.2934088408946991,-0.38515251874923706,14.95361328125,24.10888671875,-86.36474609375
0.022051095962524414,-148161545,1,-0.7836598753929138,0.6018539667129517,0.31534069776535034,23.681640625,-13.85498046875,-23.62060546875
0.022190093994140625,-148161526,1,-0.8674001097679138,0.6418930292129517,0.19644421339035034,46.93603515625,-15.07568359375,-17.578125
0.042983055114746094,-148161521,0,0.01911820098757744,0.3932623565196991,-0.45473259687423706,33.02001953125,14.2822265625,-80.56640625
0.042994022369384766,-148161502,0,0.04279984161257744,0.4555182158946991,-0.5558068156242371,55.11474609375,9.70458984375,-63.4765625
0.05271196365356445,-148161507,1,-0.9203786253929138,0.7388168573379517,0.05996960401535034,60.6689453125,-20.69091796875,-9.8876953125
0.06695294380187988,-148161483,0,0.10603226721286774,0.5492682456970215,-0.6429650187492371,68.78662109375,9.765625,-37.7197265625
0.09216117858886719,-148161488,1,-0.9142751097679138,0.8042465448379517,-0.05526477098464966,60.302734375,-24.23095703125,-5.2490234375
0.09216809272766113,-148161469,1,-0.8688649535179138,0.7944809198379517,-0.11459094285964966,52.8564453125,-22.52197265625,-3.60107421875
0.09944701194763184,-148161464,0,0.14851273596286774,0.5675787925720215,-0.7035118937492371,76.59912109375,14.6484375,-11.77978515625
0.09945511817932129,-148161445,0,0.15046586096286774,0.5319342613220215,-0.7425743937492371,78.55224609375,16.4794921875,-0.732421875
0.11142516136169434,-148161450,1,-0.8051442503929138,0.7485824823379517,-0.11605578660964966,40.83251953125,-18.4326171875,-4.7607421875
0.1115121841430664,-148161431,1,-0.7716969847679138,0.6858383417129517,-0.12020617723464966,26.9775390625,-16.6015625,-3.5400390625
0.1270458698272705,-148161426,0,0.18879593908786774,0.5233893394470215,-0.8377892374992371,80.99365234375,13.5498046875,3.173828125
0.14790987968444824,-148161412,1,-0.7111501097679138,0.7166000604629517,-0.08016711473464966,27.587890625,-7.75146484375,12.87841796875
0.1570451259613037,-148161407,0,0.22126664221286774,0.5536627769470215,-0.8548790812492371,75.68359375,16.78466796875,5.126953125
0.15712213516235352,-148161388,0,0.23786820471286774,0.5229010581970215,-0.9098107218742371,77.2705078125,15.80810546875,2.01416015625
0.17184901237487793,-148161393,1,-0.7299489378929138,0.6543442010879517,-0.11459094285964966,34.48486328125,7.87353515625,24.4140625
0.19778990745544434,-148161369,0,0.23176468908786774,0.5165534019470215,-0.8985802531242371,75.3173828125,15.869140625,-5.79833984375
0.2020120620727539,-148161357,1,-0.5778493285179138,0.6235824823379517,-0.16805773973464966,44.12841796875,20.8740234375,3.72314453125
0.21581387519836426,-148161333,0,0.17048539221286774,0.4918951690196991,-0.9984337687492371,63.8427734375,13.48876953125,-17.76123046875
0.24179506301879883,-148161338,1,-0.5380544066429138,0.6455551385879517,-0.17709094285964966,32.3486328125,38.87939453125,-12.0849609375
0.24180316925048828,-148161319,1,-0.5639333128929138,0.6882797479629517,-0.17879992723464966,17.9443359375,54.443359375,-22.15576171875
0.24718117713928223,-148161314,0,0.12580765783786774,0.4687018096446991,-1.1114709377288818,52.001953125,4.82177734375,-23.49853515625
0.24726200103759766,-148161295,0,0.04695023223757744,0.4672369658946991,-1.1327111721038818,38.330078125,1.64794921875,-32.53173828125
0.2621901035308838,-148161300,1,-0.6174001097679138,0.6995102167129517,-0.12020617723464966,-10.3759765625,67.19970703125,-36.62109375
0.26229095458984375,-148161281,1,-0.6689137816429138,0.6804672479629517,-0.010098755359649658,-33.38623046875,71.71630859375,-54.443359375
0.2770700454711914,-148161276,0,-0.05949508026242256,0.4728522002696991,-1.1227014064788818,23.13232421875,-5.615234375,-33.38623046875
0.2965519428253174,-148161262,1,-0.7060231566429138,0.6492172479629517,0.08218640089035034,-48.2177734375,67.2607421875,-67.3828125
0.30716705322265625,-148161257,0,-0.19352827966213226,0.3798346221446991,-1.1666467189788818,5.9814453125,-10.80322265625,-31.06689453125
0.30726003646850586,-148161238,0,-0.40129196643829346,0.3891119658946991,-1.1607873439788818,-7.75146484375,-12.8173828125,-41.8701171875
0.3206629753112793,-148161243,1,-0.6989430785179138,0.6079574823379517,0.14126843214035034,-57.6171875,57.67822265625,-74.76806640625
0.3207590579986572,-148161224,1,-0.6786794066429138,0.5896469354629517,0.18130749464035034,-67.3828125,44.86083984375,-83.251953125
0.34803104400634766,-148161219,0,-0.5016337633132935,0.3495611846446991,-0.9493615031242371,-19.95849609375,-18.06640625,-41.9921875
0.3655869960784912,-148161200,0,-0.5458232164382935,0.3444342315196991,-0.7889611124992371,-29.296875,-30.76171875,-36.92626953125
0.3667740821838379,-148161181,0,-0.8055888414382935,0.2980475127696991,-0.7435509562492371,-28.9306640625,-60.85205078125,-17.2119140625
0.3936769962310791,-148161205,1,-0.6547536253929138,0.5649887323379517,0.22696179151535034,-73.66943359375,30.33447265625,-95.88623046875
0.39368510246276855,-148161186,1,-0.6105641722679138,0.5454574823379517,0.30459851026535034,-80.26123046875,6.04248046875,-105.3466796875
0.394848108291626,-148161167,1,-0.5146169066429138,0.5723129510879517,0.41519421339035034,-86.24267578125,-21.484375,-104.6142578125
0.39782094955444336,-148161162,0,-0.7172099351882935,0.2953619658946991,-0.6124474406242371,-16.41845703125,-89.53857421875,23.8037109375
0.3978300094604492,-148161143,0,-0.6237040758132935,0.1322760432958603,-0.6126915812492371,6.77490234375,-91.796875,69.76318359375
0.41217899322509766,-148161148,1,-0.39547625184059143,0.4111801087856293,0.5277430415153503,-99.12109375,-49.49951171875,-108.7646484375
0.4264562129974365,-148161124,0,-0.5614482164382935,0.04047916457056999,-0.6288048624992371,39.36767578125,-76.5380859375,90.88134765625
0.4483530521392822,-148161129,1,-0.37643328309059143,0.2869125306606293,0.47354382276535034,-80.9326171875,-85.14404296875,-110.77880859375
0.45732617378234863,-148161105,0,-0.49699509143829346,-0.015429038554430008,-0.5870568156242371,78.125,-59.26513671875,118.83544921875
0.4721100330352783,-148161093,1,-0.31368914246559143,0.4885726869106293,0.5087000727653503,-70.00732421875,-52.79541015625,-155.57861328125
0.47221994400024414,-148161074,1,-0.6366872191429138,0.6362777948379517,0.45645397901535034,-34.11865234375,-16.54052734375,-164.6728515625
0.4964420795440674,-148161069,0,-0.46623337268829346,-0.2275872379541397,-0.48647087812423706,98.44970703125,-70.86181640625,121.826171875
0.5018529891967773,-148161055,1,-0.8341969847679138,0.5984359979629517,0.42788952589035034,-11.1083984375,-12.5732421875,-137.02392578125
0.5170700550079346,-148161050,0,-0.5443583726882935,-0.3044915497303009,-0.40150994062423706,103.94287109375,-117.919921875,108.642578125
0.5171751976013184,-148161031,0,-0.6219950914382935,-0.4705071747303009,-0.41664665937423706,99.79248046875,-176.69677734375,86.36474609375
0.5590670108795166,-148161012,0,-0.6705790758132935,-0.4724602997303009,-0.5174767374992371,95.03173828125,-206.0546875,62.43896484375
0.5592219829559326,-148161036,1,-0.8771657347679138,0.5146957635879517,0.5240809321403503,0.06103515625,-25.390625,-118.22509765625
0.5592820644378662,-148161017,1,-0.9137868285179138,0.5078598260879517,0.5604578852653503,16.357421875,-14.09912109375,-96.86279296875
0.5593459606170654,-148160993,0,-0.8478251695632935,-0.5613274574279785,-0.5504357218742371,105.1025390625,-218.93310546875,53.22265625
0.5610120296478271,-148160998,1,-0.9989919066429138,0.6523910760879517,0.5846278071403503,29.72412109375,-1.77001953125,-66.40625
0.5762171745300293,-148160974,0,-0.9281474351882935,-0.5605950355529785,-0.7403771281242371,134.33837890625,-231.01806640625,68.66455078125
0.596001148223877,-148160979,1,-0.9919118285179138,0.5867172479629517,0.6339442133903503,26.3671875,-4.82177734375,-42.29736328125
0.5972118377685547,-148160960,1,-0.9985036253929138,0.4436508119106293,0.6725184321403503,15.93017578125,-18.37158203125,-21.1181640625
0.6062860488891602,-148160955,0,-1.0150614976882935,-0.5139641761779785,-0.9417931437492371,164.48974609375,-213.92822265625,85.99853515625
0.6063780784606934,-148160936,0,-1.0624247789382935,-0.3516106903553009,-1.1251428127288818,196.71630859375,-184.99755859375,93.017578125
0.6212310791015625,-148160941,1,-1.048552393913269,0.3782211244106293,0.7096278071403503,14.83154296875,-47.9736328125,-17.88330078125
0.6212959289550781,-148160922,1,-1.078093409538269,0.3987289369106293,0.6849696040153503,2.38037109375,-92.041015625,-32.470703125
0.6421709060668945,-148160917,0,-1.0797587633132935,-0.2200188785791397,-1.2831017971038818,214.05029296875,-149.4140625,107.36083984375
0.6508350372314453,-148160903,1,-0.9482106566429138,0.3708969056606293,0.6651942133903503,-10.43701171875,-114.1357421875,-36.4990234375
0.6667358875274658,-148160898,0,-0.9686747789382935,-0.1536126285791397,-1.5211389064788818,229.98046875,-114.8681640625,119.20166015625
0.6671500205993652,-148160879,0,-0.8827372789382935,-0.05522396042943001,-1.5775353908538818,233.154296875,-81.60400390625,130.615234375
0.6917991638183594,-148160884,1,-0.9689626097679138,0.3247543275356293,0.6634852290153503,0.9765625,-103.6376953125,-30.94482421875
0.6918060779571533,-148160865,1,-0.9540700316429138,0.24931487441062927,0.6346766352653503,30.3955078125,-83.1298828125,-45.59326171875
0.697155237197876,-148160860,0,-0.9137431383132935,0.021436195820569992,-1.5728967189788818,200.98876953125,-59.87548828125,157.958984375
0.697329044342041,-148160841,0,-0.7770243883132935,0.005322914570569992,-1.3797814846038818,154.4189453125,-80.078125,173.40087890625
0.7465860843658447,-148160829,1,-1.023894190788269,0.3040023744106293,0.5135828852653503,91.30859375,-42.05322265625,-35.400390625
0.746596097946167,-148160810,1,-1.073943018913269,0.3955551087856293,0.47256726026535034,103.57666015625,-23.49853515625,-22.88818359375
0.7572040557861328,-148160805,0,-0.6161357164382935,-0.09184505045413971,-1.1478478908538818,70.80078125,-119.62890625,138.85498046875
0.7572832107543945,-148160786,0,-0.5470439195632935,-0.1262688785791397,-0.9735314249992371,42.96875,-128.5400390625,128.96728515625
0.7720599174499512,-148160791,1,-1.106169581413269,0.4573226869106293,0.37002819776535034,88.134765625,-35.33935546875,-14.2822265625
0.7721610069274902,-148160772,1,-1.070525050163269,0.4368148744106293,0.34170788526535034,61.34033203125,-52.55126953125,-20.93505859375
0.7954461574554443,-148160767,0,-0.48722946643829346,-0.1653313785791397,-0.9732872843742371,37.353515625,-138.18359375,127.5634765625
0.8021881580352783,-148160753,1,-0.9604176878929138,0.3640609681606293,0.32046765089035034,31.3720703125,-77.45361328125,-28.50341796875
0.8172328472137451,-148160748,0,-0.29753220081329346,-0.2183098942041397,-1.0294396877288818,46.7529296875,-121.337890625,125.0
0.8172969818115234,-148160729,0,-0.13810835778713226,-0.2429680973291397,-1.0367639064788818,60.302734375,-93.505859375,112.6708984375
0.8444008827209473,-148160734,1,-0.8598317503929138,0.2581039369106293,0.30484265089035034,7.9345703125,-77.0263671875,-33.447265625
0.8444092273712158,-148160715,1,-0.7831715941429138,0.21660003066062927,0.29214733839035034,-8.97216796875,-70.37353515625,-35.5224609375
0.8501989841461182,-148160710,0,0.012282263487577438,-0.2131829410791397,-0.9967247843742371,64.453125,-66.22314453125,92.10205078125
0.8502058982849121,-148160691,0,0.05525101348757744,-0.2095208317041397,-0.9542443156242371,55.17578125,-51.45263671875,73.66943359375
0.8623061180114746,-148160696,1,-0.7565602660179138,0.18168792128562927,0.28775280714035034,-25.0244140625,-61.34033203125,-35.0341796875
0.878309965133667,-148160672,0,0.10407914221286774,-0.2187981754541397,-0.8856407999992371,31.3720703125,-43.212890625,38.75732421875
0.8987350463867188,-148160677,1,-0.7528981566429138,0.13310393691062927,0.28775280714035034,-43.27392578125,-47.4853515625,-31.8603515625
0.8987431526184082,-148160658,1,-0.8175954222679138,0.14311370253562927,0.32095593214035034,-67.138671875,-35.64453125,-24.4140625
0.9073870182037354,-148160653,0,0.17439164221286774,-0.2656731903553009,-0.8414513468742371,13.24462890625,-44.25048828125,-9.46044921875
0.9074850082397461,-148160634,0,0.22224320471286774,-0.2859368622303009,-0.8463341593742371,13.671875,-42.54150390625,-55.2978515625
0.9223251342773438,-148160639,1,-0.8339528441429138,0.19072112441062927,0.31241101026535034,-104.55322265625,-29.1748046875,-23.98681640625
0.9224388599395752,-148160620,1,-0.8483571410179138,0.16337737441062927,0.29019421339035034,-151.42822265625,-26.42822265625,-31.6162109375
0.9453508853912354,-148160615,0,0.23786820471286774,-0.2583489716053009,-0.8485314249992371,15.2587890625,-35.64453125,-113.46435546875
0.9522459506988525,-148160601,1,-0.9413747191429138,0.14799651503562927,0.25723522901535034,-193.2373046875,-17.39501953125,-31.494140625
0.9671950340270996,-148160596,0,0.17365922033786774,-0.2075677067041397,-0.8985802531242371,25.390625,-23.86474609375,-145.5078125
0.967303991317749,-148160577,0,0.12434281408786774,-0.1506829410791397,-0.9505822062492371,28.01513671875,-5.92041015625,-162.65869140625
0.9969360828399658,-148160565,1,-1.140349268913269,0.15312346816062927,0.17105358839035034,-225.9521484375,8.7890625,4.94384765625
1.0013320446014404,-148160541,0,0.014723669737577438,-0.05766536667943001,-1.1280725002288818,8.7890625,28.6865234375,-148.01025390625
1.0124750137329102,-148160546,1,-1.265837550163269,0.2876449525356293,-0.002530395984649658,-236.328125,49.37744140625,45.0439453125
1.0269372463226318,-148160522,0,-0.01847945526242256,-0.09599544107913971,-1.2308557033538818,-7.38525390625,64.63623046875,-130.126953125
1.046708106994629,-148160527,1,-1.259001612663269,0.4050765931606293,-0.12923938035964966,-244.81201171875,107.2998046875,101.86767578125
1.0467150211334229,-148160508,1,-1.440886378288269,0.4578109681606293,-0.16122180223464966,-250.0,176.1474609375,141.29638671875
1.0570602416992188,-148160503,0,0.03913773223757744,-0.1738763004541397,-1.3072717189788818,-18.37158203125,108.3984375,-127.685546875
1.057192087173462,-148160484,0,-0.06974898278713226,-0.2854485809803009,-1.3441369533538818,-31.25,136.04736328125,-156.8603515625
1.0722172260284424,-148160489,1,-1.837614893913269,0.5498520135879517,-0.22079211473464966,-260.68115234375,213.7451171875,167.236328125
1.0723259449005127,-148160470,1,-1.965056300163269,0.4846664369106293,-0.19051867723464966,-302.1240234375,195.6787109375,168.39599609375
1.093583106994629,-148160465,0,-0.28532516956329346,-0.3777337372303009,-1.4456994533538818,-36.62109375,135.3759765625,-199.89013671875
1.1022729873657227,-148160451,1,-1.932585597038269,0.3550277650356293,-0.04598742723464966,-357.11669921875,167.1142578125,157.8369140625
1.1170461177825928,-148160446,0,-0.38713181018829346,-0.4097161591053009,-1.6490685939788818,-35.7666015625,136.474609375,-229.248046875
1.117150068283081,-148160427,0,-0.7313700914382935,-0.3120599091053009,-2.068258047103882,-27.099609375,180.23681640625,-227.4169921875
1.1429781913757324,-148160432,1,-1.793425440788269,0.2537094056606293,0.14493054151535034,-393.06640625,138.5498046875,127.5634765625
1.1429860591888428,-148160413,1,-1.612761378288269,0.2744613587856293,0.46109265089035034,-409.48486328125,135.986328125,84.1064453125
1.1487600803375244,-148160408,0,-1.1979228258132935,-0.2285638004541397,-2.477681875228882,-12.20703125,248.96240234375,-150.93994140625
1.1621761322021484,-148160394,1,-1.768034815788269,0.09843597561120987,0.8116785883903503,-372.55859375,178.03955078125,44.7998046875
1.1801159381866455,-148160389,0,-1.2211161851882935,-0.3838372528553009,-2.628072500228882,-14.95361328125,293.8232421875,-45.7763671875
1.1801259517669678,-148160370,0,-1.1737529039382935,-0.6526360511779785,-2.675924062728882,-67.44384765625,287.17041015625,-5.18798828125
1.1981849670410156,-148160375,1,-2.1750173568725586,-0.05146636813879013,1.3087489604949951,-276.9775390625,226.01318359375,43.3349609375
1.1981918811798096,-148160356,1,-2.5995779037475586,-0.14716950058937073,1.7381923198699951,-195.73974609375,210.5712890625,76.59912109375
1.207124948501587,-148160351,0,-1.1139384508132935,-1.1218743324279785,-2.843160390853882,-166.9921875,271.240234375,-3.47900390625
1.2072100639343262,-148160332,0,-1.2914286851882935,-1.4636712074279785,-2.744527578353882,-218.994140625,267.39501953125,-68.84765625
1.2226309776306152,-148160337,1,-2.8263845443725586,-0.24848785996437073,2.070467710494995,-115.8447265625,90.9423828125,140.80810546875
1.2442290782928467,-148160313,0,-1.5973368883132935,-1.4829583168029785,-2.462545156478882,-245.17822265625,245.9716796875,-132.8125
1.2522549629211426,-148160301,1,-2.7470388412475586,-0.9723647832870483,1.7521083354949951,-52.734375,-112.3046875,187.31689453125
1.2668869495391846,-148160277,0,-1.9437724351882935,-1.2732415199279785,-2.063131093978882,-373.779296875,109.19189453125,-205.2001953125
1.2924211025238037,-148160282,1,-2.5700368881225586,-0.8217300176620483,1.6305263042449951,20.8740234375,-151.7333984375,289.24560546875
1.2924280166625977,-148160263,1,-2.4049978256225586,-0.8722671270370483,1.4332606792449951,93.75,-137.51220703125,334.53369140625
1.2971820831298828,-148160258,0,-2.150315284729004,-1.4272942543029785,-1.7259728908538818,-433.77685546875,46.142578125,-199.03564453125
1.312197208404541,-148160244,1,-2.3359060287475586,-0.8888686895370483,1.1962001323699951,132.14111328125,-134.521484375,350.40283203125
1.327104091644287,-148160239,0,-2.060227394104004,-1.1726555824279785,-1.5411584377288818,-409.85107421875,-7.6904296875,-148.49853515625
1.3271229267120361,-148160220,0,-1.6761943101882935,-1.0986809730529785,-1.4024865627288818,-384.521484375,-20.69091796875,-68.66455078125
1.3453850746154785,-148160225,1,-2.3256521224975586,-0.9145034551620483,1.0694911479949951,133.60595703125,-130.43212890625,360.595703125
1.3453938961029053,-148160206,1,-2.2839040756225586,-0.9237807989120483,0.9352137446403503,122.49755859375,-144.04296875,369.20166015625
1.3568930625915527,-148160201,0,-1.4508525133132935,-1.0977044105529785,-1.2352502346038818,-362.73193359375,-9.94873046875,-22.03369140625
1.3570239543914795,-148160182,0,-1.1696025133132935,-1.0459465980529785,-0.9403282999992371,-327.1484375,1.0986328125,27.28271484375
1.3722031116485596,-148160187,1,-2.1442556381225586,-0.9467300176620483,0.8700281977653503,108.2763671875,-167.05322265625,370.78857421875
1.394205093383789,-148160163,0,-0.9047099351882935,-0.9014153480529785,-0.6766564249992371,-305.35888671875,9.765625,60.302734375
1.4021179676055908,-148160168,1,-1.998503565788269,-0.9950698614120483,0.6859461665153503,109.0087890625,-198.18115234375,375.79345703125
1.4022021293640137,-148160149,1,-1.818083643913269,-0.9499038457870483,0.5238367915153503,111.81640625,-219.3603515625,395.3857421875
1.4170570373535156,-148160144,0,-0.8263407945632935,-0.8904290199279785,-0.35194939374923706,-297.66845703125,11.23046875,76.72119140625
1.4171810150146484,-148160125,0,-0.7103739976882935,-0.7568840980529785,-0.19545525312423706,-269.775390625,-0.42724609375,86.85302734375
1.443131923675537,-148160130,1,-1.597136378288269,-0.9235366582870483,0.30533093214035034,101.62353515625,-245.361328125,412.59765625
1.4431390762329102,-148160111,1,-1.263152003288269,-0.9953140020370483,0.12954968214035034,82.21435546875,-283.447265625,398.86474609375
1.4485421180725098,-148160106,0,-0.5443583726882935,-0.6555657386779785,0.00864630937576294,-230.712890625,-17.9443359375,89.84375
1.4622540473937988,-148160092,1,-0.9582204222679138,-1.0290054082870483,-0.012784302234649658,81.4208984375,-303.16162109375,358.70361328125
1.4770119190216064,-148160087,0,-0.37565720081329346,-0.5969719886779785,0.16514045000076294,-187.5,-37.841796875,82.8857421875
1.4770910739898682,-148160068,0,-0.20646773278713226,-0.4612298309803009,0.23130255937576294,-157.1044921875,-68.54248046875,71.83837890625
1.499514102935791,-148160073,1,-0.7226247191429138,-1.0082534551620483,-0.12972766160964966,88.56201171875,-306.5185546875,330.26123046875
1.5072529315948486,-148160049,0,-0.08146773278713226,-0.3706536591053009,0.28550177812576294,-138.0615234375,-90.33203125,60.9130859375
1.5220310688018799,-148160037,1,-0.18209734559059143,-0.9074233770370483,-0.24032336473464966,106.93359375,-274.2919921875,280.76171875
1.5439691543579102,-148160013,0,0.01716507598757744,-0.2168450504541397,0.30991584062576294,-92.46826171875,-132.38525390625,27.2216796875
1.550534963607788,-148160018,1,0.19583234190940857,-0.9489272832870483,-0.32577258348464966,109.06982421875,-236.083984375,226.98974609375
1.550638198852539,-148159999,1,0.6191721558570862,-0.8153823614120483,-0.38143664598464966,101.62353515625,-174.8046875,134.82666015625
1.5686311721801758,-148159994,0,0.19123734533786774,-0.1604485660791397,0.37534552812576294,-70.3125,-162.41455078125,4.638671875
1.5686390399932861,-148159975,0,0.28401076793670654,-0.11723567545413971,0.39560920000076294,-36.865234375,-171.93603515625,-34.11865234375
1.5934360027313232,-148159980,1,0.8171702027320862,-0.5541518926620483,-0.30868273973464966,67.56591796875,-85.5712890625,52.6123046875
1.5934431552886963,-148159961,1,0.5893869996070862,-0.3676284849643707,-0.31820422410964966,14.58740234375,-48.27880859375,4.45556640625
1.5974929332733154,-148159956,0,0.28962600231170654,0.009229164570569992,0.40171271562576294,-7.14111328125,-169.921875,-63.04931640625
1.612304925918579,-148159942,1,0.42727765440940857,-0.19233551621437073,-0.30233508348464966,-77.5146484375,-84.5947265625,-28.62548828125
1.6270079612731934,-148159937,0,0.15852250158786774,0.1498541682958603,0.38291388750076294,25.146484375,-160.0341796875,-65.0634765625
1.6271460056304932,-148159918,0,-0.05070601776242256,0.3122076690196991,0.42148810625076294,60.1806640625,-141.845703125,-5.37109375
1.6477811336517334,-148159923,1,0.6670237183570862,-0.3214859068393707,-0.07821398973464966,-128.23486328125,-134.1552734375,-52.8564453125
1.6491341590881348,-148159904,1,0.9604807496070862,-0.6278823614120483,0.07510632276535034,-90.6982421875,-154.296875,-95.703125
1.6581320762634277,-148159899,0,-0.21891890466213226,0.3166022002696991,0.44907599687576294,106.38427734375,-106.201171875,75.3173828125
1.6722509860992432,-148159885,1,1.177521824836731,-0.8754409551620483,0.40274304151535034,14.7705078125,-132.32421875,-141.78466796875
1.6954710483551025,-148159880,0,-0.26506149768829346,0.2912115752696991,0.44272834062576294,140.44189453125,-92.34619140625,105.3466796875
1.695479154586792,-148159861,0,-0.23649702966213226,0.3114752471446991,0.39560920000076294,159.85107421875,-102.294921875,94.7265625
1.7044620513916016,-148159866,1,1.040558934211731,-0.6012710332870483,0.39395397901535034,163.75732421875,-71.59423828125,-207.275390625
1.7044720649719238,-148159847,1,0.49759015440940857,-0.05219879001379013,0.26773327589035034,208.1298828125,-70.25146484375,-258.36181640625
1.7172191143035889,-148159842,0,-0.10441695153713226,0.2631354033946991,0.27964240312576294,162.2314453125,-125.30517578125,75.68359375
1.7173340320587158,-148159823,0,0.16267289221286774,0.2055182307958603,0.05747443437576294,149.0478515625,-127.01416015625,62.80517578125
1.7418971061706543,-148159828,1,0.16262921690940857,0.5095688104629517,0.03409069776535034,166.44287109375,-150.7568359375,-270.08056640625
1.7476880550384521,-148159804,0,0.34944045543670654,0.1696295589208603,-0.08705681562423706,136.71875,-101.62353515625,50.1708984375
1.7621052265167236,-148159809,1,0.15628156065940857,0.8293930292129517,-0.23983508348464966,62.744140625,-226.25732421875,-260.7421875
1.7765629291534424,-148159785,0,0.42097365856170654,0.2079596370458603,-0.25844353437423706,117.5537109375,-77.45361328125,15.380859375
1.7977790832519531,-148159773,1,-0.14645281434059143,0.7681137323379517,-0.36654406785964966,-92.83447265625,-238.6474609375,-267.578125
1.7977862358093262,-148159754,1,-0.5990895628929138,0.7341781854629517,-0.34066516160964966,-86.669921875,-211.9140625,-271.05712890625
1.806819200515747,-148159749,0,0.35017287731170654,0.5805182456970215,-0.6417443156242371,60.05859375,-46.38671875,-34.912109375
1.8220422267913818,-148159735,1,-0.8312672972679138,0.7551742792129517,-0.25863391160964966,-0.732421875,-184.50927734375,-245.2392578125
1.8442518711090088,-148159730,0,0.17903031408786774,0.6647467613220215,-0.7977501749992371,12.451171875,-51.3916015625,-12.75634765625
1.8442602157592773,-148159711,0,0.34675490856170654,0.8656744956970215,-0.6551720499992371,-62.92724609375,-11.29150390625,-35.21728515625
1.8512871265411377,-148159716,1,-0.9706715941429138,0.9463363885879517,-0.36507922410964966,53.466796875,-160.33935546875,-219.8486328125
1.8513710498809814,-148159697,1,-1.022185206413269,1.0149399042129517,-0.49007922410964966,41.1376953125,-133.544921875,-199.64599609375
1.8681302070617676,-148159692,0,0.30329787731170654,0.8185553550720215,-0.5799767374992371,-107.177734375,-6.34765625,-40.34423828125
1.8681399822235107,-148159673,0,-0.02531539276242256,0.6415534019470215,-0.7459923624992371,-120.30029296875,35.888671875,-56.45751953125
1.8926951885223389,-148159678,1,-1.045622706413269,0.9531723260879517,-0.5152257084846497,15.625,-117.73681640625,-193.17626953125
1.8973629474639893,-148159654,0,-0.12248335778713226,0.8058600425720215,-0.7474572062492371,-55.48095703125,60.791015625,-65.12451171875
1.913804054260254,-148159659,1,-1.116179347038269,0.9170395135879517,-0.5342686772346497,-9.033203125,-95.458984375,-173.27880859375
1.9138150215148926,-148159640,1,-1.190886378288269,0.8416000604629517,-0.41268664598464966,-37.17041015625,-81.84814453125,-151.85546875
1.9254610538482666,-148159635,0,0.09748734533786774,1.1332526206970215,-1.1222131252288818,29.052734375,33.5693359375,-30.029296875
1.9255008697509766,-148159616,0,0.29011428356170654,1.5106940269470215,-1.2892053127288818,128.23486328125,37.90283203125,-16.29638671875
1.946275234222412,-148159621,1,-1.209196925163269,0.7588363885879517,-0.31185656785964966,-53.40576171875,-69.64111328125,-126.8310546875
1.946282148361206,-148159602,1,-1.062224268913269,0.7600570917129517,-0.28182727098464966,-61.4013671875,-59.326171875,-118.1640625
1.9564261436462402,-148159597,0,0.6345967054367065,1.3075690269470215,-1.2384240627288818,190.91796875,32.40966796875,-31.92138671875
1.9706041812896729,-148159583,1,-1.150114893913269,0.7158676385879517,-0.33993273973464966,-78.7353515625,-40.283203125,-119.81201171875
1.993607997894287,-148159578,0,0.8374775648117065,1.3981451988220215,-1.3722131252288818,175.96435546875,67.68798828125,-40.22216796875
1.9936151504516602,-148159559,0,0.9334248304367065,1.5790534019470215,-1.4146935939788818,160.82763671875,100.03662109375,-44.12841796875
2.001474142074585,-148159564,1,-1.173796534538269,0.7053695917129517,-0.33944445848464966,-89.41650390625,-26.9775390625,-122.4365234375
2.0014829635620117,-148159545,1,-1.186003565788269,0.7227035760879517,-0.31429797410964966,-80.74951171875,-12.8173828125,-119.81201171875
2.015613079071045,-148159540,0,1.1179951429367065,1.5475592613220215,-1.4359338283538818,132.01904296875,135.68115234375,-33.447265625
2.0157110691070557,-148159521,0,1.1546162366867065,1.7184576988220215,-1.6305139064788818,102.96630859375,162.65869140625,-15.5029296875
2.0595059394836426,-148159509,1,-1.188933253288269,0.9133774042129517,-0.24300891160964966,-81.4208984375,31.982421875,-86.12060546875
2.0608692169189453,-148159490,1,-1.225798487663269,0.8164535760879517,-0.04281359910964966,-75.927734375,48.7060546875,-70.1904296875
2.075650215148926,-148159485,0,1.5215595960617065,1.7765631675720215,-2.119039297103882,-8.48388671875,245.78857421875,-75.13427734375
2.0757250785827637,-148159466,0,1.6780537366867065,1.8290534019470215,-2.257711172103882,-84.228515625,327.45361328125,-104.6142578125
2.098586082458496,-148159471,1,-1.252653956413269,0.8882309198379517,0.16104382276535034,-46.32568359375,50.4150390625,-66.95556640625
2.0985941886901855,-148159452,1,-1.307585597038269,1.1045395135879517,0.15396374464035034,-44.0673828125,52.978515625,-54.01611328125
2.1054651737213135,-148159447,0,1.5935810804367065,1.9025397300720215,-2.446431875228882,-156.06689453125,391.6015625,-70.556640625
2.120429039001465,-148159433,1,-1.300261378288269,1.0586410760879517,0.06216686964035034,-82.94677734375,68.4814453125,-33.0810546875
2.147552013397217,-148159428,0,1.2100361585617065,2.0836920738220215,-2.821676015853882,-208.92333984375,436.8896484375,-35.0341796875
2.147559881210327,-148159409,0,0.9212177991867065,2.3214850425720215,-3.023824453353882,-212.09716796875,486.2060546875,1.03759765625
2.151643991470337,-148159414,1,-1.238249659538269,0.7764145135879517,0.14712780714035034,-71.96044921875,87.70751953125,-15.68603515625
2.15165114402771,-148159395,1,-1.089568018913269,0.5325180292129517,0.29873913526535034,-13.671875,119.20166015625,-16.845703125
2.1655659675598145,-148159390,0,0.37946975231170654,2.3849616050720215,-3.011617422103882,-212.46337890625,507.9345703125,22.88818359375
2.165649890899658,-148159371,0,0.013502966612577438,2.3366217613220215,-2.853902578353882,-223.93798828125,502.01416015625,29.4189453125
2.1914210319519043,-148159376,1,-0.9506520628929138,0.4729476869106293,0.32168835401535034,50.59814453125,156.18896484375,-33.75244140625
2.1963050365448,-148159352,0,-0.31511032581329346,2.2040534019470215,-2.746724843978882,-225.89111328125,476.50146484375,69.4580078125
2.2103891372680664,-148159357,1,-1.022429347038269,0.4646469056606293,0.15982311964035034,81.72607421875,180.72509765625,-49.4384765625
2.210469961166382,-148159338,1,-1.162077784538269,0.6487289667129517,-0.14071398973464966,68.2373046875,192.32177734375,-44.49462890625
2.2255759239196777,-148159333,0,-0.5367900133132935,1.8336920738220215,-2.412984609603882,-217.8955078125,442.81005859375,132.4462890625
2.2256529331207275,-148159314,0,-0.43791306018829346,1.3449225425720215,-2.217427968978882,-200.50048828125,406.18896484375,174.74365234375
2.2468690872192383,-148159319,1,-1.419646143913269,0.6436020135879517,-0.19296008348464966,-13.36669921875,141.2353515625,-21.1181640625
2.2468769550323486,-148159300,1,-1.163298487663269,0.4907699525356293,-0.43172961473464966,-49.560546875,108.154296875,-16.17431640625
2.2555079460144043,-148159295,0,-0.35637009143829346,0.9359869956970215,-1.9801232814788818,-172.66845703125,403.9306640625,183.41064453125
2.2705721855163574,-148159281,1,-0.9755544066429138,0.3999496400356293,-0.6470616459846497,-35.64453125,161.43798828125,-8.9111328125
2.2945921421051025,-148159276,0,-0.23088179528713226,0.5014166831970215,-1.6422326564788818,-147.52197265625,406.8603515625,138.427734375
2.2954349517822266,-148159257,0,-0.01750289276242256,0.3253912627696991,-1.3373010158538818,-146.54541015625,406.25,43.02978515625
2.300537109375,-148159245,1,-1.053191065788269,0.4287582337856293,-0.7581456303596497,21.97265625,297.54638671875,-5.79833984375
2.3163158893585205,-148159221,0,0.21687211096286774,0.1518072932958603,-0.8326622843742371,-87.58544921875,367.24853515625,44.37255859375
2.344180107116699,-148159226,1,-1.221159815788269,0.3828597962856293,-0.7083409428596497,2.01416015625,308.41064453125,-16.357421875
2.349946975708008,-148159202,0,0.35139358043670654,0.1457037776708603,-0.7901818156242371,-50.78125,373.53515625,53.52783203125
2.36071515083313,-148159207,1,-1.276579737663269,0.6321274042129517,-0.7691319584846497,-40.34423828125,279.84619140625,-16.9677734375
2.3608031272888184,-148159188,1,-0.8796071410179138,0.21415862441062927,-1.0205967426300049,-107.48291015625,262.39013671875,-48.76708984375
2.375554084777832,-148159183,0,0.36360061168670654,0.05537174269556999,-0.5753380656242371,-15.80810546875,398.4375,30.76171875
2.375685214996338,-148159164,0,0.24226273596286774,-0.005907554179430008,-0.42763298749923706,26.3671875,415.71044921875,12.451171875
2.397968292236328,-148159169,1,-0.7467946410179138,0.2791000306606293,-1.1219151020050049,-151.123046875,320.25146484375,-66.83349609375
2.3979761600494385,-148159150,1,-1.111784815788269,0.4253402650356293,-0.8184483647346497,-149.5361328125,367.00439453125,-22.705078125
2.406874895095825,-148159145,0,0.19465531408786774,0.1598639339208603,-0.33192986249923706,83.92333984375,409.1796875,35.58349609375
2.4221880435943604,-148159131,1,-1.178191065788269,0.4409652650356293,-0.7098057866096497,-164.36767578125,356.3232421875,-20.20263671875
2.447824239730835,-148159126,0,0.09333695471286774,0.1679205745458603,-0.18373650312423706,116.69921875,355.04150390625,79.58984375
2.447831153869629,-148159107,0,-0.04899703338742256,0.04414127394556999,-0.16689079999923706,195.00732421875,298.095703125,145.01953125
2.451906204223633,-148159112,1,-1.080778956413269,0.4307113587856293,-0.5953038334846497,-184.08203125,335.205078125,-21.3623046875
2.452008008956909,-148159093,1,-0.9584645628929138,0.3396469056606293,-0.45126086473464966,-175.29296875,339.41650390625,-2.0751953125
2.4661309719085693,-148159088,0,-0.16984663903713226,-0.05009700730443001,0.03135138750076294,304.01611328125,250.0,171.2646484375
2.4965271949768066,-148159074,1,-0.7731618285179138,0.2932601869106293,-0.35946398973464966,-159.60693359375,365.78369140625,5.31005859375
2.5017149448394775,-148159069,0,-0.16618452966213226,-0.11992122232913971,0.20664435625076294,359.31396484375,182.43408203125,107.36083984375
2.501722812652588,-148159050,0,-0.19792281091213226,-0.2698235809803009,0.33017951250076294,369.140625,157.2265625,-4.638671875
2.5120840072631836,-148159055,1,-0.6757497191429138,0.2678695619106293,-0.25692492723464966,-159.36279296875,379.2724609375,0.3662109375
2.512178897857666,-148159036,1,-0.7150563597679138,0.3176742494106293,-0.13900500535964966,-177.91748046875,375.732421875,-6.34765625
2.527095079421997,-148159031,0,-0.07048140466213226,-0.2053704410791397,0.7911170125007629,301.7578125,98.44970703125,-85.5712890625
2.527182102203369,-148159012,0,-0.21183882653713226,-0.2830071747303009,0.5450232625007629,168.02978515625,114.56298828125,-95.03173828125
2.5472140312194824,-148159017,1,-0.8168630003929138,0.4026351869106293,0.11148327589035034,-227.9052734375,312.31689453125,-12.939453125
2.570842981338501,-148158981,1,0.11575420945882797,0.09452972561120987,0.8570887446403503,-329.9560546875,-17.51708984375,-39.12353515625
2.592550039291382,-148158993,0,-0.7360087633132935,-0.2407708317041397,0.6561072468757629,185.48583984375,127.86865234375,-101.13525390625
2.592557191848755,-148158957,0,-0.43888962268829346,0.10859440267086029,-0.19740837812423706,324.89013671875,71.2890625,10.07080078125
2.6021690368652344,-148158962,1,0.7832346558570862,-0.3571304380893707,-0.07796984910964966,-296.32568359375,82.45849609375,-33.5693359375
2.6022870540618896,-148158943,1,0.5510569214820862,-0.2960952818393707,-0.21737414598464966,-204.77294921875,232.60498046875,-36.07177734375
2.6173861026763916,-148158938,0,-0.23796187341213226,-0.1401848942041397,-0.26186150312423706,275.5126953125,79.345703125,36.4990234375
2.641623020172119,-148158924,1,0.14871320128440857,-0.09785308688879013,-0.10531359910964966,-126.5869140625,351.318359375,-7.99560546875
2.6491241455078125,-148158919,0,-0.25651657581329346,-0.3020501434803009,-0.17934197187423706,251.64794921875,54.13818359375,-24.96337890625
2.649132013320923,-148158900,0,-0.29094040393829346,-0.3132806122303009,-0.24818962812423706,280.6396484375,22.64404296875,-92.95654296875
2.6621251106262207,-148158905,1,-0.027068056166172028,0.02739105373620987,-0.018155395984649658,-117.24853515625,368.896484375,-4.638671875
2.662198066711426,-148158886,1,0.004914365708827972,0.06376800686120987,-0.07211047410964966,-137.87841796875,361.26708984375,-41.56494140625
2.675363063812256,-148158881,0,-0.43303024768829346,-0.3191399872303009,-0.5494591593742371,320.61767578125,6.8359375,-107.0556640625
2.6754398345947266,-148158862,0,-0.5521708726882935,-0.1978020817041397,-1.0926721096038818,358.7646484375,-23.3154296875,-83.3740234375
2.6976351737976074,-148158867,1,-0.29147234559059143,0.14555510878562927,0.07120007276535034,-161.68212890625,323.3642578125,-113.95263671875
2.7067999839782715,-148158843,0,-0.36149704456329346,-0.04130794480443001,-1.5785119533538818,374.81689453125,24.5361328125,-53.466796875
2.7202870845794678,-148158848,1,-0.40084734559059143,0.4419418275356293,0.32193249464035034,-211.0595703125,227.23388671875,-242.431640625
2.720378875732422,-148158829,1,-0.6994313597679138,0.7371078729629517,0.6473719477653503,-281.3720703125,100.4638671875,-357.48291015625
2.745880126953125,-148158824,0,-0.33464157581329346,0.2492194026708603,-1.9974572658538818,365.3564453125,85.8154296875,-57.861328125
2.745887041091919,-148158805,0,-0.45060837268829346,0.5407233238220215,-2.156148672103882,318.2373046875,120.42236328125,-74.52392578125
2.7504520416259766,-148158810,1,-0.9421071410179138,1.2500473260879517,0.7784754633903503,-392.88330078125,-23.01025390625,-417.66357421875
2.750469923019409,-148158791,1,-1.207487940788269,1.2773910760879517,0.8624598383903503,-469.3603515625,-65.61279296875,-392.333984375
2.765328884124756,-148158786,0,-0.42497360706329346,0.6879401206970215,-2.135885000228882,222.7783203125,107.7880859375,-64.94140625
2.7944600582122803,-148158772,1,-1.222380518913269,1.0371567010879517,1.2706630229949951,-482.666015625,-42.236328125,-294.12841796875
2.7990670204162598,-148158767,0,-0.12297163903713226,0.7997565269470215,-2.199605703353882,156.005859375,49.31640625,-80.74951171875
2.799074172973633,-148158748,0,0.09040726721286774,1.0663580894470215,-2.468648672103882,116.455078125,1.708984375,-115.3564453125
2.8106932640075684,-148158753,1,-1.373259425163269,0.7131820917129517,1.8932216167449951,-344.8486328125,44.86083984375,-151.79443359375
2.825486183166504,-148158729,0,0.27448928356170654,1.2926764488220215,-2.478170156478882,93.8720703125,-1.46484375,-109.80224609375
2.845435857772827,-148158717,1,-1.696745753288269,1.7744613885879517,1.3849208354949951,-36.07177734375,101.86767578125,89.2333984375
2.8554840087890625,-148158693,0,0.23396195471286774,1.1972174644470215,-1.8111779689788818,44.25048828125,69.15283203125,-78.857421875
2.8705432415008545,-148158698,1,-1.055388331413269,1.0796371698379517,1.4046962261199951,-67.138671875,-16.11328125,62.3779296875
2.8706560134887695,-148158679,1,-0.7944020628929138,0.9631820917129517,1.1219813823699951,-22.3388671875,-97.5341796875,-1.28173828125
2.8940470218658447,-148158674,0,-0.03386031463742256,1.2797369956970215,-1.4195764064788818,37.41455078125,35.888671875,-57.6171875
2.8940539360046387,-148158655,0,-0.07243452966213226,1.2494635581970215,-1.3341271877288818,9.94873046875,-42.17529296875,-38.9404296875
2.900463104248047,-148158660,1,-0.7177419066429138,0.9868637323379517,0.8815028071403503,-15.5029296875,-125.732421875,-27.03857421875
2.9006028175354004,-148158641,1,-0.7360524535179138,0.7727524042129517,0.8265711665153503,4.08935546875,-111.99951171875,2.3193359375
2.9158430099487305,-148158636,0,0.06037796661257744,1.0561041831970215,-1.3995568752288818,-20.93505859375,-105.04150390625,-32.77587890625
2.9425599575042725,-148158622,1,-0.8529958128929138,0.6052719354629517,0.9017664790153503,61.21826171875,-74.0966796875,40.771484375
2.9478139877319336,-148158617,0,0.12556351721286774,0.9166998863220215,-1.2857873439788818,-36.2548828125,-121.27685546875,-22.03369140625
2.947822093963623,-148158598,0,0.13703812658786774,0.7506842613220215,-1.2691857814788818,-45.34912109375,-114.8681640625,15.31982421875
2.962207078933716,-148158603,1,-1.036345362663269,0.5093246698379517,0.9664637446403503,101.01318359375,-123.291015625,44.43359375
2.9623239040374756,-148158584,1,-0.9599294066429138,0.5513168573379517,0.8072840571403503,116.943359375,-180.11474609375,25.634765625
2.9771900177001953,-148158579,0,0.09895218908786774,0.5377936363220215,-1.3224084377288818,-52.18505859375,-111.51123046875,54.3212890625
2.9772770404815674,-148158560,0,0.07649125158786774,0.3771490752696991,-1.1451623439788818,-55.908203125,-119.9951171875,59.14306640625
2.99896502494812,-148158565,1,-0.7775563597679138,0.7009750604629517,0.45938366651535034,137.75634765625,-176.6357421875,48.76708984375
3.007012128829956,-148158541,0,-0.09660445153713226,0.1435065120458603,-0.9120079874992371,-56.396484375,-156.18896484375,42.41943359375
3.022247076034546,-148158546,1,-0.41354265809059143,0.5164047479629517,0.20132702589035034,168.8232421875,-72.3876953125,104.00390625
3.0223309993743896,-148158527,1,-0.43990984559059143,0.6855942010879517,0.12271374464035034,213.43994140625,45.95947265625,98.32763671875
3.045991897583008,-148158522,0,-0.20939742028713226,-0.001024741679430008,-0.7748009562492371,-75.37841796875,-225.03662109375,5.18798828125
3.0460000038146973,-148158503,0,-0.30119431018829346,0.03754947707056999,-0.6905724406242371,-127.13623046875,-274.47509765625,-43.02978515625
3.052271842956543,-148158508,1,-0.5895680785179138,0.8665024042129517,0.09536999464035034,186.09619140625,69.51904296875,99.7314453125
3.0668280124664307,-148158484,0,-0.45109665393829346,0.08588932454586029,-0.6620079874992371,-161.4990234375,-266.9677734375,-48.4619140625
3.0948119163513184,-148158489,1,-0.41525164246559143,0.7424789667129517,0.22134655714035034,106.0791015625,52.18505859375,105.28564453125
3.098814010620117,-148158465,0,-0.6312724351882935,0.08906315267086029,-0.6302697062492371,-171.0205078125,-227.9052734375,-6.34765625
3.112014055252075,-148158453,1,-0.13351336121559143,0.2983871400356293,0.5875574946403503,94.17724609375,137.5732421875,116.5771484375
3.1120970249176025,-148158434,1,-0.12643328309059143,0.4202133119106293,0.5306727290153503,144.6533203125,174.8046875,99.9755859375
3.1278281211853027,-148158429,0,-0.6759501695632935,0.10810612142086029,-0.40810173749923706,-174.49951171875,-162.78076171875,58.9599609375
3.127840042114258,-148158410,0,-0.6312724351882935,0.2172369807958603,-0.24428337812423706,-187.43896484375,-183.4716796875,42.90771484375
3.1462719440460205,-148158415,1,-0.06198016554117203,0.5457016229629517,0.24112194776535034,148.5595703125,191.95556640625,67.93212890625
3.1572742462158203,-148158391,0,-0.5594950914382935,0.3410162627696991,-0.22401970624923706,-199.89013671875,-174.1943359375,50.537109375
3.171933889389038,-148158396,1,-0.04562274366617203,0.4778304994106293,0.08755749464035034,117.3095703125,201.11083984375,37.7197265625
3.1720919609069824,-148158377,1,0.14480695128440857,0.4131332337856293,-0.014981567859649658,56.57958984375,188.232421875,10.7421875
3.192831039428711,-148158372,0,-0.5599833726882935,0.2670416533946991,-0.25600212812423706,-175.72021484375,-128.0517578125,80.50537109375
3.1936142444610596,-148158353,0,-0.40348923206329346,0.2848639190196991,-0.22035759687423706,-118.7744140625,-24.5361328125,96.435546875
3.2022342681884766,-148158358,1,0.37356671690940857,0.16655120253562927,-0.04598742723464966,3.35693359375,181.82373046875,-18.24951171875
3.217514991760254,-148158334,0,-0.38542282581329346,0.2572760283946991,-0.0023400187492370605,-76.5380859375,73.91357421875,91.6748046875
3.2433271408081055,-148158339,1,0.5622873902320862,-0.01923980563879013,-0.012051880359649658,-9.1552734375,202.33154296875,-49.9267578125
3.2433390617370605,-148158320,1,0.6404123902320862,-0.08857574313879013,0.022127807140350342,1.46484375,226.07421875,-79.89501953125
3.247767210006714,-148158315,0,-0.39958298206329346,0.2711920440196991,0.05161505937576294,-31.3720703125,112.1826171875,79.4677734375
3.247775077819824,-148158296,0,-0.25431931018829346,0.2887701690196991,0.09873420000076294,-3.23486328125,121.4599609375,63.41552734375
3.261478900909424,-148158301,1,0.6716623902320862,-0.09077300876379013,0.08584851026535034,22.64404296875,259.70458984375,-111.02294921875
3.261615037918091,-148158282,1,0.5288401246070862,0.01762542873620987,0.26553601026535034,48.7060546875,276.79443359375,-122.802734375
3.275609254837036,-148158277,0,-0.15519820153713226,0.4159674346446991,-0.00990837812423706,23.193359375,143.12744140625,44.73876953125
3.3047380447387695,-148158258,0,-0.39836227893829346,0.6066412925720215,-0.10951775312423706,55.7861328125,169.00634765625,50.84228515625
3.3054590225219727,-148158239,0,-0.6532450914382935,0.5065436363220215,-0.18959587812423706,83.740234375,209.47265625,125.30517578125
3.3207292556762695,-148158263,1,0.33206281065940857,0.11601410061120987,0.5277430415153503,74.21875,259.1552734375,-134.1552734375
3.3207921981811523,-148158244,1,0.09597881883382797,0.3052230775356293,0.5038172602653503,67.81005859375,226.1962890625,-119.93408203125
3.3219521045684814,-148158225,1,0.14358624815940857,0.4092269837856293,0.34903210401535034,-8.9111328125,181.0302734375,-131.4697265625
3.364827871322632,-148158220,0,-0.20231734216213226,0.4171881377696991,-0.15614861249923706,80.322265625,223.08349609375,25.57373046875
3.365516185760498,-148158201,0,-0.25944626331329346,0.2475104182958603,-0.13661736249923706,62.1337890625,138.427734375,-83.1298828125
3.390766143798828,-148158189,1,3.155320882797241e-05,0.3708969056606293,0.5113856196403503,-149.7802734375,81.54296875,-183.65478515625
3.391655921936035,-148158170,1,-0.11935321241617203,0.2615219056606293,0.5467860102653503,-204.40673828125,53.89404296875,-207.03125
3.3958988189697266,-148158165,0,-0.47697556018829346,0.4599127471446991,-0.31776970624923706,77.63671875,47.91259765625,-186.95068359375
3.3959062099456787,-148158146,0,-0.5631572008132935,0.5080084800720215,-0.5160118937492371,83.80126953125,40.771484375,-141.66259765625
3.410578966140747,-148158151,1,-0.35714617371559143,0.2612777650356293,0.6573817133903503,-247.4365234375,25.87890625,-233.7646484375
3.410658121109009,-148158132,1,-0.8180837035179138,0.22758635878562927,0.7855555415153503,-360.595703125,-18.6767578125,-316.34521484375
3.4254631996154785,-148158127,0,-0.5612040758132935,0.4250006377696991,-0.6251427531242371,101.1962890625,61.5234375,-103.02734375
3.4468460083007812,-148158113,1,-1.151335597038269,0.10307464748620987,1.1449306011199951,-492.3095703125,-58.28857421875,-394.71435546875
3.4554550647735596,-148158108,0,-0.6473857164382935,0.2372565120458603,-0.7972618937492371,126.8310546875,94.7265625,-88.80615234375
3.455522060394287,-148158089,0,-0.8365947008132935,0.3085455596446991,-0.8612267374992371,158.99658203125,115.17333984375,-94.7265625
3.4945480823516846,-148158070,0,-1.3314677476882935,0.7990241050720215,-0.9872032999992371,152.28271484375,90.27099609375,-43.64013671875
3.4954450130462646,-148158051,0,-1.3614970445632935,0.8661627769470215,-1.0829064846038818,123.71826171875,68.90869140625,57.67822265625
3.5007879734039307,-148158094,1,-1.632780909538269,-0.7897475957870483,2.047274351119995,-560.791015625,-7.14111328125,-450.98876953125
3.5008718967437744,-148158075,1,-2.3466482162475586,-1.3231948614120483,3.093905210494995,-317.138671875,77.7587890625,-377.99072265625
3.501944065093994,-148158056,1,-3.2067556381225586,-0.6747573614120483,3.378573179244995,-25.634765625,99.7314453125,-234.619140625
3.5156450271606445,-148158032,0,-1.0387431383132935,0.4108404815196991,-1.3155725002288818,94.17724609375,53.5888671875,144.10400390625
3.543584108352661,-148158037,1,-3.4372243881225586,-0.3827652037143707,3.291414976119995,73.42529296875,36.62109375,-142.333984375
3.543592929840088,-148158018,1,-3.3844900131225586,-0.5128921270370483,3.071444272994995,97.65625,-120.2392578125,-101.25732421875
3.5487732887268066,-148158013,0,-0.7965556383132935,0.3310064971446991,-1.5943810939788818,75.13427734375,40.10009765625,104.98046875
3.5487799644470215,-148157994,0,-0.8231669664382935,0.5355963706970215,-1.5406701564788818,46.142578125,-11.3525390625,65.0634765625
3.560681104660034,-148157999,1,-3.0876150131225586,-0.7897475957870483,2.623446226119995,85.75439453125,-291.015625,-102.35595703125
3.5607712268829346,-148157980,1,-2.7694997787475586,-1.1930679082870483,2.126864194869995,104.67529296875,-387.0849609375,-92.59033203125
3.575637102127075,-148157975,0,-0.5741435289382935,0.3717779815196991,-1.4593713283538818,29.4189453125,-73.54736328125,62.68310546875
3.596561908721924,-148157961,1,-2.6327810287475586,-1.4535659551620483,1.8439052104949951,155.8837890625,-408.0810546875,-99.18212890625
3.6071228981018066,-148157956,0,-0.09513960778713226,0.03486393019556999,-1.1173303127288818,19.8974609375,-182.31201171875,-15.869140625
3.6072099208831787,-148157937,0,0.29572951793670654,-0.1555657535791397,-0.7938439249992371,47.91259765625,-244.81201171875,-113.95263671875
3.622479200363159,-148157925,1,-3.0590505599975586,-1.0897964239120483,1.5111415386199951,275.390625,-444.580078125,-154.84619140625
3.6452701091766357,-148157901,0,-0.33268845081329346,0.3764166533946991,-0.6065880656242371,106.62841796875,-226.01318359375,-48.7060546875
3.6528260707855225,-148157906,1,-3.1415700912475586,-0.8256362676620483,1.1847255229949951,306.33544921875,-494.56787109375,-154.1748046875
3.666999101638794,-148157882,0,-0.7692118883132935,0.8471198081970215,-0.8414513468742371,105.16357421875,-164.12353515625,42.29736328125
3.694463014602661,-148157887,1,-2.9677419662475586,-0.6344741582870483,0.7181727290153503,307.55615234375,-514.70947265625,-155.45654296875
3.694472074508667,-148157868,1,-2.5968923568725586,-0.5094741582870483,0.25064343214035034,269.53125,-518.00537109375,-146.42333984375
3.701211929321289,-148157863,0,-0.7548075914382935,0.2853522002696991,-0.6883751749992371,136.1083984375,-39.73388671875,170.2880859375
3.701228141784668,-148157844,0,-1.1302958726882935,0.026074867695569992,-0.38881462812423706,159.85107421875,-19.53125,248.6572265625
3.7122180461883545,-148157849,1,-2.1679372787475586,-0.3900894224643707,-0.014493286609649658,217.1630859375,-510.25390625,-161.80419921875
3.7123610973358154,-148157830,1,-1.675261378288269,-0.3434585630893707,-0.29281359910964966,177.8564453125,-473.7548828125,-185.302734375
3.726915121078491,-148157825,0,-1.1864482164382935,0.6496100425720215,-0.7406212687492371,177.18505859375,-197.6318359375,233.0322265625
3.7504661083221436,-148157811,1,-1.245818018913269,-0.2665542662143707,-0.27914172410964966,177.3681640625,-387.8173828125,-192.19970703125
3.7570180892944336,-148157806,0,-0.9916239976882935,0.1894049495458603,-0.7811486124992371,154.23583984375,-293.701171875,209.716796875
3.75710391998291,-148157787,0,-0.8148661851882935,0.4193854033946991,-1.4478967189788818,89.90478515625,-283.26416015625,215.14892578125
3.7702910900115967,-148157792,1,-0.9577321410179138,0.04863128811120987,-0.24838000535964966,212.58544921875,-307.861328125,-182.80029296875
3.7704060077667236,-148157773,1,-0.7919606566429138,0.3552719056606293,-0.29427844285964966,205.26123046875,-247.13134765625,-165.283203125
3.794511079788208,-148157768,0,-0.7084208726882935,0.3971686065196991,-1.3084924221038818,90.6982421875,-151.18408203125,287.4755859375
3.8006908893585205,-148157754,1,-0.6200856566429138,0.5632797479629517,-0.13192492723464966,177.734375,-190.91796875,-140.13671875
3.819880962371826,-148157749,0,-0.6390849351882935,0.3864264190196991,-0.9627892374992371,96.86279296875,-83.0078125,365.90576171875
3.819891929626465,-148157730,0,-0.45378220081329346,0.2643561065196991,-0.7215782999992371,51.1474609375,-126.8310546875,350.9521484375
3.842647075653076,-148157735,1,-0.34664812684059143,0.6702133417129517,0.012118041515350342,144.53125,-141.29638671875,-120.42236328125
3.8426549434661865,-148157716,1,-0.08126727491617203,0.5173813104629517,0.17520397901535034,115.3564453125,-85.75439453125,-121.337890625
3.8475992679595947,-148157711,0,-0.38639938831329346,0.2443365901708603,-0.5931603312492371,7.87353515625,-191.71142578125,293.39599609375
3.8481359481811523,-148157692,0,-0.39470016956329346,0.2396979182958603,-0.5313927531242371,-7.9345703125,-211.3037109375,286.4990234375
3.863327980041504,-148157697,1,-0.021452821791172028,0.24150237441062927,0.45450085401535034,154.11376953125,-21.05712890625,-126.64794921875
3.8757641315460205,-148157673,0,-0.39030563831329346,0.1906256526708603,-0.42055290937423706,-1.8310546875,-180.60302734375,303.03955078125
3.896605968475342,-148157661,1,-0.12887468934059143,0.4077621400356293,0.5419031977653503,214.41650390625,6.591796875,-123.47412109375
3.9052538871765137,-148157637,0,-0.45378220081329346,0.2526373565196991,-0.24574822187423706,25.08544921875,-158.99658203125,305.84716796875
3.9203391075134277,-148157642,1,-0.19210711121559143,0.3430648744106293,0.5919520258903503,177.6123046875,-33.3251953125,-111.4501953125
3.9204061031341553,-148157623,1,-0.13937273621559143,0.23222503066062927,0.5853602290153503,140.07568359375,-84.04541015625,-133.23974609375
3.944082021713257,-148157618,0,-0.38688766956329346,0.3405279815196991,-0.19203728437423706,16.11328125,-193.42041015625,296.2646484375
3.9508590698242188,-148157604,1,-0.16085711121559143,0.17973479628562927,0.45010632276535034,111.38916015625,-122.13134765625,-147.03369140625
3.9654269218444824,-148157599,0,-0.32170212268829346,0.2106451839208603,-0.21571892499923706,2.99072265625,-250.06103515625,273.98681640625
3.9655518531799316,-148157580,0,-0.13420210778713226,0.2362799495458603,-0.34535759687423706,19.6533203125,-297.119140625,238.58642578125
3.991511106491089,-148157585,1,-0.09249774366617203,0.06620941311120987,0.31607311964035034,106.26220703125,-135.19287109375,-172.42431640625
3.991518020629883,-148157566,1,2.6816720962524414,-0.20600739121437073,-1.2410557270050049,-179.6875,-115.66162109375,-332.58056640625
3.9976909160614014,-148157561,0,0.45368850231170654,0.5778326988220215,-3.437398672103882,28.564453125,-130.18798828125,194.64111328125
3.9976980686187744,-148157542,0,0.5220478773117065,0.4169439971446991,-0.01039665937423706,-1.52587890625,-61.95068359375,214.4775390625
4.010567903518677,-148157547,1,-1.094939112663269,-0.22505035996437073,-0.26156359910964966,44.98291015625,67.07763671875,-236.6943359375
4.025237083435059,-148157523,0,0.47737014293670654,0.1510748714208603,-0.18373650312423706,77.392578125,-41.259765625,223.08349609375
4.048050880432129,-148157528,1,-0.29025164246559143,0.04203949123620987,0.011629760265350342,33.02001953125,-32.53173828125,-158.0810546875
4.048058271408081,-148157509,1,-0.5280446410179138,-0.5688003301620483,0.40249890089035034,77.0263671875,-66.7724609375,-165.22216796875
4.055402040481567,-148157504,0,0.31672561168670654,0.5204596519470215,0.19883185625076294,73.486328125,-110.595703125,198.1201171875
4.055480003356934,-148157485,0,0.5152119398117065,-0.3022942841053009,-0.37831658124923706,89.7216796875,-123.71826171875,172.119140625
4.070264101028442,-148157490,1,-0.7826833128929138,0.6030746698379517,-0.12997180223464966,109.31396484375,-99.609375,-207.8857421875
4.0703370571136475,-148157471,1,-1.020964503288269,0.6885238885879517,-0.06088000535964966,-105.89599609375,-174.072265625,-238.46435546875
4.094022035598755,-148157466,0,0.46028029918670654,0.4755377471446991,0.04453498125076294,121.52099609375,-117.431640625,156.005859375
4.1007280349731445,-148157452,1,-0.7731618285179138,0.3787094056606293,0.10122936964035034,-147.0947265625,-158.935546875,-197.08251953125
4.115355968475342,-148157447,0,0.49397170543670654,0.1618170589208603,-0.37660759687423706,133.9111328125,-70.86181640625,166.259765625
4.115450859069824,-148157428,0,0.34040725231170654,0.4164557158946991,-0.49281853437423706,193.7255859375,-17.822265625,155.21240234375
4.141911029815674,-148157433,1,-0.8901051878929138,0.3140121400356293,0.12564343214035034,-127.8076171875,-65.73486328125,-164.0625
4.146714210510254,-148157409,0,0.46028029918670654,0.5365729331970215,-0.5985314249992371,223.32763671875,-0.18310546875,163.4521484375
4.162362813949585,-148157397,1,-1.373259425163269,0.6189438104629517,0.28921765089035034,-121.27685546875,1.15966796875,-164.73388671875
4.175675868988037,-148157373,0,0.9578388929367065,0.4877447783946991,-0.8988243937492371,293.64013671875,99.91455078125,182.373046875
4.195709943771362,-148157378,1,-1.343718409538269,0.6848617792129517,0.28726452589035034,-120.54443359375,2.13623046875,-123.291015625
4.195717096328735,-148157359,1,-1.287810206413269,0.7729965448379517,0.32535046339035034,-126.3427734375,3.35693359375,-95.5810546875
4.205492973327637,-148157354,0,0.7720478773117065,0.8986334800720215,-1.3477990627288818,320.556640625,135.7421875,187.43896484375
4.205594062805176,-148157335,0,0.6831806898117065,0.9452643394470215,-1.5201623439788818,273.13232421875,133.056640625,251.46484375
4.220307111740112,-148157340,1,-1.497038722038269,1.0054184198379517,0.7750574946403503,-124.93896484375,17.08984375,-65.49072265625
4.2204742431640625,-148157321,1,-1.577360987663269,1.3911606073379517,0.9337489008903503,-122.9248046875,4.08935546875,-29.35791015625
4.245438098907471,-148157316,0,0.8665302991867065,0.9367194175720215,-1.7503869533538818,245.42236328125,154.47998046875,251.0986328125
4.250787019729614,-148157302,1,-1.560271143913269,1.4604965448379517,1.0006434917449951,-126.5869140625,-12.87841796875,0.30517578125
4.2655510902404785,-148157297,0,1.2454365491867065,0.6349616050720215,-1.8526818752288818,242.3095703125,206.4208984375,158.26416015625
4.265711069107056,-148157278,0,0.9876240491867065,0.5568366050720215,-1.8878381252288818,184.38720703125,200.927734375,0.732421875
4.292421102523804,-148157283,1,-1.320525050163269,1.3853012323379517,1.0419032573699951,-99.853515625,-24.59716796875,28.13720703125
4.292432069778442,-148157264,1,-1.134978175163269,1.2976547479629517,0.9454676508903503,-65.91796875,-16.54052734375,39.55078125
4.297916889190674,-148157259,0,0.5606220960617065,0.5822272300720215,-1.7899377346038818,98.0224609375,119.81201171875,-91.24755859375
4.297924041748047,-148157240,0,0.38532912731170654,0.6154303550720215,-1.7225549221038818,20.99609375,20.1416015625,-141.17431640625
4.310726881027222,-148157245,1,-0.9909352660179138,1.1697250604629517,0.8597742915153503,-18.1884765625,12.3291015625,49.98779296875
4.325338840484619,-148157221,0,0.15608109533786774,0.7196784019470215,-1.7157189846038818,-57.92236328125,-41.259765625,-182.0068359375
4.3485119342803955,-148157226,1,-0.8576344847679138,1.0911117792129517,0.6874110102653503,70.6787109375,51.45263671875,49.86572265625
4.348520994186401,-148157207,1,-0.8503102660179138,1.2639633417129517,0.5135828852653503,113.28125,78.9794921875,62.07275390625
4.355438232421875,-148157202,0,0.05329788848757744,0.5802741050720215,-1.6605432033538818,-91.24755859375,-31.31103515625,-204.9560546875
4.355581998825073,-148157183,0,-0.09977827966213226,0.4596686065196991,-1.4569299221038818,-86.36474609375,-51.08642578125,-189.94140625
4.370512247085571,-148157188,1,-1.047819972038269,1.3823715448379517,0.36831921339035034,80.26123046875,72.6318359375,73.54736328125
4.395612955093384,-148157164,0,-0.08097945153713226,0.4486822783946991,-1.2643029689788818,-100.40283203125,-91.12548828125,-175.6591796875
4.402145147323608,-148157169,1,-0.9430837035179138,1.2656723260879517,0.29605358839035034,24.59716796875,42.41943359375,82.21435546875
4.415708065032959,-148157145,0,-0.04045211151242256,0.3541998565196991,-0.9950157999992371,-136.23046875,-167.48046875,-157.77587890625
4.443672180175781,-148157133,1,-0.7350758910179138,0.7368637323379517,0.42154186964035034,32.2265625,33.26416015625,104.1259765625
4.443680047988892,-148157114,1,-0.5605153441429138,0.5452133417129517,0.33999890089035034,102.4169921875,71.77734375,95.52001953125
4.4480462074279785,-148157109,0,0.03205765411257744,0.2672857940196991,-0.6849572062492371,-191.34521484375,-279.35791015625,-175.47607421875
4.4480531215667725,-148157090,0,-0.05387984588742256,0.2160162776708603,-0.47817009687423706,-177.18505859375,-333.31298828125,-184.50927734375
4.4622509479522705,-148157095,1,-0.6230153441429138,0.6504379510879517,0.30874890089035034,141.54052734375,95.458984375,93.75
4.477722883224487,-148157071,0,-0.012375939637422562,0.2279791682958603,-0.25844353437423706,-152.7099609375,-375.48828125,-176.1474609375
4.49973201751709,-148157076,1,-0.7001637816429138,0.7417465448379517,0.32242077589035034,137.39013671875,95.03173828125,97.65625
4.4997398853302,-148157057,1,-0.6830739378929138,0.6138168573379517,0.46084851026535034,92.8955078125,49.8046875,93.505859375
4.507418155670166,-148157052,0,0.02522171661257744,0.1427740901708603,-0.24794548749923706,-141.41845703125,-398.8037109375,-148.8037109375
4.507550001144409,-148157033,0,0.07014359533786774,0.10053776204586029,-0.17030876874923706,-108.0322265625,-400.2685546875,-142.2119140625
4.5216310024261475,-148157038,1,-0.5395192503929138,0.4475570619106293,0.5182215571403503,72.20458984375,6.34765625,74.8291015625
4.54488205909729,-148157014,0,0.14997757971286774,0.1962408870458603,-0.20033806562423706,-94.90966796875,-371.826171875,-111.75537109375
4.5554399490356445,-148157019,1,-0.36471453309059143,0.2817855775356293,0.44839733839035034,74.52392578125,-1.28173828125,51.8798828125
4.555450201034546,-148157000,1,-0.22970476746559143,0.19999846816062927,0.38760632276535034,98.08349609375,23.74267578125,20.08056640625
4.56721305847168,-148156995,0,0.27668654918670654,0.2091803401708603,-0.19911736249923706,-81.72607421875,-293.51806640625,-74.8291015625
4.567354917526245,-148156976,0,0.25373733043670654,0.2460455745458603,-0.13417595624923706,-52.490234375,-205.38330078125,-32.04345703125
4.5925939083099365,-148156981,1,-0.30245867371559143,0.2712875306606293,0.34024304151535034,122.802734375,48.88916015625,11.23046875
4.59260106086731,-148156962,1,-0.30734148621559143,0.3145004212856293,0.31021374464035034,131.65283203125,46.69189453125,9.765625
4.599953889846802,-148156957,0,0.24397172033786774,0.2919439971446991,0.04722052812576294,-15.7470703125,-119.20166015625,10.31494140625
4.612244129180908,-148156943,1,-0.34493914246559143,0.3462387025356293,0.19766491651535034,121.03271484375,30.45654296875,-7.4462890625
4.627093076705933,-148156938,0,0.27986037731170654,0.2995123565196991,0.24253302812576294,33.8134765625,-68.90869140625,56.33544921875
4.627173900604248,-148156919,0,0.33772170543670654,0.3129400908946991,0.26767951250076294,59.38720703125,-46.69189453125,78.61328125
4.647503137588501,-148156924,1,-0.34738054871559143,0.4023910462856293,0.09439343214035034,88.5009765625,-2.25830078125,-36.1328125
4.647510051727295,-148156905,1,-0.32980242371559143,0.4465804994106293,-0.04183703660964966,60.9130859375,-19.34814453125,-54.74853515625
4.655386924743652,-148156900,0,0.45075881481170654,0.3983893096446991,0.18369513750076294,73.79150390625,-21.728515625,86.36474609375
4.655473947525024,-148156881,0,0.28718459606170654,0.4774908721446991,0.06260138750076294,56.45751953125,33.69140625,92.4072265625
4.700160026550293,-148156869,1,-0.37106218934059143,0.5806137323379517,-0.22225695848464966,27.16064453125,-24.71923828125,-58.7158203125
4.7006940841674805,-148156850,1,-0.35885515809059143,0.6482406854629517,-0.32162219285964966,0.8544921875,-26.85546875,-58.837890625
4.715565204620361,-148156845,0,0.5865010023117065,0.2265143245458603,0.01450568437576294,-57.6171875,-60.9130859375,159.85107421875
4.715685844421387,-148156826,0,0.24787797033786774,0.3476080596446991,-0.02211540937423706,-100.76904296875,-48.9501953125,105.28564453125
4.741485118865967,-148156831,1,-0.39034929871559143,0.7024399042129517,-0.35775500535964966,-25.2685546875,-22.03369140625,-55.96923828125
4.741492033004761,-148156812,1,-0.42550554871559143,0.7197738885879517,-0.35189563035964966,-40.1611328125,-5.615234375,-51.69677734375
4.746556997299194,-148156807,0,0.20539750158786774,0.2897467315196991,-0.14809197187423706,-113.09814453125,-80.01708984375,52.55126953125
4.760939121246338,-148156793,1,-0.43014422059059143,0.7019516229629517,-0.31771594285964966,-43.88427734375,18.37158203125,-44.98291015625
4.775774002075195,-148156788,0,0.38850295543670654,0.3065924346446991,-0.15981072187423706,-75.0732421875,-33.5693359375,6.591796875
4.775799036026001,-148156769,0,0.47785842418670654,0.3075689971446991,-0.26405876874923706,23.86474609375,-34.24072265625,28.6865234375
4.795902967453003,-148156774,1,-0.47799578309059143,0.6860824823379517,-0.21981555223464966,-37.29248046875,40.10009765625,-43.27392578125
4.795909881591797,-148156755,1,-0.5212087035179138,0.7131820917129517,-0.14266711473464966,-33.14208984375,46.0205078125,-39.9169921875
4.805459976196289,-148156750,0,0.7674092054367065,0.6613287925720215,-0.6688439249992371,32.8369140625,-15.44189453125,40.10009765625
4.8055291175842285,-148156731,0,1.0242451429367065,1.0075201988220215,-0.7269493937492371,-5.615234375,-36.56005859375,73.2421875
4.820557117462158,-148156736,1,-0.5563649535179138,0.8193832635879517,-0.06503039598464966,-36.7431640625,47.8515625,-31.55517578125
4.845272064208984,-148156712,0,1.2488545179367065,1.3334479331970215,-1.4474084377288818,33.14208984375,-73.54736328125,190.61279296875
4.850580930709839,-148156717,1,-0.6613454222679138,0.7012192010879517,0.15005749464035034,-58.77685546875,33.75244140625,-37.353515625
4.850656986236572,-148156698,1,-0.6452321410179138,0.6562973260879517,0.25845593214035034,-54.19921875,-4.21142578125,-67.44384765625
4.865677118301392,-148156693,0,1.1695088148117065,1.9396491050720215,-2.108297109603882,163.818359375,-48.52294921875,158.38623046875
4.865736961364746,-148156674,0,1.5093525648117065,2.2838873863220215,-2.061422109603882,252.685546875,11.71875,33.38623046875
4.893517017364502,-148156679,1,-0.6532887816429138,0.6824203729629517,0.31460827589035034,-47.05810546875,-23.98681640625,-85.51025390625
4.8992600440979,-148156655,0,1.7041767835617065,2.5753912925720215,-2.274068593978882,215.6982421875,81.4208984375,19.8974609375
4.910598039627075,-148156660,1,-0.7118825316429138,0.8220688104629517,0.25039929151535034,-33.447265625,-22.15576171875,-78.369140625
4.910693883895874,-148156641,1,-0.7528981566429138,0.7898422479629517,0.28775280714035034,-35.888671875,-4.7607421875,-59.6923828125
4.925551176071167,-148156636,0,1.8582295179367065,2.6972174644470215,-2.607076406478882,189.02587890625,169.12841796875,82.1533203125
4.925655126571655,-148156617,0,1.7920674085617065,2.7062506675720215,-2.857564687728882,152.2216796875,281.92138671875,85.75439453125
4.949061870574951,-148156605,1,-0.8363942503929138,1.0891586542129517,-0.23275500535964966,-53.03955078125,4.8828125,-57.4951171875
4.955572128295898,-148156581,0,1.3684834241867065,2.6781744956970215,-3.033101797103882,-14.09912109375,449.76806640625,-17.51708984375
4.970769882202148,-148156586,1,-0.8141774535179138,0.4482894837856293,0.15689343214035034,-31.79931640625,28.9306640625,-56.2744140625
4.995948076248169,-148156562,0,0.9492939710617065,2.7506842613220215,-3.094136953353882,-57.06787109375,509.58251953125,-7.75146484375
5.0017311573028564,-148156567,1,-0.9218434691429138,0.9558578729629517,-0.03622180223464966,17.578125,61.21826171875,-50.537109375
5.00173807144165,-148156548,1,-1.023161768913269,0.8794418573379517,-0.11898547410964966,-15.0146484375,74.64599609375,-38.14697265625
5.015471935272217,-148156543,0,0.37190139293670654,3.0680670738220215,-3.129537343978882,-94.6044921875,558.10546875,38.75732421875
5.015552043914795,-148156524,0,-0.16349898278713226,3.0321784019470215,-3.189840078353882,-144.6533203125,565.0634765625,94.42138671875
5.043771028518677,-148156529,1,-1.009245753288269,0.8311020135879517,-0.22469836473464966,-30.029296875,82.8857421875,-35.5224609375
5.0482261180877686,-148156505,0,-0.45207321643829346,2.7160162925720215,-3.202535390853882,-180.96923828125,564.94140625,112.73193359375
5.060495138168335,-148156510,1,-1.062712550163269,0.7878891229629517,-0.31234484910964966,-36.31591796875,101.9287109375,-31.18896484375
5.0606300830841064,-148156491,1,-1.015105128288269,0.7300277948379517,-0.44369250535964966,-25.45166015625,131.40869140625,-23.13232421875
5.07553505897522,-148156486,0,-0.5944072008132935,2.4545416831970215,-3.048482656478882,-198.974609375,552.79541015625,117.0654296875
5.075605154037476,-148156467,0,-0.5756083726882935,2.0856451988220215,-2.783590078353882,-214.66064453125,521.6064453125,129.638671875
5.096532106399536,-148156472,1,-1.062468409538269,0.7280746698379517,-0.5396397709846497,-5.67626953125,173.76708984375,-2.50244140625
5.096591234207153,-148156453,1,-1.214079737663269,0.9343734979629517,-0.8186925053596497,2.5634765625,208.8623046875,7.568359375
5.105164051055908,-148156448,0,-0.5406962633132935,1.5241217613220215,-2.493062734603882,-207.45849609375,499.45068359375,138.18359375
5.120491981506348,-148156434,1,-1.442839503288269,0.9138656854629517,-1.0137608051300049,-79.04052734375,223.388671875,25.69580078125
5.145573139190674,-148156429,0,-0.33903610706329346,1.0485358238220215,-2.259176015853882,-189.697265625,497.4365234375,98.14453125
5.145581007003784,-148156410,0,-0.19865523278713226,0.7353034019470215,-1.9239709377288818,-181.7626953125,504.39453125,44.677734375
5.150490999221802,-148156415,1,-1.214568018913269,0.6103988885879517,-0.6748936772346497,-68.115234375,229.8583984375,7.62939453125
5.150578022003174,-148156396,1,-1.023405909538269,0.6138168573379517,-0.5735753178596497,-24.90234375,272.216796875,26.67236328125
5.165565013885498,-148156391,0,-0.23356734216213226,0.4350104033946991,-1.5152795314788818,-173.88916015625,510.31494140625,-1.953125
5.165639877319336,-148156372,0,-0.30387985706329346,0.3168463408946991,-1.0973107814788818,-145.20263671875,483.2763671875,-19.8974609375
5.1927900314331055,-148156377,1,-1.092009425163269,0.8694320917129517,-0.5972569584846497,10.31494140625,333.8623046875,58.7158203125
5.197433233261108,-148156353,0,-0.30827438831329346,0.2899908721446991,-0.8138634562492371,-100.03662109375,451.416015625,4.57763671875
5.2106921672821045,-148156341,1,-1.292448878288269,0.8484359979629517,-0.6280186772346497,-48.15673828125,386.53564453125,28.9306640625
5.225259065628052,-148156317,0,-0.29387009143829346,0.1437506526708603,-0.45326775312423706,-48.40087890625,387.39013671875,36.43798828125
5.245755910873413,-148156322,1,-1.319792628288269,0.8223129510879517,-0.47713977098464966,-92.4072265625,343.26171875,40.8935546875
5.245763063430786,-148156303,1,-1.018523097038269,0.6594711542129517,-0.49862414598464966,-123.53515625,329.7119140625,36.0107421875
5.25556206703186,-148156298,0,-0.18522749841213226,0.11103580892086029,-0.28774040937423706,-2.74658203125,339.111328125,57.80029296875
5.270309925079346,-148156284,1,-0.8979176878929138,0.5649887323379517,-0.47713977098464966,-101.13525390625,368.896484375,43.8232421875
5.294363975524902,-148156279,0,-0.09367476403713226,0.05537174269556999,-0.15468376874923706,42.17529296875,301.8798828125,76.84326171875
5.294373273849487,-148156260,0,-0.08561812341213226,0.04853580519556999,-0.08778923749923706,86.42578125,267.578125,88.92822265625
5.300509929656982,-148156265,1,-0.8551930785179138,0.6311508417129517,-0.42977648973464966,-55.6640625,420.22705078125,58.4716796875
5.300518035888672,-148156246,1,-0.8798512816429138,0.6648422479629517,-0.37338000535964966,-46.08154296875,448.73046875,59.2041015625
5.315551996231079,-148156241,0,-0.05534468963742256,0.09174869954586029,-0.11025017499923706,131.9580078125,230.46875,111.63330078125
5.315571069717407,-148156222,0,-0.05241500213742256,0.00044010207056999207,-0.12758415937423706,205.322265625,199.8291015625,100.09765625
5.344888210296631,-148156227,1,-0.8454274535179138,0.6470199823379517,-0.32308703660964966,-64.3310546875,447.69287109375,54.62646484375
5.348820924758911,-148156203,0,-0.05192672088742256,-0.06889583170413971,-0.12831658124923706,274.71923828125,214.78271484375,37.17041015625
5.362015008926392,-148156208,1,-0.7917165160179138,0.5798813104629517,-0.25912219285964966,-81.97021484375,436.6455078125,57.6171875
5.362080097198486,-148156189,1,-0.6547536253929138,0.4456039369106293,-0.18172961473464966,-93.56689453125,427.6123046875,69.3359375
5.377036094665527,-148156184,0,-0.15104781091213226,0.020947914570569992,-0.02724236249923706,348.9990234375,213.9892578125,-25.20751953125
5.377178907394409,-148156165,0,-0.19987593591213226,-0.019091147929430008,0.14658576250076294,388.0615234375,174.13330078125,-57.0068359375
5.396240949630737,-148156170,1,-0.5324391722679138,0.3196273744106293,-0.11434680223464966,-91.796875,421.08154296875,67.56591796875
5.39624810218811,-148156151,1,-0.38522234559059143,0.24028167128562927,-0.03573352098464966,-87.646484375,407.77587890625,63.29345703125
5.406882047653198,-148156146,0,-0.14518843591213226,0.2719244658946991,0.8096717000007629,244.56787109375,165.46630859375,-35.82763671875
5.4221179485321045,-148156132,1,-0.22604265809059143,0.17460784316062927,0.05581921339035034,-90.576171875,393.37158203125,62.07275390625
5.444332122802734,-148156127,0,-0.08854781091213226,-0.09501887857913971,0.04209357500076294,90.88134765625,131.40869140625,-7.4462890625
5.444339036941528,-148156108,0,-0.15153609216213226,-0.3784661591053009,0.09238654375076294,110.107421875,140.2587890625,-22.4609375
5.451905012130737,-148156113,1,-0.08541766554117203,0.09550628811120987,0.13028210401535034,-89.7216796875,374.755859375,53.22265625
5.466943979263306,-148156089,0,-0.21257124841213226,-0.3662591278553009,0.13706427812576294,167.236328125,121.76513671875,-34.66796875
5.4943318367004395,-148156077,1,0.015900693833827972,-0.04682769626379013,0.35586804151535034,-86.60888671875,346.98486328125,13.7939453125
5.498762130737305,-148156053,0,-0.24430952966213226,-0.2646966278553009,-0.10658806562423706,239.44091796875,116.63818359375,-54.87060546875
5.512261152267456,-148156058,1,-0.15255632996559143,-0.06562652438879013,0.5121180415153503,-75.25634765625,316.7724609375,-25.87890625
5.512392997741699,-148156039,1,-0.29415789246559143,0.05522308498620987,0.6463953852653503,-60.85205078125,254.150390625,-80.87158203125
5.527050971984863,-148156034,0,-0.37614548206329346,-0.2336907535791397,-0.14858025312423706,246.39892578125,125.79345703125,-37.29248046875
5.5271360874176025,-148156015,0,-0.48063766956329346,-0.2246575504541397,-0.23354119062423706,262.26806640625,137.14599609375,-12.6953125
5.546049118041992,-148156020,1,-0.21945086121559143,0.15947112441062927,0.6795985102653503,-55.84716796875,176.1474609375,-138.24462890625
5.5473432540893555,-148156001,1,-0.10909930616617203,0.17534026503562927,0.6617762446403503,-64.94140625,134.6435546875,-170.34912109375
5.557262182235718,-148155996,0,-0.5321513414382935,-0.2415032535791397,-0.29506462812423706,284.423828125,146.42333984375,11.5966796875
5.571915149688721,-148155982,1,0.26394757628440857,0.2849594056606293,0.7989832758903503,-81.6650390625,76.7822265625,-225.830078125
5.596359014511108,-148155977,0,-0.5301982164382935,-0.1592278629541397,-0.39101189374923706,300.78125,137.939453125,23.0712890625
5.596367120742798,-148155958,0,-0.6969462633132935,0.09663151204586029,-1.0931603908538818,329.77294921875,203.61328125,79.58984375
5.601969003677368,-148155963,1,-0.20553484559059143,0.01957855373620987,0.6539637446403503,-80.74951171875,67.56591796875,-291.44287109375
5.602088928222656,-148155944,1,-0.44576922059059143,0.12577971816062927,0.7743250727653503,-86.42578125,25.93994140625,-374.08447265625
5.617033004760742,-148155939,0,-0.6971904039382935,0.07685612142086029,-0.9759728312492371,345.76416015625,264.34326171875,139.09912109375
5.617127895355225,-148155920,0,-0.8092509508132935,0.2799811065196991,-0.8836876749992371,324.8291015625,182.67822265625,148.37646484375
5.644371032714844,-148155925,1,-0.6601247191429138,0.4556137025356293,0.8199793696403503,-109.2529296875,-71.96044921875,-432.861328125
5.650010824203491,-148155901,0,-0.6385966539382935,0.5521979331970215,-1.5572717189788818,298.095703125,54.6875,148.49853515625
5.662023067474365,-148155906,1,-0.6510915160179138,0.7383285760879517,0.6498133540153503,-167.724609375,-165.1611328125,-517.15087890625
5.66210412979126,-148155887,1,-0.9745778441429138,1.0732895135879517,0.6463953852653503,-245.849609375,-189.14794921875,-550.59814453125
5.679037094116211,-148155882,0,-0.06071578338742256,0.8744635581970215,-2.307760000228882,251.77001953125,-0.8544921875,182.80029296875
5.679049015045166,-148155863,0,0.45564162731170654,1.0023932456970215,-2.633687734603882,200.25634765625,38.0859375,217.46826171875
5.698089122772217,-148155868,1,-1.184538722038269,1.2002426385879517,0.8790614008903503,-294.677734375,-178.16162109375,-529.6630859375
5.707270860671997,-148155844,0,0.6079853773117065,1.0539069175720215,-2.526510000228882,163.14697265625,68.66455078125,212.40234375
5.722168207168579,-148155849,1,-1.467253565788269,1.3076645135879517,1.1500575542449951,-267.51708984375,-134.3994140625,-463.623046875
5.7445619106292725,-148155825,0,0.7840107679367065,1.1574225425720215,-2.384420156478882,136.77978515625,49.31640625,189.14794921875
5.751986980438232,-148155813,1,-1.876921534538269,1.7817856073379517,1.3817470073699951,-147.52197265625,-60.302734375,-244.32373046875
5.75209903717041,-148155794,1,-1.665739893913269,1.6755844354629517,1.3622157573699951,-51.3916015625,-42.3583984375,-119.62890625
5.767097234725952,-148155789,0,1.0879658460617065,1.0714850425720215,-2.195699453353882,66.40625,-52.42919921875,97.35107421875
5.7671849727630615,-148155770,0,1.0425556898117065,1.1024909019470215,-1.9832971096038818,8.544921875,-51.33056640625,57.4951171875
5.795642137527466,-148155775,1,-1.597624659538269,1.7529770135879517,1.1944911479949951,23.5595703125,-48.52294921875,-52.734375
5.800029993057251,-148155751,0,0.7124775648117065,1.0092291831970215,-1.6561486721038818,-34.5458984375,-48.4619140625,35.7666015625
5.812134027481079,-148155756,1,-1.373503565788269,1.6948715448379517,0.9271571040153503,33.02001953125,-70.00732421875,7.01904296875
5.812288999557495,-148155737,1,-1.237517237663269,1.4294906854629517,0.7303797602653503,43.3349609375,-63.232421875,44.921875
5.826970100402832,-148155732,0,0.6062763929367065,0.9357428550720215,-1.5711877346038818,-73.2421875,-71.35009765625,34.36279296875
5.827081918716431,-148155713,0,0.5159443616867065,0.7223639488220215,-1.3509728908538818,-113.8916015625,-96.5576171875,29.052734375
5.847958087921143,-148155718,1,-1.237028956413269,1.2827621698379517,0.5638758540153503,68.359375,-20.69091796875,102.05078125
5.855709075927734,-148155694,0,0.49030959606170654,0.6254401206970215,-1.3370568752288818,-146.66748046875,-95.15380859375,38.51318359375
5.870450019836426,-148155699,1,-1.255583643913269,1.1306625604629517,0.47989147901535034,81.54296875,14.5263671875,146.97265625
5.870575904846191,-148155680,1,-1.229948878288269,0.8901840448379517,0.42373913526535034,93.56689453125,37.65869140625,165.83251953125
5.895448207855225,-148155675,0,0.5811299085617065,0.4677252471446991,-1.4283654689788818,-171.81396484375,-89.90478515625,53.5888671875
5.895459175109863,-148155656,0,0.5059345960617065,0.3571295440196991,-1.2801721096038818,-197.81494140625,-77.880859375,36.0107421875
5.901121139526367,-148155661,1,-1.134978175163269,0.6899887323379517,0.36392468214035034,107.60498046875,59.38720703125,171.20361328125
5.9011290073394775,-148155642,1,-1.042693018913269,0.4651351869106293,0.39175671339035034,117.12646484375,83.67919921875,167.90771484375
5.915623903274536,-148155637,0,0.34284865856170654,0.2670416533946991,-1.0174767971038818,-217.7734375,-41.32080078125,-17.39501953125
5.945291996002197,-148155623,1,-0.8913258910179138,0.20927581191062927,0.49869030714035034,138.36669921875,106.4453125,160.94970703125
5.950939893722534,-148155618,0,0.24299515783786774,0.1671881526708603,-0.8072716593742371,-226.4404296875,-10.009765625,-69.7021484375
5.950947046279907,-148155599,0,0.12165726721286774,0.1994147151708603,-0.7030236124992371,-205.13916015625,2.74658203125,-72.3876953125
5.960521936416626,-148155604,1,-0.6672047972679138,0.08207855373620987,0.48477429151535034,185.85205078125,142.2119140625,150.634765625
5.960590124130249,-148155585,1,-0.5819997191429138,0.14067229628562927,0.28677624464035034,241.69921875,191.10107421875,130.7373046875
5.975229024887085,-148155580,0,0.09236039221286774,0.2042975276708603,-0.6468712687492371,-194.580078125,20.263671875,-87.646484375
5.975321054458618,-148155561,0,-0.03117476776242256,0.2152838557958603,-0.47133415937423706,-178.16162109375,32.28759765625,-97.5341796875
6.019554138183594,-148155549,1,-0.24191179871559143,0.12285003811120987,0.024080932140350342,228.1494140625,218.505859375,69.091796875
6.02068829536438,-148155530,1,0.07791241258382797,0.16410979628562927,-0.09310656785964966,204.77294921875,224.91455078125,24.59716796875
6.0507001876831055,-148155511,1,0.31253156065940857,0.20585784316062927,-0.10433703660964966,147.15576171875,241.69921875,-14.892578125
6.050823926925659,-148155492,1,0.46780499815940857,0.23124846816062927,-0.13485461473464966,93.505859375,265.2587890625,-40.22216796875
6.066020250320435,-148155525,0,-0.13542281091213226,0.2284674495458603,-0.27821892499923706,-140.7470703125,50.29296875,-120.4833984375
6.066145181655884,-148155506,0,-0.22477827966213226,0.2414069026708603,-0.15395134687423706,-107.7880859375,50.35400390625,-120.42236328125
6.066179037094116,-148155487,0,-0.26310837268829346,0.2316412776708603,-0.06825798749923706,-81.23779296875,39.00146484375,-112.73193359375
6.071308135986328,-148155468,0,-0.29020798206329346,0.2616705596446991,-0.05727165937423706,-57.31201171875,11.04736328125,-114.3798828125
6.092627048492432,-148155473,1,0.5259104371070862,0.19951018691062927,-0.04012805223464966,40.8935546875,296.32568359375,-61.82861328125
6.097582101821899,-148155449,0,-0.28361618518829346,0.2265143245458603,-0.04701775312423706,-41.19873046875,-10.986328125,-120.17822265625
6.112107038497925,-148155454,1,0.44900617003440857,0.13945159316062927,0.07217663526535034,15.0146484375,320.1904296875,-63.8427734375
6.112222909927368,-148155435,1,0.29641827940940857,0.13212737441062927,0.22940319776535034,-4.638671875,325.927734375,-57.06787109375
6.126955032348633,-148155430,0,-0.25822556018829346,0.2707037627696991,-0.08241814374923706,-27.2216796875,-26.55029296875,-124.755859375
6.127079963684082,-148155411,0,-0.25309860706329346,0.2746100127696991,-0.09633415937423706,-18.12744140625,-29.1748046875,-121.9482421875
6.149178981781006,-148155416,1,0.22464093565940857,0.23539885878562927,0.37906140089035034,-29.78515625,303.77197265625,-39.97802734375
6.155523061752319,-148155392,0,-0.36955368518829346,0.2863287627696991,-0.09535759687423706,-6.7138671875,-37.17041015625,-112.60986328125
6.171655893325806,-148155397,1,0.12747296690940857,0.3057113587856293,0.5592371821403503,-72.6318359375,272.4609375,-24.84130859375
6.171776056289673,-148155378,1,0.04031475633382797,0.2812972962856293,0.6649500727653503,-122.6806640625,236.4501953125,-23.3154296875
6.195760011672974,-148155373,0,-0.43693649768829346,0.2931647002696991,-0.08949822187423706,20.263671875,-31.55517578125,-89.53857421875
6.1966941356658936,-148155354,0,-0.44865524768829346,0.2562994658946991,-0.08241814374923706,54.74853515625,-9.6435546875,-59.326171875
6.203839063644409,-148155359,1,-0.019499696791172028,0.08671722561120987,0.7706629633903503,-181.2744140625,177.001953125,-75.25634765625
6.2038469314575195,-148155340,1,-0.05807391554117203,-0.12202300876379013,1.0104091167449951,-208.3740234375,111.81640625,-145.44677734375
6.2173449993133545,-148155335,0,-0.44181931018829346,0.2309088557958603,-0.08803337812423706,81.11572265625,3.84521484375,-53.89404296875
6.243272066116333,-148155321,1,-0.12325946241617203,-0.24946442246437073,1.1398036479949951,-211.669921875,57.18994140625,-202.880859375
6.249531030654907,-148155316,0,-0.5775614976882935,0.2396979182958603,-0.15004509687423706,96.86279296875,-5.615234375,-83.55712890625
6.24953818321228,-148155297,0,-0.7511454820632935,0.3056158721446991,-0.24306267499923706,100.40283203125,-46.08154296875,-122.86376953125
6.260568141937256,-148155285,1,-0.9333180785179138,-0.13789215683937073,1.1124598979949951,-237.1826171875,-11.71875,-354.3701171875
6.277041912078857,-148155261,0,-0.7274638414382935,0.2812018096446991,-0.5274865031242371,98.69384765625,-101.25732421875,-156.25
6.301254987716675,-148155266,1,-1.674284815788269,-0.07173004001379013,1.4000575542449951,-302.18505859375,-27.40478515625,-456.11572265625
6.3067920207977295,-148155242,0,-0.6542216539382935,0.2501959502696991,-0.7882286906242371,100.89111328125,-78.79638671875,-161.376953125
6.322088003158569,-148155247,1,-2.6012868881225586,0.04594574123620987,2.118319272994995,-348.44970703125,-59.50927734375,-466.73583984375
6.322104215621948,-148155228,1,-3.2890310287475586,0.04423675686120987,2.787997007369995,-299.31640625,-113.28125,-383.9111328125
6.346760988235474,-148155223,0,-0.6532450914382935,0.2633795440196991,-0.9618126749992371,109.06982421875,-28.13720703125,-155.8837890625
6.347641229629517,-148155204,0,-0.7780009508132935,0.4528326690196991,-1.0560510158538818,116.5771484375,45.166015625,-112.1826171875
6.352059841156006,-148155209,1,-3.4980154037475586,-0.02119293063879013,2.714022397994995,-186.6455078125,-176.6357421875,-274.71923828125
6.352116107940674,-148155190,1,-3.3754568099975586,-0.07270660251379013,2.641512632369995,-129.39453125,-218.505859375,-240.05126953125
6.3667731285095215,-148155185,0,-0.7733622789382935,0.3764166533946991,-1.0511682033538818,120.05615234375,101.37939453125,-37.41455078125
6.392998933792114,-148155171,1,-3.2524099349975586,-0.10273589938879013,2.563631772994995,-99.91455078125,-269.59228515625,-239.1357421875
6.396997928619385,-148155166,0,-0.7513896226882935,0.2731451690196991,-1.0548303127288818,135.1318359375,112.060546875,-13.427734375
6.397006034851074,-148155147,0,-0.6522685289382935,0.2875494658946991,-1.1939904689788818,151.55029296875,97.96142578125,-38.9404296875
6.414623022079468,-148155152,1,-3.1259450912475586,-0.14008942246437073,2.330965757369995,-65.73486328125,-330.810546875,-232.666015625
6.414634943008423,-148155133,1,-2.8827810287475586,-0.23408356308937073,2.116366147994995,-34.66796875,-365.90576171875,-212.82958984375
6.4270241260528564,-148155128,0,-0.49406540393829346,0.4877447783946991,-1.5604455471038818,156.43310546875,112.48779296875,-73.18115234375
6.4487810134887695,-148155114,1,-2.7995290756225586,-0.4054702818393707,2.024325132369995,10.3759765625,-371.58203125,-216.064453125
6.458708047866821,-148155109,0,-0.5299540758132935,0.7047858238220215,-1.8177697658538818,163.9404296875,191.162109375,-69.4580078125
6.45871901512146,-148155090,0,-0.7550517320632935,0.5453619956970215,-1.6227014064788818,164.0625,207.94677734375,-38.6962890625
6.471935987472534,-148155095,1,-2.9506521224975586,-0.3566421568393707,1.9930751323699951,65.61279296875,-394.4091796875,-226.25732421875
6.472062110900879,-148155076,1,-3.0346364974975586,-0.3144058287143707,1.8378016948699951,105.1025390625,-436.03515625,-230.28564453125
6.496303081512451,-148155071,0,-1.1151591539382935,0.5163092613220215,-1.2686975002288818,177.8564453125,85.9375,-46.9970703125
6.496311187744141,-148155052,0,-1.2130595445632935,0.9137701988220215,-1.2884728908538818,161.0107421875,-99.42626953125,-28.564453125
6.503749132156372,-148155057,1,-2.9809255599975586,-0.5170425176620483,1.4769618511199951,122.314453125,-479.3701171875,-270.8740234375
6.5172202587127686,-148155033,0,-1.4381572008132935,0.7394537925720215,-1.5829064846038818,61.58447265625,-80.56640625,119.0185546875
6.542959928512573,-148155021,1,-2.5404958724975586,-0.3800796568393707,0.8487879633903503,205.50537109375,-493.10302734375,-316.22314453125
6.549584865570068,-148154997,0,-1.6703349351882935,0.013867836445569992,-0.6820275187492371,62.5,30.94482421875,328.7353515625
6.561283111572266,-148155002,1,-2.0402517318725586,-0.3278335630893707,0.48550671339035034,194.3359375,-476.74560546875,-335.8154296875
6.561330080032349,-148154983,1,-1.681120753288269,-0.4040054380893707,0.36075085401535034,209.5947265625,-442.56591796875,-325.1953125
6.5770509243011475,-148154978,0,-1.6793681383132935,-0.1328606754541397,0.03867560625076294,108.58154296875,-124.755859375,371.88720703125
6.5993170738220215,-148154964,1,-1.165007472038269,-0.4164566099643707,0.21353405714035034,226.806640625,-380.31005859375,-327.63671875
6.607034921646118,-148154959,0,-1.4742900133132935,-0.09135676920413971,-0.5045372843742371,67.19970703125,-322.08251953125,358.94775390625
6.607129096984863,-148154940,0,-0.8822489976882935,-0.4763665497303009,-1.0206506252288818,15.625,-339.4775390625,391.78466796875
6.621909141540527,-148154945,1,-0.8864430785179138,-0.14887848496437073,0.017244994640350342,245.849609375,-301.45263671875,-309.63134765625
6.621999979019165,-148154926,1,-0.7126149535179138,-0.06709136813879013,0.12320202589035034,236.9384765625,-230.224609375,-282.5927734375
6.647284030914307,-148154921,0,-0.5250712633132935,-0.5732903480529785,-0.9703575968742371,69.3359375,-276.67236328125,394.10400390625
6.647290945053101,-148154902,0,-0.33342087268829346,-0.4145989716053009,-1.0614221096038818,70.73974609375,-263.5498046875,353.21044921875
6.652109146118164,-148154907,1,-0.6027516722679138,-0.01142730563879013,0.20840710401535034,237.60986328125,-191.89453125,-253.23486328125
6.665424108505249,-148154883,0,-0.41325485706329346,-0.2270989567041397,-0.9320275187492371,27.34375,-285.09521484375,316.89453125
6.6942150592803955,-148154888,1,-0.5107106566429138,0.06791839748620987,0.13907116651535034,233.21533203125,-164.00146484375,-230.28564453125
6.694226026535034,-148154869,1,-0.34176531434059143,0.19584807753562927,0.15542858839035034,224.79248046875,-133.97216796875,-214.84375
6.698399066925049,-148154864,0,-0.39543259143829346,-0.2336907535791397,-0.8380333781242371,23.25439453125,-306.884765625,316.46728515625
6.698405981063843,-148154845,0,-0.32951462268829346,-0.10478450357913971,-0.8390099406242371,29.84619140625,-291.1376953125,326.416015625
6.711865186691284,-148154850,1,-0.28488054871559143,0.19658049941062927,0.21914929151535034,208.0078125,-93.3837890625,-187.1337890625
6.711932897567749,-148154831,1,-0.27731218934059143,0.20951995253562927,0.22915905714035034,203.369140625,-70.068359375,-172.79052734375
6.727041006088257,-148154826,0,-0.25676071643829346,0.020215492695569992,-0.7794396281242371,33.69140625,-240.6005859375,366.27197265625
6.748136043548584,-148154812,1,-0.31808367371559143,0.2769027650356293,0.27969616651535034,191.58935546875,-69.9462890625,-147.94921875
6.761258125305176,-148154807,0,-0.15178023278713226,-0.07597590982913971,-0.6729943156242371,30.57861328125,-201.23291015625,391.845703125
6.761267900466919,-148154788,0,-0.05021773651242256,-0.018602866679430008,-0.5699669718742371,22.4609375,-194.9462890625,349.853515625
6.770343065261841,-148154793,1,-0.27194109559059143,0.2681137025356293,0.27481335401535034,174.13330078125,-77.5146484375,-130.9814453125
6.7950279712677,-148154769,0,-0.05558883026242256,0.05927799269556999,-0.5077111124992371,-2.0751953125,-211.7919921875,295.47119140625
6.802175045013428,-148154757,1,0.8474436402320862,-0.4452652037143707,-1.4454014301300049,126.8310546875,128.96728515625,-151.85546875
6.817207098007202,-148154733,0,-0.28947556018829346,0.3214850127696991,0.41977912187576294,-38.26904296875,62.07275390625,332.70263671875
6.8425679206848145,-148154738,1,-0.5749196410179138,-0.03364410251379013,0.39126843214035034,177.30712890625,112.548828125,-149.47509765625
6.84257698059082,-148154719,1,-0.46603289246559143,0.17802581191062927,0.45645397901535034,177.734375,42.05322265625,-96.74072265625
6.846958160400391,-148154714,0,-0.21916304528713226,0.1652350276708603,-0.10658806562423706,-65.49072265625,-211.5478515625,297.91259765625
6.846965074539185,-148154695,0,0.29255568981170654,0.2045416682958603,-0.26967400312423706,-25.08544921875,-145.32470703125,272.5830078125
6.8621602058410645,-148154700,1,-0.6632985472679138,0.3599105775356293,-0.45077258348464966,48.03466796875,-47.18017578125,-152.2216796875
6.862251043319702,-148154681,1,-0.44259539246559143,0.4480453431606293,0.0016199946403503418,-102.60009765625,-144.53125,-139.70947265625
6.876283884048462,-148154676,0,0.31428420543670654,-0.08183528482913971,0.30600959062576294,-35.94970703125,-156.005859375,281.43310546875
6.898736953735352,-148154662,1,-0.6042165160179138,-0.11982574313879013,-0.06088000535964966,-115.78369140625,-89.2333984375,-121.2158203125
6.906138896942139,-148154657,0,0.5215595960617065,-0.1648430973291397,0.01304084062576294,11.90185546875,-170.22705078125,277.4658203125
6.9061970710754395,-148154638,0,0.8411396741867065,-0.08281184732913971,-0.13515251874923706,72.3876953125,-104.55322265625,256.77490234375
6.922016143798828,-148154643,1,-0.24703875184059143,0.15898284316062927,-0.12875109910964966,-71.35009765625,-66.71142578125,-149.71923828125
6.922136068344116,-148154624,1,-0.5082692503929138,0.5969711542129517,-0.13241320848464966,-68.603515625,-16.11328125,-159.60693359375
6.947432994842529,-148154619,0,0.7110127210617065,-0.07060481607913971,-0.07362908124923706,129.08935546875,-43.701171875,204.4677734375
6.947439908981323,-148154600,0,0.6851338148117065,0.03535221144556999,-0.17128533124923706,155.2734375,-55.11474609375,158.203125
6.952383995056152,-148154605,1,-0.7555837035179138,0.5000473260879517,-0.07674914598464966,-84.9609375,7.87353515625,-139.22119140625
6.966953992843628,-148154581,0,0.6358174085617065,0.11836002767086029,-0.36025017499923706,169.73876953125,-66.162109375,152.587890625
6.993211984634399,-148154586,1,-0.9294118285179138,0.5647445917129517,0.05850476026535034,-112.36572265625,-5.615234375,-135.009765625
6.9932191371917725,-148154567,1,-0.8988942503929138,0.5205551385879517,0.10586804151535034,-129.82177734375,-39.85595703125,-136.77978515625
6.997387170791626,-148154562,0,0.9004658460617065,0.3058600127696991,-0.5540978312492371,211.181640625,-47.8515625,176.26953125
6.99739408493042,-148154543,0,0.8147724866867065,0.6220221519470215,-0.7689415812492371,258.30078125,-9.09423828125,159.24072265625
7.011986017227173,-148154548,1,-0.7697438597679138,0.6099106073379517,-0.03963977098464966,-134.82666015625,-41.259765625,-153.25927734375
7.026978015899658,-148154524,0,0.6890400648117065,0.8146491050720215,-1.0616662502288818,272.15576171875,19.71435546875,178.77197265625
7.0492470264434814,-148154529,1,-0.9723805785179138,0.7991195917129517,0.33951061964035034,-113.95263671875,4.57763671875,-156.92138671875
7.057336091995239,-148154505,0,0.9134052991867065,1.0795416831970215,-1.3075158596038818,288.818359375,60.24169921875,197.75390625
7.072288990020752,-148154493,1,-1.385710597038269,1.4543930292129517,0.5863367915153503,-58.59375,23.8037109375,-90.27099609375
7.0723490715026855,-148154474,1,-1.264616847038269,1.8035141229629517,0.5865809321403503,-56.57958984375,15.0146484375,-66.34521484375
7.097431182861328,-148154469,0,1.0559834241867065,1.0854010581970215,-1.8109338283538818,321.533203125,197.509765625,123.779296875
7.0974390506744385,-148154450,0,1.1865986585617065,1.0792975425720215,-2.421529531478882,276.79443359375,201.416015625,61.34033203125
7.102032899856567,-148154455,1,-1.336882472038269,2.019578456878662,0.6903406977653503,-40.1611328125,14.34326171875,-28.86962890625
7.117370128631592,-148154431,0,0.6968525648117065,0.3798346221446991,-2.011373281478882,125.67138671875,96.98486328125,-48.095703125
7.145034074783325,-148154436,1,-1.351775050163269,2.406541347503662,0.6361414790153503,-102.35595703125,20.751953125,0.42724609375
7.145040988922119,-148154417,1,0.022248350083827972,-1.1439956426620483,1.6266200542449951,49.9267578125,-78.857421875,-179.3212890625
7.149863958358765,-148154412,0,1.0071552991867065,0.5216803550720215,-1.8033654689788818,71.2890625,-34.24072265625,-177.3681640625
7.149871826171875,-148154393,0,0.7354267835617065,0.5827155113220215,-2.051168203353882,-12.63427734375,-39.794921875,-238.1591796875
7.162274122238159,-148154398,1,-0.6803883910179138,2.780076503753662,0.37173718214035034,122.0703125,109.619140625,-73.3642578125
7.176389217376709,-148154374,0,0.31159865856170654,0.5863776206970215,-1.7127892971038818,-71.6552734375,-16.357421875,-227.23388671875
7.1979820728302,-148154379,1,-1.439177393913269,1.7769027948379517,0.46109265089035034,101.50146484375,144.6533203125,101.74560546875
7.1979899406433105,-148154360,1,-1.187712550163269,1.2451645135879517,0.22329968214035034,65.7958984375,48.03466796875,25.5126953125
7.206992864608765,-148154355,0,-0.06315718591213226,0.6581549644470215,-1.3565881252288818,-124.267578125,-29.60205078125,-183.77685546875
7.207100868225098,-148154336,0,-0.14470015466213226,0.5321784019470215,-1.0677697658538818,-156.6162109375,-89.90478515625,-146.17919921875
7.222059011459351,-148154341,1,-0.6962575316429138,1.3208481073379517,-0.023282349109649658,95.8251953125,62.07275390625,26.06201171875
7.222123146057129,-148154322,1,-0.7817067503929138,1.1479965448379517,-0.005704224109649658,118.0419921875,129.69970703125,84.65576171875
7.246258020401001,-148154317,0,-0.06340132653713226,0.3827643096446991,-1.0223596096038818,-186.82861328125,-154.9072265625,-126.77001953125
7.252126932144165,-148154303,1,-0.8466481566429138,0.8860336542129517,0.05264538526535034,128.0517578125,145.32470703125,91.552734375
7.266991138458252,-148154298,0,0.08283890783786774,0.2323736995458603,-0.8387657999992371,-184.75341796875,-180.11474609375,-116.0888671875
7.267074108123779,-148154279,0,0.03523148223757744,0.1911139339208603,-0.6551720499992371,-218.994140625,-190.7958984375,-96.13037109375
7.291727066040039,-148154284,1,-0.7421559691429138,0.8672348260879517,0.023348510265350342,122.4365234375,141.7236328125,74.951171875
7.2917351722717285,-148154265,1,-0.7922047972679138,0.7185531854629517,0.05435436964035034,108.3984375,148.37646484375,81.97021484375
7.297613143920898,-148154260,0,0.02082718536257744,-0.016161460429430008,-0.39101189374923706,-213.0126953125,-223.9990234375,-86.0595703125
7.29764199256897,-148154241,0,0.04402054473757744,0.017774086445569992,-0.24721306562423706,-191.22314453125,-253.0517578125,-58.10546875
7.345295190811157,-148154229,1,-0.7223805785179138,0.5444809198379517,0.09390515089035034,119.384765625,108.5205078125,89.4775390625
7.345304012298584,-148154210,1,-0.5956715941429138,0.4768539369106293,0.09829968214035034,116.88232421875,87.34130859375,67.32177734375
7.357248067855835,-148154205,0,0.20124711096286774,-0.09282161295413971,-0.13588494062423706,-125.1220703125,-255.92041015625,-59.38720703125
7.357331991195679,-148154186,0,0.26594436168670654,-0.005663413554430008,0.01474982500076294,-102.23388671875,-227.1728515625,-45.2880859375
7.371906042098999,-148154191,1,-0.5390309691429138,0.4753890931606293,0.13345593214035034,99.2431640625,61.5234375,48.40087890625
7.37203311920166,-148154172,1,-0.47872820496559143,0.4119125306606293,0.11661022901535034,78.857421875,36.80419921875,34.7900390625
7.3936851024627686,-148154167,0,0.22712601721286774,-0.04741146042943001,0.12632209062576294,-88.9892578125,-217.6513671875,-46.81396484375
7.4055821895599365,-148154153,1,-0.35739031434059143,0.3081527650356293,0.07681530714035034,55.72509765625,4.7607421875,6.34765625
7.4178619384765625,-148154148,0,0.26081740856170654,0.04243228957056999,0.21201545000076294,-71.10595703125,-225.03662109375,-35.70556640625
7.417953014373779,-148154129,0,0.34919631481170654,0.03242252394556999,0.24473029375076294,-52.79541015625,-239.44091796875,-63.720703125
7.442223072052002,-148154134,1,-0.26290789246559143,0.2686019837856293,0.007723510265350342,48.64501953125,-10.55908203125,-15.56396484375
7.442229986190796,-148154115,1,-0.23898211121559143,0.2837387025356293,-0.06747180223464966,54.01611328125,-4.08935546875,-27.099609375
7.450189113616943,-148154110,0,0.5259541273117065,0.12226627767086029,0.14365607500076294,-26.7333984375,-208.92333984375,-62.92724609375
7.450199127197266,-148154091,0,0.5427998304367065,0.1574225276708603,0.18100959062576294,6.9580078125,-153.62548828125,-45.7763671875
7.462146043777466,-148154096,1,-0.20870867371559143,0.2930160462856293,-0.10091906785964966,60.72998046875,6.4697265625,-32.470703125
7.4771270751953125,-148154072,0,0.6109150648117065,0.2077154964208603,0.22690802812576294,49.86572265625,-95.88623046875,-1.52587890625
7.498484134674072,-148154077,1,-0.24923601746559143,0.2700668275356293,-0.10213977098464966,66.10107421875,19.8974609375,-44.0673828125
7.498554944992065,-148154058,1,-0.28610125184059143,0.2622543275356293,-0.12606555223464966,75.8056640625,25.08544921875,-57.6171875
7.507066965103149,-148154053,0,0.8401631116867065,0.2299322932958603,0.05796271562576294,64.94140625,-46.5087890625,17.333984375
7.5071680545806885,-148154034,0,0.7595967054367065,0.4616217315196991,0.04575568437576294,51.8798828125,-24.658203125,102.47802734375
7.5220160484313965,-148154039,1,-0.29366961121559143,0.2637191712856293,-0.18050891160964966,71.533203125,17.15087890625,-76.66015625
7.522127151489258,-148154020,1,-0.37838640809059143,0.2900863587856293,-0.28939563035964966,56.5185546875,1.5869140625,-102.6611328125
7.546844959259033,-148154015,0,0.8101338148117065,0.4979986846446991,-0.02577751874923706,-8.056640625,-12.26806640625,140.869140625
7.55202317237854,-148154001,1,-0.43624773621559143,0.3145004212856293,-0.40170031785964966,38.39111328125,-16.41845703125,-109.0087890625
7.566864252090454,-148153996,0,1.0305927991867065,0.4972662627696991,-0.30751579999923706,-92.10205078125,16.29638671875,107.36083984375
7.566968202590942,-148153977,0,1.1951435804367065,0.4772467315196991,-0.8622032999992371,-39.6728515625,40.10009765625,41.68701171875
7.596189022064209,-148153965,1,-0.48385515809059143,0.3635726869106293,-0.6150792241096497,-36.56005859375,-28.3203125,-116.455078125
7.600883960723877,-148153941,0,1.3081806898117065,1.0128912925720215,-0.8553673624992371,149.96337890625,77.880859375,47.2412109375
7.6118340492248535,-148153946,1,-0.5895680785179138,0.2732406556606293,-0.5987218022346497,-58.89892578125,-11.29150390625,-116.2109375
7.62692403793335,-148153922,0,1.3506611585617065,1.2428717613220215,-1.0206506252288818,169.921875,78.0029296875,30.1513671875
7.646971940994263,-148153927,1,-0.7326344847679138,0.24076995253562927,-0.5901768803596497,-45.2880859375,13.427734375,-117.85888671875
7.646980047225952,-148153908,1,-0.8903493285179138,0.3162094056606293,-0.5579503178596497,-28.01513671875,29.72412109375,-122.86376953125
7.6570188999176025,-148153903,0,1.5591572523117065,1.4188971519470215,-1.3294885158538818,166.80908203125,80.26123046875,45.71533203125
7.6571221351623535,-148153884,0,1.6509541273117065,1.7328619956970215,-1.7542932033538818,165.8935546875,142.27294921875,76.96533203125
7.671919107437134,-148153889,1,-0.9794606566429138,0.4153304994106293,-0.5154698491096497,-16.29638671875,39.36767578125,-124.8779296875
7.672053098678589,-148153870,1,-1.101042628288269,0.5220199823379517,-0.45589953660964966,-13.18359375,51.20849609375,-114.07470703125
7.6941211223602295,-148153865,0,1.6699970960617065,2.0485358238220215,-1.9862267971038818,81.4208984375,207.33642578125,53.64990234375
7.702096939086914,-148153851,1,-1.216765284538269,0.5081039667129517,-0.41708117723464966,-6.28662109375,62.8662109375,-99.2431640625
7.717274904251099,-148153846,0,1.7322529554367065,2.5001959800720215,-2.171285390853882,-35.09521484375,235.77880859375,36.1328125
7.717525959014893,-148153827,0,1.5684345960617065,2.9091315269470215,-2.583394765853882,-126.28173828125,302.06298828125,76.59912109375
7.743609189987183,-148153832,1,-1.376189112663269,0.5207992792129517,-0.31332141160964966,22.3388671875,74.8291015625,-88.134765625
7.743617057800293,-148153813,1,-1.519011378288269,0.6218734979629517,-0.28573352098464966,48.40087890625,72.57080078125,-82.45849609375
7.748188018798828,-148153808,0,1.6062763929367065,2.6684088706970215,-2.727681875228882,-81.97021484375,389.0380859375,91.12548828125
7.762305021286011,-148153794,1,-1.549773097038269,0.7764145135879517,-0.28915148973464966,60.48583984375,59.814453125,-69.4580078125
7.775530099868774,-148153789,0,1.4373310804367065,2.7138190269470215,-2.862691640853882,-21.05712890625,441.0400390625,91.85791015625
7.7756218910217285,-148153770,0,1.1426533460617065,2.7223639488220215,-2.841939687728882,-30.33447265625,496.09375,70.12939453125
7.79570198059082,-148153775,1,-1.534392237663269,0.6946274042129517,-0.20077258348464966,60.48583984375,44.0673828125,-66.71142578125
7.79571008682251,-148153756,1,-1.361784815788269,0.6138168573379517,-0.28207141160964966,60.24169921875,23.01025390625,-76.72119140625
7.80534291267395,-148153751,0,0.6795185804367065,2.6613287925720215,-2.857320547103882,-83.1298828125,548.88916015625,44.25048828125
7.805437088012695,-148153732,0,0.10481156408786774,2.5680670738220215,-2.804586172103882,-130.9814453125,555.48095703125,31.31103515625
7.82045316696167,-148153737,1,-1.261687159538269,0.4717269837856293,-0.44369250535964966,60.6689453125,40.22216796875,-86.97509765625
7.842841148376465,-148153713,0,-0.24430952966213226,2.3661627769470215,-2.654683828353882,-163.75732421875,536.0107421875,50.537109375
7.850254058837891,-148153701,1,-1.265837550163269,0.5188461542129517,-0.8850987553596497,91.73583984375,122.49755859375,-107.97119140625
7.865337133407593,-148153677,0,-0.45280563831329346,1.5265631675720215,-2.073385000228882,-182.4951171875,485.7177734375,60.1806640625
7.895052194595337,-148153682,1,-1.652312159538269,0.9031234979629517,-1.5379307270050049,-34.0576171875,123.96240234375,-73.3642578125
7.895059108734131,-148153663,1,-1.040495753288269,-0.17597809433937073,-1.3138096332550049,-104.98046875,98.388671875,-79.58984375
7.8990089893341064,-148153658,0,-0.45622360706329346,1.1398444175720215,-1.7755334377288818,-173.33984375,463.9892578125,53.22265625
7.9104461669921875,-148153644,1,-0.24288836121559143,-0.5050796270370483,-1.4715244770050049,-29.60205078125,179.8095703125,-130.92041015625
7.928802013397217,-148153639,0,-0.47892868518829346,0.6891608238220215,-1.3985803127288818,-145.6298828125,442.626953125,50.9033203125
7.928813219070435,-148153620,0,-0.31657516956329346,0.2606939971446991,-1.0562951564788818,-109.80224609375,424.6826171875,32.1044921875
7.9475579261779785,-148153625,1,-0.8742360472679138,0.06743011623620987,-1.6021397113800049,-15.07568359375,284.11865234375,-108.7646484375
7.9475672245025635,-148153606,1,-1.134734034538269,0.04863128811120987,-1.3824131488800049,-127.0751953125,261.53564453125,-102.72216796875
7.955371141433716,-148153601,0,-0.22258101403713226,0.06513737142086029,-0.7806603312492371,-69.580078125,428.5888671875,-32.2265625
7.9554290771484375,-148153582,0,-0.22624312341213226,0.1420416682958603,-0.5582482218742371,-31.6162109375,418.27392578125,-42.54150390625
7.97298789024353,-148153587,1,-0.8974294066429138,-0.3136734068393707,-1.1473057270050049,-170.2880859375,249.3896484375,-131.28662109375
7.993227005004883,-148153563,0,-0.22697554528713226,0.2001471370458603,-0.35292595624923706,13.427734375,413.26904296875,-5.859375
8.000561952590942,-148153568,1,-1.097624659538269,0.12431488186120987,-0.8758214116096497,-134.58251953125,281.43310546875,-73.2421875
8.00060486793518,-148153549,1,-0.8041676878929138,0.14750823378562927,-0.7740147709846497,-162.78076171875,295.34912109375,-85.9375
8.016877174377441,-148153544,0,-0.18278609216213226,0.07197330892086029,-0.03920525312423706,53.7109375,380.859375,59.63134765625
8.016923904418945,-148153525,0,-0.14714156091213226,-0.030809897929430008,0.10483771562576294,78.30810546875,343.8720703125,83.984375
8.043318033218384,-148153530,1,-0.6752614378929138,0.03007660061120987,-0.7918370366096497,-194.82421875,324.3408203125,-117.00439453125
8.043324947357178,-148153511,1,-0.7201833128929138,0.00883636623620987,-0.7259190678596497,-219.17724609375,355.16357421875,-122.86376953125
8.04739785194397,-148153506,0,-0.18693648278713226,-0.03959896042943001,0.21860724687576294,132.62939453125,284.66796875,77.0263671875
8.062248945236206,-148153492,1,-0.8334645628929138,-0.17109528183937073,-0.5350010991096497,-239.74609375,349.42626953125,-120.2392578125
8.077122211456299,-148153487,0,-0.17595015466213226,0.1312994807958603,0.33164435625076294,224.12109375,214.05029296875,88.7451171875
8.077239036560059,-148153468,0,-0.14225874841213226,0.2843756377696991,0.37656623125076294,327.880859375,121.7041015625,134.94873046875
8.095641136169434,-148153473,1,-0.6935719847679138,-0.19575348496437073,-0.46151477098464966,-226.98974609375,334.04541015625,-120.361328125
8.105132102966309,-148153449,0,0.06599320471286774,0.3573736846446991,0.32822638750076294,365.17333984375,90.02685546875,131.40869140625
8.122261047363281,-148153437,1,-0.48556414246559143,0.06816253811120987,-0.28255969285964966,-197.998046875,369.7509765625,-126.3427734375
8.145047187805176,-148153413,0,0.40632522106170654,0.7809576988220215,0.5652869343757629,339.78271484375,-58.837890625,170.95947265625
8.151978015899658,-148153418,1,-0.34225359559059143,0.6709457635879517,0.13955944776535034,-192.9931640625,268.00537109375,-78.55224609375
8.152107000350952,-148153399,1,0.03543194383382797,0.13456878066062927,-0.15121203660964966,-269.95849609375,314.39208984375,-96.5576171875
8.167071104049683,-148153394,0,0.5122822523117065,-0.07329036295413971,0.16733771562576294,70.4345703125,38.4521484375,-14.6484375
8.167087078094482,-148153375,0,0.13825882971286774,0.1522955745458603,0.38974982500076294,8.30078125,54.38232421875,-61.03515625
8.194958209991455,-148153380,1,-0.6774587035179138,0.04911956936120987,0.05703991651535034,-295.22705078125,306.396484375,-86.12060546875
8.194969177246094,-148153361,1,-0.34957781434059143,-0.05244293063879013,0.28360241651535034,-293.212890625,251.64794921875,-43.3349609375
8.201218128204346,-148153356,0,0.16657914221286774,0.3163580596446991,0.29892951250076294,53.5888671875,23.37646484375,-52.001953125
8.211961030960083,-148153342,1,-0.11520282179117203,-0.11421050876379013,0.18008679151535034,-275.20751953125,220.21484375,-44.43359375
8.226870059967041,-148153337,0,0.23518265783786774,0.2101569026708603,0.21665412187576294,60.85205078125,21.728515625,-50.10986328125
8.22694706916809,-148153318,0,0.19221390783786774,0.11103580892086029,0.27158576250076294,67.0166015625,21.97265625,-66.10107421875
8.251251935958862,-148153323,1,-0.03634539991617203,-0.12031402438879013,0.07120007276535034,-250.0,198.79150390625,-68.603515625
8.251260995864868,-148153304,1,-0.04635516554117203,-0.08515777438879013,0.07486218214035034,-223.14453125,190.673828125,-82.03125
8.257561206817627,-148153299,0,-0.03361617401242256,0.05854557082056999,0.26157599687576294,77.33154296875,-6.89697265625,-85.14404296875
8.276127099990845,-148153285,1,0.06546124070882797,0.08183441311120987,0.10953015089035034,-176.8798828125,216.73583984375,-62.43896484375
8.295037984848022,-148153280,0,-0.14933882653713226,0.0006842426955699921,0.15513068437576294,93.07861328125,-42.3583984375,-85.14404296875
8.295045137405396,-148153261,0,-0.14933882653713226,-0.05937435105443001,0.02695685625076294,109.43603515625,-53.64990234375,-82.763671875
8.302009105682373,-148153266,1,0.023713193833827972,-0.04804839938879013,0.13980358839035034,-146.97265625,246.826171875,-39.55078125
8.302094221115112,-148153247,1,-0.09445086866617203,-0.10493316501379013,0.30435436964035034,-124.69482421875,250.30517578125,-43.76220703125
8.318054914474487,-148153242,0,-0.20475874841213226,-0.2598138153553009,-0.11952751874923706,117.431640625,-44.25048828125,-99.7314453125
8.318065881729126,-148153223,0,-0.38981735706329346,-0.3904290497303009,-0.22817009687423706,145.751953125,-19.59228515625,-140.13671875
8.34486198425293,-148153228,1,-0.10690204054117203,-0.2892593443393707,0.36294811964035034,-127.86865234375,223.57177734375,-81.97021484375
8.349395036697388,-148153204,0,-0.5607157945632935,-0.5364251136779785,-0.29042595624923706,164.00146484375,-21.8505859375,-203.43017578125
8.362230062484741,-148153209,1,0.13040265440940857,-0.5143569707870483,0.34707897901535034,-130.55419921875,204.4677734375,-195.1904296875
8.377146244049072,-148153185,0,-0.9230204820632935,-0.7747063636779785,-0.19984978437423706,173.03466796875,-48.40087890625,-265.07568359375
8.398181200027466,-148153173,1,-0.5307301878929138,-0.5270522832870483,0.7057215571403503,-103.94287109375,110.53466796875,-392.2119140625
8.398189067840576,-148153154,1,-0.43185320496559143,-0.8466323614120483,0.6644617915153503,-65.85693359375,68.42041015625,-469.970703125
8.4061918258667,-148153149,0,-1.4391337633132935,-1.1174798011779785,-0.9378868937492371,203.55224609375,-121.826171875,-401.123046875
8.422118902206421,-148153135,1,-0.6813649535179138,-1.0917495489120483,0.7115809321403503,16.6015625,50.59814453125,-566.22314453125
8.44570016860962,-148153130,0,-1.8441630601882935,-1.1201653480529785,-1.1627404689788818,274.84130859375,-36.9873046875,-383.60595703125
8.44570803642273,-148153111,0,-2.160813331604004,-1.4180169105529785,-1.2169396877288818,342.34619140625,15.380859375,-305.60302734375
8.453747987747192,-148153116,1,-1.604704737663269,-0.7555679082870483,0.6332117915153503,37.65869140625,-10.7421875,-681.94580078125
8.453758001327515,-148153097,1,-2.6437673568725586,-0.5414565801620483,0.7525965571403503,34.60693359375,-121.58203125,-798.40087890625
8.467319011688232,-148153092,0,-2.251389503479004,-1.6003899574279785,-1.5301721096038818,382.4462890625,5.126953125,-276.9775390625
8.46746015548706,-148153073,0,-2.486008644104004,-1.6755852699279785,-1.9930627346038818,389.58740234375,-38.87939453125,-308.4716796875
8.494017124176025,-148153078,1,-3.3913259506225586,-0.5014175176620483,0.8353602290153503,98.6328125,-171.44775390625,-801.26953125
8.499558925628662,-148153054,0,-2.488205909729004,-1.6360344886779785,-2.524556875228882,372.00927734375,-71.77734375,-369.62890625
8.510519027709961,-148153059,1,-3.9943532943725586,-0.5082534551620483,0.44815319776535034,338.623046875,-78.125,-692.0166015625
8.510612964630127,-148153040,1,-5.451628684997559,0.7937484979629517,-0.8101475834846497,615.53955078125,59.08203125,-496.9482421875
8.52695107460022,-148153035,0,-3.594895362854004,-2.4419426918029785,-2.814351797103882,321.71630859375,-26.7333984375,-336.0595703125
8.527056217193604,-148153016,0,-2.513352394104004,-1.3467278480529785,-3.116353750228882,359.68017578125,-45.22705078125,-388.61083984375
8.548683166503906,-148153021,1,-4.701140403747559,1.8157211542129517,-1.2088291645050049,467.95654296875,-19.95849609375,-387.63427734375
8.5486900806427,-148153002,1,-3.5104665756225586,0.9502426385879517,-0.8074620366096497,264.83154296875,-37.41455078125,-220.52001953125
8.557119131088257,-148152997,0,-2.825608253479004,-0.9868645668029785,-3.533345937728882,295.10498046875,1.0986328125,-313.8427734375
8.572076082229614,-148152983,1,-3.2836599349975586,0.24760589003562927,-0.8162510991096497,365.90576171875,26.123046875,-53.52783203125
8.594207048416138,-148152978,0,-2.618577003479004,-0.9412102699279785,-2.666646718978882,315.91796875,-72.08251953125,-161.68212890625
8.594213962554932,-148152959,0,-1.3776103258132935,-1.2222161293029785,-2.742086172103882,244.56787109375,-73.6083984375,-51.7578125
8.602056980133057,-148152964,1,-3.0309743881225586,0.4741683900356293,-1.2088291645050049,367.3095703125,89.599609375,-60.72998046875
8.602077007293701,-148152945,1,-3.2380056381225586,0.9185043573379517,-1.2000401020050049,295.71533203125,172.91259765625,23.37646484375
8.618863821029663,-148152940,0,-1.5199443101882935,-2.0269036293029785,-2.110738515853882,231.8115234375,-38.0859375,-43.64013671875
8.61887502670288,-148152921,0,-0.8956767320632935,-1.3992180824279785,-2.092183828353882,318.2373046875,-62.92724609375,-127.99072265625
8.662129878997803,-148152909,1,-2.9848318099975586,0.3262191712856293,-0.7181065678596497,162.59765625,107.91015625,103.21044921875
8.66214108467102,-148152890,1,-2.8893728256225586,0.5342270135879517,-0.5957921147346497,193.84765625,214.2333984375,163.51318359375
8.677189111709595,-148152885,0,-1.3929911851882935,-0.7344231605529785,-1.9110314846038818,318.05419921875,-22.5830078125,-153.50341796875
8.677326202392578,-148152866,0,-0.9410868883132935,-0.2405266910791397,-1.7254846096038818,347.7783203125,-0.18310546875,-45.47119140625
8.699452877044678,-148152871,1,-2.3002614974975586,0.4365707337856293,-0.49471789598464966,177.06298828125,281.06689453125,155.94482421875
8.699531078338623,-148152852,1,-2.0663747787475586,0.4736801087856293,-0.48153430223464966,146.484375,390.31982421875,180.11474609375
8.70799207687378,-148152847,0,-1.0199443101882935,-1.1907219886779785,-2.327047109603882,307.18994140625,63.232421875,52.67333984375
8.722135066986084,-148152833,1,-1.881560206413269,0.6941391229629517,-0.41122180223464966,78.06396484375,439.14794921875,211.36474609375
8.744940042495728,-148152828,0,-0.8700419664382935,-0.4937005341053009,-1.6776330471038818,321.35009765625,101.13525390625,70.3125
8.744949102401733,-148152809,0,-0.9357157945632935,-0.3589349091053009,-1.1905725002288818,341.36962890625,75.68359375,75.1953125
8.753275871276855,-148152814,1,-2.7131032943725586,0.16044768691062927,-0.05233508348464966,-37.90283203125,402.9541015625,236.51123046875
8.75328516960144,-148152795,1,-1.942839503288269,-0.3283218443393707,0.16861218214035034,-37.90283203125,341.24755859375,174.9267578125
8.76720118522644,-148152790,0,-0.5760966539382935,-0.6377434730529785,-1.0074670314788818,340.8203125,3.11279296875,46.0205078125
8.767311096191406,-148152771,0,-0.27726852893829346,-0.4058099091053009,-1.1224572658538818,278.74755859375,-33.26416015625,-41.8701171875
8.792707204818726,-148152776,1,-1.369597315788269,-0.16548004746437073,0.23208874464035034,21.97265625,372.0703125,172.66845703125
8.799130916595459,-148152752,0,-0.20109663903713226,-0.1697259098291397,-1.0597131252288818,236.63330078125,-35.0341796875,-66.22314453125
8.810472965240479,-148152757,1,-1.032927393913269,-0.01679839938879013,0.47867077589035034,76.59912109375,426.33056640625,150.57373046875
8.810553073883057,-148152738,1,-0.9252614378929138,0.2935043275356293,0.6197840571403503,75.50048828125,461.5478515625,96.25244140625
8.825382947921753,-148152733,0,-0.29899704456329346,0.1466803401708603,-0.8255822062492371,255.55419921875,53.89404296875,-4.8828125
8.825437068939209,-148152714,0,-0.6302958726882935,0.04292057082056999,-0.27650994062423706,309.26513671875,139.892578125,120.05615234375
8.84841513633728,-148152719,1,-1.321013331413269,0.4121566712856293,0.6786219477653503,50.59814453125,453.91845703125,109.31396484375
8.848422050476074,-148152700,1,-1.297087550163269,0.5427719354629517,0.7096278071403503,-5.7373046875,362.73193359375,140.68603515625
8.855398893356323,-148152695,0,-0.44792282581329346,-0.1648430973291397,-0.38442009687423706,307.31201171875,185.546875,211.48681640625
8.870437860488892,-148152681,1,-0.9235524535179138,0.22734221816062927,0.6149012446403503,-74.21875,254.2724609375,128.35693359375
8.896645069122314,-148152676,0,-0.30241501331329346,0.2511725127696991,-0.05971306562423706,244.5068359375,185.60791015625,199.15771484375
8.896651983261108,-148152657,0,-0.31071579456329346,-0.1728997379541397,0.41611701250076294,225.52490234375,96.8017578125,171.08154296875
8.900838851928711,-148152645,1,-0.35690203309059143,-0.3349136412143707,0.46670788526535034,-74.21875,189.63623046875,138.85498046875
8.915560007095337,-148152621,0,0.11335648596286774,-0.4651360809803009,0.12143927812576294,326.35498046875,-14.83154296875,180.60302734375
8.941958904266357,-148152626,1,-0.14669695496559143,-0.2592300474643707,0.33340710401535034,-54.5654296875,193.66455078125,134.3994140625
8.946882009506226,-148152602,0,0.26399123668670654,-0.2612786591053009,-0.25649040937423706,281.43310546875,51.8798828125,157.28759765625
8.963902950286865,-148152607,1,-0.07638446241617203,-0.13813629746437073,0.22769421339035034,-67.93212890625,194.88525390625,143.49365234375
8.963916063308716,-148152588,1,0.009308896958827972,-0.09223785251379013,0.09976452589035034,-122.13134765625,183.7158203125,166.19873046875
