sync_time,timestamp_ms,device_id,ax,ay,az,gx,gy,gz
0.008535146713256836,-148013253,1,-0.14547625184059143,-0.15449371933937073,1.0382411479949951,-12.6953125,21.8505859375,-4.08935546875
0.008547067642211914,-148013234,1,-0.14791765809059143,-0.14594879746437073,1.0394618511199951,-13.12255859375,25.0244140625,-2.99072265625
0.020580291748046875,-148013226,0,-0.31047165393829346,-0.2754388153553009,0.9810584187507629,4.0283203125,11.8408203125,4.638671875
0.04436206817626953,-148013215,1,-0.14474382996559143,-0.14497223496437073,1.0311610698699951,-12.26806640625,27.7099609375,-3.41796875
0.050698041915893555,-148013207,0,-0.32292282581329346,-0.2769036591053009,0.9798377156257629,5.55419921875,12.63427734375,6.4697265625
0.05081439018249512,-148013188,0,-0.32292282581329346,-0.2817864716053009,0.9849646687507629,5.2490234375,13.5498046875,5.67626953125
0.06551122665405273,-148013196,1,-0.14010515809059143,-0.14082184433937073,1.0387294292449951,-12.14599609375,27.34375,-3.5400390625
0.06564140319824219,-148013177,1,-0.14254656434059143,-0.15620270371437073,1.0472743511199951,-10.986328125,30.6396484375,-3.35693359375
0.09107708930969238,-148013169,0,-0.30973923206329346,-0.2817864716053009,0.9900916218757629,8.36181640625,16.05224609375,7.32421875
0.09108519554138184,-148013150,0,-0.32634079456329346,-0.2771477997303009,0.9976599812507629,9.27734375,20.1416015625,6.9580078125
0.09566521644592285,-148013158,1,-0.15133562684059143,-0.14936676621437073,1.0560634136199951,-9.82666015625,33.3251953125,-3.23486328125
0.11085104942321777,-148013131,0,-0.32585251331329346,-0.2978997528553009,0.9791052937507629,10.80322265625,22.705078125,7.26318359375
0.13978314399719238,-148013139,1,-0.16451922059059143,-0.15327301621437073,1.0475184917449951,-10.009765625,37.2314453125,-5.4931640625
0.13979125022888184,-148013120,1,-0.15182390809059143,-0.16670075058937073,1.0345790386199951,-8.544921875,41.68701171875,-5.2490234375
0.14323019981384277,-148013112,0,-0.31364548206329346,-0.2944817841053009,0.9722693562507629,12.63427734375,28.6865234375,8.30078125
0.1432361602783203,-148013093,0,-0.33854782581329346,-0.2749505341053009,0.9383338093757629,12.8173828125,33.3251953125,13.85498046875
0.15564632415771484,-148013101,1,-0.15499773621559143,-0.17158356308937073,1.0240809917449951,-8.97216796875,46.875,-1.8310546875
0.15578222274780273,-148013082,1,-0.15670672059059143,-0.16425934433937073,0.9818446040153503,-10.7421875,51.025390625,2.685546875
0.17069530487060547,-148013074,0,-0.34245407581329346,-0.2512688934803009,0.9192908406257629,10.1318359375,36.0107421875,19.47021484375
0.19030332565307617,-148013063,1,-0.17184343934059143,-0.14497223496437073,0.9618250727653503,-8.60595703125,50.35400390625,8.544921875
0.204301118850708,-148013055,0,-0.36076462268829346,-0.2512688934803009,0.9261267781257629,12.3291015625,33.26416015625,25.20751953125
0.20431113243103027,-148013036,0,-0.36784470081329346,-0.2375970035791397,0.9234412312507629,15.5029296875,29.23583984375,27.4658203125
0.215745210647583,-148013044,1,-0.18771257996559143,-0.11616363376379013,0.9706141352653503,-4.69970703125,47.91259765625,12.939453125
0.21584820747375488,-148013025,1,-0.21993914246559143,-0.09858550876379013,0.9877039790153503,-1.03759765625,46.81396484375,13.48876953125
0.23782920837402344,-148013017,0,-0.38127243518829346,-0.2114739567041397,0.9390662312507629,18.98193359375,28.99169921875,28.99169921875
0.2594790458679199,-148012998,0,-0.40837204456329346,-0.1978020817041397,0.9449256062507629,20.6298828125,27.52685546875,28.38134765625
0.2844531536102295,-148012989,1,-0.25704851746559143,-0.10029449313879013,0.9842860102653503,1.8310546875,46.2646484375,7.99560546875
0.28446102142333984,-148012970,1,-0.25631609559059143,-0.14423981308937073,0.9855067133903503,3.7841796875,35.888671875,10.31494140625
0.2915933132171631,-148012962,0,-0.47892868518829346,-0.2407708317041397,0.9471228718757629,22.705078125,16.9677734375,27.9541015625
0.29160022735595703,-148012943,0,-0.5028544664382935,-0.2725091278553009,0.9520056843757629,29.96826171875,2.8076171875,37.29248046875
0.30568599700927734,-148012951,1,-0.25021257996559143,-0.18256989121437073,0.9820887446403503,12.451171875,27.9541015625,21.240234375
0.3057982921600342,-148012932,1,-0.23678484559059143,-0.19990387558937073,1.0082118511199951,22.705078125,21.17919921875,32.28759765625
0.3203451633453369,-148012924,0,-0.46501266956329346,-0.2974114716053009,0.9734900593757629,35.09521484375,-8.30078125,48.64501953125
0.3412773609161377,-148012913,1,-0.22115984559059143,-0.17060700058937073,1.0489833354949951,32.53173828125,22.03369140625,43.5791015625
0.35073208808898926,-148012905,0,-0.41569626331329346,-0.2900872528553009,0.9886267781257629,43.02978515625,-11.16943359375,62.92724609375
0.3508260250091553,-148012886,0,-0.39421188831329346,-0.2607903778553009,0.9820349812507629,41.80908203125,-12.0849609375,66.22314453125
0.36548614501953125,-148012894,1,-0.21066179871559143,-0.15547028183937073,1.0731532573699951,32.89794921875,21.42333984375,50.23193359375
0.36559009552001953,-148012875,1,-0.20284929871559143,-0.14326325058937073,1.0577723979949951,28.1982421875,22.94921875,52.3681640625
0.3892652988433838,-148012867,0,-0.40544235706329346,-0.2463860660791397,1.0125524997711182,40.283203125,-6.89697265625,67.7490234375
0.3956170082092285,-148012856,1,-0.19918718934059143,-0.12910309433937073,1.0394618511199951,28.13720703125,22.94921875,52.91748046875
0.41072630882263184,-148012848,0,-0.40788376331329346,-0.2529778778553009,0.9913123250007629,37.109375,-11.962890625,67.87109375
0.4108431339263916,-148012829,0,-0.42521774768829346,-0.2744622528553009,1.0037634372711182,47.79052734375,-20.263671875,71.77734375
0.4377632141113281,-148012837,1,-0.22286882996559143,-0.11836089938879013,1.0143153667449951,37.65869140625,21.240234375,54.0771484375
0.43777012825012207,-148012818,1,-0.15963640809059143,-0.12422027438879013,1.0306727886199951,48.27880859375,9.6435546875,58.4716796875
0.4421522617340088,-148012810,0,-0.39225876331329346,-0.2600579559803009,1.0174353122711182,55.908203125,-24.2919921875,74.462890625
0.44225215911865234,-148012791,0,-0.38005173206329346,-0.2437005192041397,0.9991248250007629,58.65478515625,-41.56494140625,84.77783203125
0.45702123641967773,-148012799,1,-0.14669695496559143,-0.13105621933937073,1.0431239604949951,52.79541015625,4.33349609375,64.27001953125
0.45712995529174805,-148012780,1,-0.20040789246559143,-0.06196441501379013,1.0336024761199951,55.2978515625,6.28662109375,60.97412109375
0.48568010330200195,-148012772,0,-0.35734665393829346,-0.1838860660791397,1.0069372653961182,57.55615234375,-53.03955078125,89.41650390625
0.4897892475128174,-148012761,1,-0.15499773621559143,-0.02754058688879013,1.0487391948699951,51.8798828125,-13.18359375,63.8427734375
0.5029401779174805,-148012753,0,-0.32048141956329346,-0.1838860660791397,1.0208532810211182,59.63134765625,-55.419921875,86.181640625
0.5029482841491699,-148012734,0,-0.26701462268829346,-0.1709466129541397,1.0506384372711182,65.7958984375,-51.45263671875,82.275390625
0.5174200534820557,-148012725,1,-0.07540789991617203,0.08549652248620987,1.1222255229949951,52.8564453125,-21.8505859375,46.9970703125
0.5472021102905273,-148012706,1,-0.014128603041172028,0.13627776503562927,1.1627528667449951,51.69677734375,-7.080078125,31.982421875
0.5622351169586182,-148012698,0,-0.14054976403713226,-0.06132747605443001,1.1290075778961182,79.40673828125,-37.353515625,73.66943359375
0.5623211860656738,-148012679,0,-0.17106734216213226,0.029736977070569992,1.1028845310211182,66.5283203125,-28.3203125,64.697265625
0.585693359375,-148012687,1,0.03421124070882797,0.21733245253562927,1.1400477886199951,32.28759765625,12.02392578125,18.5546875
0.5857012271881104,-148012668,1,-0.28341570496559143,0.02250824123620987,1.0421473979949951,12.451171875,27.2216796875,11.77978515625
0.5946972370147705,-148012660,0,-0.15226851403713226,-0.021776694804430008,1.0464880466461182,24.169921875,-21.30126953125,69.76318359375
0.5947041511535645,-148012641,0,-0.09074507653713226,-0.06230403855443001,1.0059607028961182,27.89306640625,-24.0478515625,53.466796875
0.6057002544403076,-148012649,1,0.04226788133382797,0.01786956936120987,1.1393153667449951,20.751953125,27.099609375,-1.64794921875
0.6058192253112793,-148012630,1,0.13455304503440857,0.04863128811120987,1.1239345073699951,6.34765625,-1.3427734375,-25.57373046875
0.6209940910339355,-148012622,0,0.04524124786257744,0.002149086445569992,1.1946814060211182,25.20751953125,-26.85546875,72.6318359375
0.642038106918335,-148012611,1,0.43289288878440857,0.23466643691062927,1.1930263042449951,-3.7841796875,2.5634765625,75.62255859375
0.6506752967834473,-148012603,0,-0.11149702966213226,-0.013720054179430008,1.0784704685211182,18.4326171875,3.90625,79.7119140625
0.6508221626281738,-148012584,0,-0.10026656091213226,0.1693854182958603,0.9180701375007629,29.78515625,11.90185546875,72.1435546875
0.6657042503356934,-148012592,1,-0.19454851746559143,0.3101058900356293,0.8893153071403503,26.67236328125,89.29443359375,64.63623046875
0.6658413410186768,-148012573,1,-0.09030047804117203,0.3276840150356293,0.9349696040153503,8.60595703125,26.2451171875,44.189453125
0.6920351982116699,-148012565,0,-0.13371382653713226,0.1632819026708603,0.9275916218757629,32.40966796875,-15.13671875,57.12890625
0.6961719989776611,-148012554,1,-0.18746843934059143,0.24882659316062927,0.7535731196403503,12.6953125,85.26611328125,72.57080078125
0.7106301784515381,-148012546,0,-0.06462202966213226,0.1850104182958603,0.9463904500007629,19.287109375,-27.16064453125,54.8095703125
0.710719108581543,-148012527,0,0.13044632971286774,0.2060065120458603,1.1265661716461182,16.17431640625,-60.11962890625,102.4169921875
0.7385320663452148,-148012535,1,0.19265851378440857,0.2573715150356293,1.1534755229949951,-26.4892578125,7.50732421875,73.3642578125
0.7385411262512207,-148012516,1,0.15408429503440857,0.3425765931606293,1.1195399761199951,-10.80322265625,55.6640625,74.76806640625
0.7427992820739746,-148012508,0,0.18879593908786774,0.2245611995458603,1.0677282810211182,0.67138671875,-40.1611328125,102.96630859375
0.7558002471923828,-148012497,1,-0.12057391554117203,0.4963851869106293,1.1727626323699951,-49.62158203125,67.2607421875,77.08740234375
0.7705919742584229,-148012489,0,0.10261429846286774,0.4005865752696991,1.1224157810211182,7.080078125,-7.9345703125,84.77783203125
0.7707192897796631,-148012470,0,-0.13322554528713226,0.2943854033946991,1.1314489841461182,1.5869140625,36.376953125,23.0712890625
0.7891862392425537,-148012461,1,-0.23507586121559143,0.23906096816062927,1.0860927104949951,-67.19970703125,61.767578125,46.56982421875
0.8004610538482666,-148012434,0,-0.29338181018829346,-0.08207942545413971,1.1866247653961182,26.30615234375,61.70654296875,2.74658203125
0.8156530857086182,-148012442,1,-0.32491961121559143,0.08989105373620987,1.1742274761199951,-52.6123046875,54.19921875,44.00634765625
0.815772294998169,-148012423,1,-0.31149187684059143,0.02592620998620987,1.2018153667449951,-66.5283203125,48.4619140625,56.94580078125
0.8371410369873047,-148012415,0,-0.29460251331329346,0.09467838704586029,1.2000524997711182,50.35400390625,48.4619140625,54.5654296875
0.8497731685638428,-148012404,1,-0.21603289246559143,0.07743988186120987,1.0545985698699951,-79.833984375,47.9736328125,86.669921875
0.8622710704803467,-148012396,0,-0.24260054528713226,0.2768072783946991,1.1497595310211182,37.29248046875,42.05322265625,71.47216796875
0.8623731136322021,-148012377,0,-0.17863570153713226,0.2877936065196991,1.0921423435211182,23.193359375,28.80859375,70.4345703125
0.8869681358337402,-148012385,1,-0.27682390809059143,0.23393401503562927,0.9964930415153503,-104.00390625,54.13818359375,95.15380859375
0.8869760036468506,-148012366,1,-0.37448015809059143,0.3354965150356293,0.9664637446403503,-169.677734375,-2.74658203125,108.154296875
0.8977491855621338,-148012358,0,-0.06535445153713226,0.3000006377696991,1.1126501560211182,28.6865234375,11.53564453125,70.98388671875
0.9058670997619629,-148012347,1,-0.24703875184059143,0.3647933900356293,1.3072841167449951,-178.3447265625,-113.76953125,17.4560546875
0.9206173419952393,-148012339,0,-0.14177046716213226,0.3776373565196991,1.0857946872711182,29.11376953125,2.62451171875,61.4013671875
0.9206972122192383,-148012320,0,-0.19157515466213226,0.3817877471446991,1.0550329685211182,4.5166015625,-1.8310546875,37.7197265625
0.9414372444152832,-148012328,1,-0.23141375184059143,0.20219573378562927,1.0948817729949951,-189.63623046875,-161.376953125,-52.79541015625
0.9414472579956055,-148012309,1,0.09231670945882797,-0.09638824313879013,1.1534755229949951,-201.59912109375,-174.9267578125,-54.6875
0.9507651329040527,-148012301,0,-0.15641890466213226,0.3737311065196991,1.1072790622711182,-5.4931640625,-14.0380859375,16.41845703125
0.9508342742919922,-148012282,0,-0.17302046716213226,0.1869635432958603,1.0877478122711182,-5.06591796875,-8.23974609375,5.18798828125
0.9655790328979492,-148012290,1,0.14968976378440857,-0.3083023130893707,1.0724208354949951,-154.78515625,-153.6865234375,-49.1943359375
0.9656083583831787,-148012271,1,0.09817608445882797,-0.3688491880893707,1.1549403667449951,-100.64697265625,-147.15576171875,-50.78125
0.98958420753479,-148012263,0,-0.16301070153713226,0.2316412776708603,1.0877478122711182,7.568359375,-10.80322265625,24.47509765625
0.9955520629882812,-148012252,1,0.05105694383382797,-0.3678726255893707,1.1507899761199951,-53.1005859375,-107.72705078125,-53.3447265625
1.0105693340301514,-148012244,0,-0.15666304528713226,0.3700689971446991,1.1248571872711182,11.77978515625,-0.6103515625,19.10400390625
1.0106990337371826,-148012225,0,-0.18449507653713226,0.3668951690196991,1.0899450778961182,14.70947265625,8.48388671875,-3.0517578125
1.0389902591705322,-148012233,1,0.04861553758382797,-0.23188629746437073,1.0726649761199951,-13.48876953125,-63.90380859375,-66.71142578125
1.0425190925598145,-148012206,0,-0.25724899768829346,0.2616705596446991,0.8626502156257629,41.259765625,39.85595703125,-47.30224609375
1.0556070804595947,-148012197,1,0.19729718565940857,-0.12422027438879013,1.2779872417449951,64.208984375,-22.705078125,-112.060546875
1.0706281661987305,-148012170,0,-0.26799118518829346,0.1710944026708603,0.7903845906257629,98.81591796875,-27.16064453125,-20.8740234375
1.0901329517364502,-148012178,1,0.19729718565940857,-0.3632339537143707,0.9269129633903503,34.85107421875,-33.02001953125,-7.4462890625
1.0901403427124023,-148012159,1,0.36306867003440857,-0.09345855563879013,0.8700281977653503,-9.27734375,-66.71142578125,84.716796875
1.1004931926727295,-148012151,0,-0.07341109216213226,0.3541998565196991,0.8221228718757629,102.11181640625,-91.9189453125,25.0244140625
1.1005902290344238,-148012132,0,-0.014817345887422562,0.4530768096446991,0.8621619343757629,95.88623046875,-55.48095703125,21.97265625
1.1154422760009766,-148012140,1,0.22464093565940857,-0.20429840683937073,0.9432703852653503,-8.7890625,-34.423828125,57.80029296875
1.1155362129211426,-148012121,1,0.23660382628440857,-0.19648590683937073,1.0130946636199951,35.33935546875,0.79345703125,54.87060546875
1.1366422176361084,-148012113,0,-0.17570601403713226,0.5504889488220215,1.0276892185211182,61.82861328125,-23.01025390625,32.16552734375
1.1453602313995361,-148012102,1,0.31790265440940857,-0.11201324313879013,0.8827235102653503,103.45458984375,33.5693359375,52.91748046875
1.160858154296875,-148012094,0,-0.15617476403713226,0.4130377471446991,0.9361365437507629,15.80810546875,-6.89697265625,54.8095703125
1.1609861850738525,-148012075,0,-0.15763960778713226,0.2431158870458603,0.8563025593757629,17.76123046875,30.57861328125,55.23681640625
1.185237169265747,-148012083,1,0.37185773253440857,-0.04585113376379013,0.7279383540153503,106.8115234375,37.65869140625,45.2880859375
1.1852443218231201,-148012064,1,0.17190656065940857,0.05131683498620987,0.6910731196403503,86.0595703125,32.16552734375,35.7666015625
1.1952340602874756,-148012056,0,-0.16008101403713226,0.3161139190196991,0.8052771687507629,40.283203125,40.8935546875,61.70654296875
1.2062263488769531,-148012045,1,0.17605695128440857,0.13676604628562927,0.7945887446403503,84.28955078125,28.3203125,67.68798828125
1.220501184463501,-148012037,0,-0.22062788903713226,0.4152350127696991,0.8558142781257629,64.39208984375,33.99658203125,62.01171875
1.2205712795257568,-148012018,0,-0.20768843591213226,0.3681158721446991,0.8821814656257629,72.32666015625,17.578125,43.02978515625
1.2398922443389893,-148012026,1,0.26907452940940857,0.10453949123620987,0.8243739008903503,135.6201171875,18.37158203125,104.3701171875
1.2399003505706787,-148012007,1,0.25930890440940857,0.06547699123620987,0.7254969477653503,178.1005859375,5.67626953125,120.42236328125
1.2508082389831543,-148011999,0,-0.10514937341213226,0.4113287627696991,0.8035681843757629,69.51904296875,18.98193359375,21.240234375
1.2508790493011475,-148011980,0,-0.006272424012422562,0.3881354033946991,0.7715857625007629,59.6923828125,26.55029296875,22.705078125
1.2658600807189941,-148011988,1,0.26492413878440857,0.07646331936120987,0.7320887446403503,170.654296875,7.4462890625,141.7236328125
1.2908532619476318,-148011961,0,-0.07438765466213226,0.3415045440196991,0.6849158406257629,56.57958984375,44.7998046875,42.41943359375
1.2957220077514648,-148011969,1,0.12551984190940857,0.2766586244106293,1.0379970073699951,110.4736328125,26.55029296875,102.72216796875
1.3108491897583008,-148011942,0,-0.05656539276242256,0.3837408721446991,0.8526404500007629,78.61328125,12.26806640625,78.369140625
1.3396971225738525,-148011933,1,0.21365460753440857,0.2871566712856293,0.8014246821403503,67.9931640625,107.60498046875,38.9404296875
1.3397040367126465,-148011914,1,0.11062725633382797,0.2712875306606293,0.7994715571403503,67.81005859375,84.716796875,14.58740234375
1.3452882766723633,-148011906,0,0.15608109533786774,0.5548834800720215,0.8899939656257629,92.71240234375,98.08349609375,41.44287109375
1.357410192489624,-148011895,1,0.16043195128440857,0.22587737441062927,0.8631922602653503,60.4248046875,111.87744140625,7.080078125
1.372373104095459,-148011887,0,0.007887732237577438,0.5419440269470215,0.8348181843757629,83.19091796875,122.49755859375,52.978515625
1.3833332061767578,-148011868,0,-0.15690718591213226,0.5651373863220215,0.7366736531257629,68.4814453125,123.779296875,54.99267578125
1.3904261589050293,-148011876,1,0.19973859190940857,0.3452621400356293,0.8175379633903503,53.03955078125,179.13818359375,57.7392578125
1.3904330730438232,-148011857,1,0.07962139695882797,0.02104339748620987,0.9046961665153503,72.509765625,164.6728515625,51.513671875
1.4024052619934082,-148011849,0,-0.17204390466213226,0.5612311363220215,0.8025916218757629,67.81005859375,106.14013671875,64.88037109375
1.4024951457977295,-148011830,0,-0.20817671716213226,0.5248541831970215,0.8030799031257629,70.9228515625,91.552734375,83.19091796875
1.415701150894165,-148011838,1,0.29837140440940857,-0.05024566501379013,1.0050380229949951,70.3125,120.30029296875,39.24560546875
1.438676357269287,-148011811,0,-0.19328413903713226,0.6374030113220215,0.8101599812507629,67.56591796875,95.458984375,91.85791015625
1.4471371173858643,-148011819,1,0.10525616258382797,-0.0033706650137901306,1.0040614604949951,69.51904296875,113.22021484375,43.76220703125
1.447221040725708,-148011800,1,0.16116437315940857,0.19975432753562927,0.9933192133903503,99.4873046875,124.69482421875,73.486328125
1.4622032642364502,-148011792,0,-0.21794234216213226,0.7177252769470215,0.7444861531257629,54.6875,96.13037109375,90.6982421875
1.462306022644043,-148011773,0,-0.08976851403713226,0.7953619956970215,0.7122595906257629,46.20361328125,90.2099609375,89.41650390625
1.4875361919403076,-148011781,1,0.06887920945882797,0.4387679994106293,0.9940516352653503,105.224609375,149.10888671875,82.1533203125
1.487544059753418,-148011762,1,0.35940656065940857,0.7932602167129517,0.9781824946403503,97.47314453125,132.8125,94.78759765625
1.4919941425323486,-148011754,0,-0.02385054901242256,0.7736334800720215,0.5897009968757629,44.37255859375,82.275390625,94.29931640625
1.5074613094329834,-148011743,1,0.10427960008382797,0.4897933900356293,0.7723719477653503,59.14306640625,153.3203125,95.3369140625
1.5205702781677246,-148011735,0,0.13093461096286774,0.9105963706970215,0.6807654500007629,47.36328125,55.96923828125,101.13525390625
1.5206902027130127,-148011716,0,0.04963577911257744,0.7431159019470215,0.7291052937507629,28.99169921875,65.97900390625,88.31787109375
1.5412793159484863,-148011724,1,0.07229717820882797,0.6582504510879517,0.8204676508903503,63.41552734375,110.65673828125,101.9287109375
1.5412871837615967,-148011705,1,0.07742413133382797,0.8332992792129517,0.7962977290153503,43.5791015625,111.14501953125,82.51953125
1.5508551597595215,-148011697,0,-0.010666955262422562,0.6925787925720215,0.7210486531257629,18.798828125,81.787109375,105.46875
1.588576078414917,-148011678,0,-0.09123335778713226,0.7611823081970215,0.7110388875007629,17.27294921875,99.365234375,94.7265625
1.5956323146820068,-148011669,1,-0.04147235304117203,0.8506332635879517,0.9855067133903503,-49.560546875,111.2060546875,61.03515625
1.5957303047180176,-148011650,1,0.024201475083827972,0.5540024042129517,0.8834559321403503,-102.1728515625,94.66552734375,48.9501953125
1.610525369644165,-148011642,0,-0.08708296716213226,0.7316412925720215,0.6985877156257629,15.44189453125,96.98486328125,75.927734375
1.6106071472167969,-148011623,0,-0.09269820153713226,0.6386237144470215,0.6634314656257629,14.70947265625,92.95654296875,81.54296875
1.6365129947662354,-148011631,1,0.07840069383382797,0.2937484681606293,0.6573817133903503,-70.73974609375,126.708984375,45.166015625
1.6365242004394531,-148011612,1,-0.13546648621559143,0.4238754212856293,0.6122156977653503,-34.36279296875,89.41650390625,51.025390625
1.6420612335205078,-148011604,0,-0.04362593963742256,0.6767096519470215,0.6067908406257629,24.2919921875,80.01708984375,92.041015625
1.6557002067565918,-148011593,1,0.0036936625838279724,0.5017563104629517,0.6878992915153503,-18.85986328125,69.9462890625,50.96435546875
1.6736230850219727,-148011585,0,-0.02262984588742256,0.7489752769470215,0.5132849812507629,22.76611328125,68.7255859375,92.8955078125
1.673633098602295,-148011566,0,0.03889359161257744,0.8339362144470215,0.49790412187576294,5.9814453125,58.9599609375,95.39794921875
1.6924161911010742,-148011574,1,-0.022185243666172028,0.5207992792129517,0.7120692133903503,-23.3154296875,57.80029296875,57.67822265625
1.6924242973327637,-148011555,1,-0.07760516554117203,0.5469223260879517,0.7455164790153503,-49.6826171875,35.58349609375,59.9365234375
1.7005219459533691,-148011547,0,0.04792679473757744,0.8437018394470215,0.5955603718757629,-9.58251953125,56.70166015625,92.22412109375
1.718459129333496,-148011536,1,-0.05074969679117203,0.4565902650356293,0.8783289790153503,-85.8154296875,5.37109375,59.87548828125
1.7383410930633545,-148011528,0,0.03938187286257744,0.8771491050720215,0.6470740437507629,-28.13720703125,69.76318359375,81.4208984375
1.7383480072021484,-148011509,0,0.02473343536257744,0.8585944175720215,0.6216834187507629,-37.841796875,62.8662109375,64.63623046875
1.7455689907073975,-148011517,1,-0.08834735304117203,0.5703598260879517,0.8473231196403503,-103.69873046875,-24.90234375,59.814453125
1.7456152439117432,-148011498,1,0.04202374070882797,0.5249496698379517,0.9557215571403503,-97.412109375,-51.33056640625,61.767578125
1.7606191635131836,-148011490,0,0.09065140783786774,0.8283209800720215,0.6392615437507629,-38.818359375,48.7060546875,50.6591796875
1.7607553005218506,-148011471,0,0.14070023596286774,0.8361334800720215,0.7161658406257629,-43.27392578125,37.04833984375,39.55078125
1.7863690853118896,-148011479,1,0.08914288133382797,0.4248519837856293,0.9610926508903503,-76.72119140625,-86.85302734375,55.908203125
1.786377191543579,-148011460,1,0.21658429503440857,0.3621078431606293,1.1202723979949951,-42.41943359375,-105.77392578125,42.1142578125
1.7906670570373535,-148011452,0,0.14778031408786774,0.8615241050720215,0.7537634968757629,-49.072265625,38.51318359375,37.841796875
1.8057501316070557,-148011441,1,0.30813702940940857,0.2632308900356293,1.1947352886199951,-24.23095703125,-76.47705078125,11.90185546875
1.8206913471221924,-148011433,0,0.16413773596286774,0.9477057456970215,0.7950232625007629,-58.7158203125,38.14697265625,30.45654296875
1.8208093643188477,-148011414,0,0.16023148596286774,0.9459967613220215,0.8213904500007629,-74.21875,47.18017578125,20.93505859375
1.8386921882629395,-148011405,1,0.26834210753440857,0.3481918275356293,1.1434657573699951,13.12255859375,-37.4755859375,-18.85986328125
1.8645131587982178,-148011386,1,0.23709210753440857,0.3916488587856293,0.8785731196403503,27.16064453125,-96.923828125,-23.25439453125
1.8851661682128906,-148011378,0,0.14704789221286774,0.7436041831970215,0.7762244343757629,-77.94189453125,56.21337890625,17.822265625
1.885174036026001,-148011359,0,0.10188187658786774,0.6261725425720215,0.7732947468757629,-50.59814453125,65.73486328125,32.53173828125
1.895658016204834,-148011367,1,0.35891827940940857,0.3760238587856293,0.8668543696403503,64.51416015625,-144.53125,-27.83203125
1.8958022594451904,-148011348,1,0.34842023253440857,0.5371567010879517,0.9759852290153503,58.89892578125,-90.6982421875,-75.86669921875
1.9103882312774658,-148011340,0,0.04060257598757744,0.5426764488220215,0.7166541218757629,-24.71923828125,70.80078125,51.6357421875
1.9105291366577148,-148011321,0,0.07575882971286774,0.6164069175720215,0.6763709187507629,-9.1552734375,54.8095703125,79.1015625
1.9380793571472168,-148011329,1,0.32840070128440857,0.5806137323379517,0.9801356196403503,62.07275390625,8.30078125,-137.8173828125
1.9380872249603271,-148011310,1,0.22879132628440857,0.6914535760879517,0.9757410883903503,82.94677734375,20.93505859375,-157.28759765625
1.9435813426971436,-148011302,0,0.08235062658786774,0.6789069175720215,0.6534217000007629,0.6103515625,56.09130859375,82.03125
1.955726146697998,-148011291,1,-0.006071962416172028,1.4094711542129517,0.29410046339035034,9.27734375,29.84619140625,-35.09521484375
1.9705181121826172,-148011283,0,0.23664750158786774,0.8134284019470215,0.5274451375007629,10.1318359375,50.537109375,75.37841796875
1.9705841541290283,-148011264,0,0.5401142835617065,0.9030280113220215,0.45054084062576294,1.8310546875,26.06201171875,71.2890625
1.9946622848510742,-148011272,1,-0.07443133741617203,0.6306625604629517,0.6600672602653503,-8.97216796875,62.255859375,125.18310546875
1.9946701526641846,-148011253,1,0.11697491258382797,0.9294906854629517,0.34805554151535034,-35.70556640625,154.1748046875,190.91796875
2.0005152225494385,-148011245,0,0.5752705335617065,1.1083502769470215,0.5005896687507629,-2.38037109375,23.37646484375,52.79541015625
2.0155272483825684,-148011234,1,0.17166242003440857,0.6794906854629517,0.5731531977653503,-131.34765625,61.21826171875,132.01904296875
2.0394370555877686,-148011226,0,0.43025100231170654,0.9545416831970215,0.5904334187507629,-31.73828125,22.216796875,21.66748046875
2.039445161819458,-148011207,0,0.23127640783786774,0.8783698081970215,0.7940467000007629,-76.416015625,26.55029296875,-33.02001953125
2.0456011295318604,-148011215,1,0.34695538878440857,0.6953598260879517,0.6568934321403503,-105.77392578125,35.5224609375,165.771484375
2.0457022190093994,-148011196,1,0.39773663878440857,0.5835434198379517,0.9034754633903503,-128.23486328125,1.15966796875,161.92626953125
2.0624592304229736,-148011188,0,0.24909867346286774,0.7938971519470215,0.7706092000007629,-105.712890625,29.72412109375,-70.25146484375
2.0878922939300537,-148011177,1,0.41604718565940857,0.5127426385879517,1.0409266948699951,-109.619140625,8.60595703125,161.56005859375
2.0923032760620117,-148011169,0,0.24494828283786774,0.7228522300720215,0.7698767781257629,-116.5771484375,22.39990234375,-89.599609375
2.092311143875122,-148011150,0,0.28376662731170654,0.6627936363220215,0.7483924031257629,-129.69970703125,6.16455078125,-116.2109375
2.1097841262817383,-148011141,1,0.41604718565940857,0.2578597962856293,1.1642177104949951,-55.96923828125,74.21875,166.3818359375
2.122338056564331,-148011114,0,0.33137404918670654,0.1686529964208603,0.9283240437507629,-132.62939453125,-14.6484375,-68.54248046875
2.1440420150756836,-148011122,1,0.36917218565940857,0.4514633119106293,1.0143153667449951,-39.55078125,99.79248046875,162.53662109375
2.1440491676330566,-148011103,1,0.20047101378440857,0.2695785462856293,1.1258876323699951,-32.04345703125,106.87255859375,170.47119140625
2.153665065765381,-148011095,0,0.06574906408786774,0.3480963408946991,0.9773963093757629,-82.763671875,58.53271484375,-57.12890625
2.1675209999084473,-148011084,1,0.21682843565940857,0.4436508119106293,0.8368250727653503,-19.47021484375,99.2431640625,192.56591796875
2.191822052001953,-148011076,0,0.03571976348757744,0.4140143096446991,1.0787146091461182,-66.71142578125,68.17626953125,-56.57958984375
2.191833257675171,-148011057,0,-0.03898726776242256,0.5175299644470215,0.9732459187507629,-54.0771484375,68.29833984375,-77.08740234375
2.2010653018951416,-148011065,1,0.16140851378440857,0.4756332337856293,0.8370692133903503,3.7841796875,109.68017578125,189.453125
2.2010769844055176,-148011046,1,0.28640851378440857,0.3582015931606293,0.8744227290153503,-3.7841796875,93.81103515625,169.00634765625
2.2123301029205322,-148011038,0,-0.12175093591213226,0.4699225127696991,0.9664099812507629,-55.0537109375,27.83203125,-101.5625
2.2369472980499268,-148011027,1,0.29544171690940857,0.2861801087856293,0.8544031977653503,-4.39453125,95.64208984375,131.53076171875
2.243312120437622,-148011019,0,-0.10539351403713226,0.3007330596446991,1.1334021091461182,-44.73876953125,-17.76123046875,-106.3232421875
2.243321180343628,-148011000,0,-0.17619429528713226,0.2213873714208603,1.2222692966461182,-28.564453125,-21.1181640625,-89.4775390625
2.2571520805358887,-148011008,1,0.26858624815940857,0.2991195619106293,0.9183680415153503,14.58740234375,98.93798828125,71.71630859375
2.2572481632232666,-148010989,1,0.20047101378440857,0.3210922181606293,1.0743739604949951,26.4892578125,102.1728515625,39.36767578125
2.287675142288208,-148010981,0,-0.13957320153713226,0.1793951839208603,1.2159216403961182,-25.45166015625,0.1220703125,-70.98388671875
2.2876861095428467,-148010962,0,-0.17204390466213226,0.2414069026708603,1.1495153903961182,-15.80810546875,18.1884765625,-58.16650390625
2.294588327407837,-148010970,1,0.22561749815940857,0.3530746400356293,1.1993739604949951,14.09912109375,96.74072265625,22.64404296875
2.2945971488952637,-148010951,1,0.22024640440940857,0.3171859681606293,1.2137782573699951,6.16455078125,86.97509765625,14.58740234375
2.302356243133545,-148010943,0,-0.20231734216213226,0.2753424346446991,1.1414587497711182,-15.07568359375,13.3056640625,-51.025390625
2.317256212234497,-148010932,1,0.33133038878440857,0.23686370253562927,1.2113368511199951,1.03759765625,73.73046875,0.54931640625
2.341921091079712,-148010924,0,-0.25065720081329346,0.2311529964208603,1.1929724216461182,-20.01953125,2.9296875,-59.38720703125
2.342722177505493,-148010905,0,-0.27970993518829346,0.1623053401708603,1.2498571872711182,-8.60595703125,-24.4140625,-66.71142578125
2.346177101135254,-148010913,1,0.27835187315940857,0.23686370253562927,1.2679774761199951,6.8359375,79.16259765625,-29.47998046875
2.360650062561035,-148010886,0,-0.24162398278713226,0.06782291829586029,1.2667028903961182,7.2021484375,-27.28271484375,-79.833984375
2.386268138885498,-148010877,1,0.21878156065940857,0.19926604628562927,1.3490321636199951,12.14599609375,56.396484375,-3.173828125
2.3906311988830566,-148010850,0,-0.19621382653713226,0.07197330892086029,1.2212927341461182,36.2548828125,11.65771484375,-69.15283203125
2.4089620113372803,-148010858,1,0.30838117003440857,0.04887542873620987,1.3175380229949951,12.0849609375,33.50830078125,16.9677734375
2.408975124359131,-148010839,1,0.32717999815940857,-0.0011733993887901306,1.2379481792449951,15.625,26.611328125,5.9814453125
2.4206631183624268,-148010831,0,-0.24943648278713226,0.05976627394556999,1.1995642185211182,37.353515625,18.5546875,-53.7109375
2.4207820892333984,-148010812,0,-0.25358688831329346,0.06123111769556999,1.1766149997711182,37.4755859375,25.5126953125,-33.99658203125
2.4382681846618652,-148010820,1,0.30227765440940857,0.02568206936120987,1.1957118511199951,21.240234375,25.20751953125,5.55419921875
2.4382741451263428,-148010801,1,0.24759015440940857,0.12260589748620987,1.1637294292449951,26.4892578125,26.67236328125,7.8125
2.4517781734466553,-148010793,0,-0.18278609216213226,0.1833014339208603,1.1617224216461182,41.32080078125,29.296875,-22.64404296875
2.4658541679382324,-148010782,1,0.19339093565940857,0.13432464003562927,1.1612880229949951,33.0810546875,26.67236328125,12.6953125
2.4863011837005615,-148010774,0,-0.16984663903713226,0.2062506526708603,1.0633337497711182,52.978515625,22.94921875,-32.40966796875
2.4863080978393555,-148010755,0,-0.11882124841213226,0.2597174346446991,0.9996131062507629,55.60302734375,38.2080078125,-62.744140625
2.4955461025238037,-148010763,1,0.24881085753440857,0.02519378811120987,1.0516688823699951,50.537109375,11.3525390625,36.2548828125
2.4956161975860596,-148010744,1,0.29959210753440857,0.03471527248620987,0.9684168696403503,64.63623046875,4.39453125,40.34423828125
2.510690212249756,-148010736,0,-0.09684859216213226,0.2147955745458603,0.9483435750007629,55.48095703125,42.54150390625,-80.9326171875
2.535994291305542,-148010725,1,0.31472882628440857,0.07890472561120987,0.9093348383903503,71.8994140625,7.14111328125,23.37646484375
2.541422128677368,-148010717,0,-0.16301070153713226,0.2077154964208603,0.8646033406257629,56.57958984375,43.76220703125,-74.15771484375
2.541431188583374,-148010698,0,-0.20915327966213226,0.2318854182958603,0.8169959187507629,59.50927734375,42.6025390625,-62.56103515625
2.555528163909912,-148010706,1,0.28738507628440857,0.15800628066062927,0.9061610102653503,73.8525390625,6.103515625,7.26318359375
2.555589199066162,-148010687,1,0.26394757628440857,0.16826018691062927,0.9178797602653503,82.82470703125,-7.9345703125,10.43701171875
2.570425271987915,-148010679,0,-0.19889937341213226,0.3134283721446991,0.7801306843757629,61.95068359375,39.12353515625,-49.8046875
2.570493221282959,-148010660,0,-0.23356734216213226,0.3280768096446991,0.7327674031257629,57.6171875,37.29248046875,-48.33984375
2.5916364192962646,-148010668,1,0.24173077940940857,0.15654143691062927,0.8871180415153503,88.31787109375,-25.81787109375,17.39501953125
2.6003830432891846,-148010641,0,-0.31266891956329346,0.2936529815196991,0.6568396687507629,53.40576171875,10.986328125,-39.48974609375
2.6156201362609863,-148010649,1,0.33670148253440857,0.15507659316062927,0.8075281977653503,83.43505859375,-43.64013671875,24.169921875
2.642656087875366,-148010622,0,-0.21867476403713226,0.2694830596446991,0.6309607625007629,59.814453125,-26.0009765625,-14.46533203125
2.6463592052459717,-148010613,1,0.31985577940940857,0.3289047181606293,0.7450281977653503,89.41650390625,-20.8740234375,-7.38525390625
2.6463663578033447,-148010594,1,0.29104718565940857,0.4087387025356293,0.7547938227653503,78.06396484375,-16.90673828125,-7.75146484375
2.6619091033935547,-148010586,0,-0.22209273278713226,0.3563971221446991,0.7117713093757629,64.75830078125,-42.8466796875,2.685546875
2.686840057373047,-148010575,1,0.30081281065940857,0.4197250306606293,0.6957117915153503,61.767578125,-22.705078125,0.48828125
2.692136287689209,-148010567,0,-0.21647749841213226,0.4416022002696991,0.7894080281257629,44.49462890625,-23.4375,11.71875
2.692221164703369,-148010548,0,-0.24528609216213226,0.4420904815196991,0.7447302937507629,30.8837890625,-5.615234375,12.63427734375
2.7070353031158447,-148010556,1,0.41311749815940857,0.4263168275356293,0.6122156977653503,48.15673828125,-10.25390625,0.3662109375
2.711153268814087,-148010537,1,0.34402570128440857,0.4756332337856293,0.6205164790153503,21.91162109375,-1.40380859375,-22.27783203125
2.720489263534546,-148010529,0,-0.30119431018829346,0.4040045440196991,0.7215369343757629,14.46533203125,9.33837890625,1.15966796875
2.7206122875213623,-148010510,0,-0.37126266956329346,0.4125494658946991,0.7925818562507629,6.9580078125,-8.48388671875,-8.23974609375
2.7402241230010986,-148010518,1,0.25320538878440857,0.5518051385879517,0.6124598383903503,-3.23486328125,-1.03759765625,-42.1142578125
2.7536141872406006,-148010491,0,-0.34538376331329346,0.4191412627696991,0.8616736531257629,3.23486328125,-22.15576171875,-20.32470703125
2.7663180828094482,-148010499,1,0.26834210753440857,0.6052719354629517,0.6195399165153503,-9.58251953125,26.42822265625,-40.95458984375
2.7663941383361816,-148010480,1,0.28738507628440857,0.5603500604629517,0.6551844477653503,-6.34765625,45.71533203125,-35.7666015625
2.789489269256592,-148010472,0,-0.39616501331329346,0.3881354033946991,0.8775427937507629,-3.47900390625,-17.39501953125,-27.4658203125
2.7894961833953857,-148010453,0,-0.39787399768829346,0.3849615752696991,0.8299353718757629,-11.41357421875,-1.28173828125,-13.18359375
2.801851272583008,-148010461,1,0.30081281065940857,0.5171371698379517,0.6876551508903503,-4.82177734375,46.56982421875,-44.921875
2.8018622398376465,-148010442,1,0.28469952940940857,0.5334945917129517,0.6830164790153503,-6.28662109375,30.76171875,-65.24658203125
2.8123602867126465,-148010434,0,-0.37150681018829346,0.3339361846446991,0.8370154500007629,-13.5498046875,8.056640625,-8.85009765625
2.8375160694122314,-148010423,1,0.17410382628440857,0.6277328729629517,0.6676356196403503,-16.4794921875,9.58251953125,-77.0263671875
2.8421361446380615,-148010415,0,-0.33928024768829346,0.3253912627696991,0.8328650593757629,-12.63427734375,20.8740234375,-7.75146484375
2.8421432971954346,-148010396,0,-0.41618454456329346,0.3234381377696991,0.7972205281257629,-12.939453125,25.146484375,0.67138671875
2.857147216796875,-148010404,1,0.14114484190940857,0.6707016229629517,0.6271082758903503,-27.4658203125,4.8828125,-63.4765625
2.85722017288208,-148010385,1,0.15725812315940857,0.6096664667129517,0.5931727290153503,-36.43798828125,13.671875,-36.1328125
2.8851683139801025,-148010377,0,-0.49162399768829346,0.3178229033946991,0.7256873250007629,-10.19287109375,5.43212890625,14.70947265625
2.900153160095215,-148010358,0,-0.33928024768829346,0.3405279815196991,0.7527869343757629,-2.3193359375,-7.32421875,16.845703125
2.917135238647461,-148010349,1,0.26150617003440857,0.5098129510879517,0.6073328852653503,-35.58349609375,33.99658203125,-33.75244140625
2.9172589778900146,-148010330,1,0.24856671690940857,0.5037094354629517,0.6446864008903503,-29.96826171875,40.283203125,-56.57958984375
2.9401142597198486,-148010322,0,-0.36393845081329346,0.3136725127696991,0.7820838093757629,-8.9111328125,-8.6669921875,-15.80810546875
2.940122127532959,-148010303,0,-0.34220993518829346,0.2621588408946991,0.7884314656257629,-19.95849609375,-6.9580078125,-24.35302734375
2.94714617729187,-148010311,1,0.18167218565940857,0.5618149042129517,0.6625086665153503,-28.1982421875,39.1845703125,-75.50048828125
2.947228193283081,-148010292,1,0.14871320128440857,0.6045395135879517,0.6322352290153503,-28.25927734375,39.97802734375,-68.7255859375
2.961914300918579,-148010284,0,-0.28947556018829346,0.2323736995458603,0.7991736531257629,-27.40478515625,-1.03759765625,-18.4326171875
2.990413188934326,-148010273,1,0.13284406065940857,0.5771957635879517,0.6351649165153503,-26.4892578125,49.6826171875,-57.6171875
2.9942073822021484,-148010265,0,-0.23137007653713226,0.2516607940196991,0.7891638875007629,-29.78515625,-0.732421875,-14.46533203125
2.9942142963409424,-148010246,0,-0.20304976403713226,0.2909674346446991,0.7876990437507629,-26.611328125,-6.9580078125,-24.4140625
3.0055410861968994,-148010254,1,0.15823468565940857,0.5337387323379517,0.6686121821403503,-24.96337890625,60.48583984375,-55.72509765625
3.005629301071167,-148010235,1,0.15554913878440857,0.5288559198379517,0.7386805415153503,-30.8837890625,60.791015625,-66.95556640625
3.0207512378692627,-148010227,0,-0.21745406091213226,0.3012213408946991,0.8055213093757629,-23.8037109375,-15.5029296875,-44.677734375
3.0390820503234863,-148010216,1,0.13699445128440857,0.5176254510879517,0.7582117915153503,-37.17041015625,44.98291015625,-84.41162109375
3.0507593154907227,-148010208,0,-0.20939742028713226,0.2597174346446991,0.8668006062507629,-25.45166015625,-27.83203125,-60.85205078125
3.0508790016174316,-148010189,0,-0.19987593591213226,0.2050299495458603,0.9188025593757629,-34.423828125,-26.3671875,-61.70654296875
3.0656073093414307,-148010197,1,0.11331280320882797,0.5244613885879517,0.7557703852653503,-40.83251953125,31.6162109375,-94.1162109375
3.0658349990844727,-148010178,1,0.10574444383382797,0.5254379510879517,0.6940028071403503,-38.9404296875,24.4140625,-93.20068359375
3.0872392654418945,-148010170,0,-0.21965132653713226,0.1701178401708603,0.9063513875007629,-32.3486328125,-20.93505859375,-46.56982421875
3.087247133255005,-148010151,0,-0.16252242028713226,0.1854986995458603,0.8816931843757629,-23.37646484375,-19.59228515625,-38.75732421875
3.1009910106658936,-148010159,1,0.10867413133382797,0.4714828431606293,0.6586024165153503,-29.4189453125,32.8369140625,-80.62744140625
3.1010050773620605,-148010140,1,0.06350811570882797,0.4785629212856293,0.7262293696403503,-26.85546875,47.119140625,-91.61376953125
3.1123621463775635,-148010132,0,-0.16764937341213226,0.2265143245458603,0.9222205281257629,-25.5126953125,-25.5126953125,-54.87060546875
3.136711359024048,-148010121,1,0.006135068833827972,0.4766097962856293,0.7601649165153503,-29.35791015625,50.78125,-109.9853515625
3.147658109664917,-148010113,0,-0.19377242028713226,0.2145514339208603,1.0323278903961182,-44.00634765625,-36.62109375,-80.4443359375
3.1476683616638184,-148010094,0,-0.18547163903713226,0.1425299495458603,1.0589392185211182,-60.9130859375,-41.80908203125,-86.7919921875
3.1559431552886963,-148010085,1,-0.006560243666172028,0.4790512025356293,0.7403895258903503,-34.48486328125,46.20361328125,-118.896484375
3.1905500888824463,-148010066,1,0.022736631333827972,0.4292465150356293,0.7252528071403503,-34.3017578125,43.15185546875,-104.55322265625
3.2005770206451416,-148010058,0,-0.13371382653713226,0.10664127767086029,1.0359899997711182,-60.24169921875,-42.3583984375,-56.82373046875
3.2007012367248535,-148010039,0,-0.08000288903713226,0.1793951839208603,1.0557653903961182,-48.03466796875,-52.67333984375,-57.18994140625
3.215632200241089,-148010047,1,-0.0016774311661720276,0.3779769837856293,0.7772547602653503,-28.6865234375,52.18505859375,-119.93408203125
3.2157301902770996,-148010028,1,-0.10934344679117203,0.3618637025356293,0.8539149165153503,-18.06640625,67.2607421875,-165.4052734375
3.2429392337799072,-148010020,0,-0.07365523278713226,0.1745123714208603,1.0506384372711182,-34.97314453125,-79.4677734375,-70.068359375
3.242948293685913,-148010001,0,0.006667029112577438,0.1410651057958603,1.1026403903961182,-35.64453125,-104.43115234375,-76.5380859375
3.2464020252227783,-148010009,1,-0.21774187684059143,0.4470687806606293,0.8905360102653503,-16.4794921875,63.1103515625,-189.14794921875
3.2464091777801514,-148009990,1,-0.28268328309059143,0.5454574823379517,0.8756434321403503,-25.32958984375,37.841796875,-162.41455078125
3.260674238204956,-148009982,0,0.04402054473757744,0.1566901057958603,1.1175329685211182,-42.29736328125,-112.85400390625,-60.05859375
3.2883481979370117,-148009971,1,-0.16403093934059143,0.4543929994106293,0.8829676508903503,-36.62109375,12.451171875,-106.75048828125
3.297206163406372,-148009963,0,0.10456742346286774,0.2428717464208603,1.1709997653961182,-48.095703125,-120.66650390625,-46.81396484375
3.2980153560638428,-148009944,0,0.11726273596286774,0.3620123565196991,1.2681677341461182,-52.24609375,-134.94873046875,-76.171875
3.305509090423584,-148009952,1,-0.12643328309059143,0.3088851869106293,0.9781824946403503,-33.8134765625,10.1318359375,-102.1728515625
3.305570125579834,-148009933,1,-0.19113054871559143,0.24858245253562927,1.0963466167449951,-20.5078125,23.25439453125,-138.00048828125
3.320657253265381,-148009925,0,0.14802445471286774,0.2858404815196991,1.3946325778961182,-69.2138671875,-158.69140625,-129.5166015625
3.3396222591400146,-148009914,1,-0.38033953309059143,0.3025375306606293,1.2306239604949951,-6.04248046875,18.9208984375,-181.15234375
3.3506124019622803,-148009906,0,0.17585648596286774,0.1698736995458603,1.4944860935211182,-87.21923828125,-158.75244140625,-141.90673828125
3.3507261276245117,-148009887,0,0.10456742346286774,0.2035651057958603,1.5743200778961182,-88.623046875,-152.587890625,-94.05517578125
3.3655359745025635,-148009895,1,-0.38326922059059143,0.4121566712856293,1.2088954448699951,9.58251953125,-4.638671875,-171.5087890625
3.365673303604126,-148009876,1,-0.43112078309059143,0.3418441712856293,1.2711513042449951,31.982421875,-21.8505859375,-138.427734375
3.388047218322754,-148009868,0,0.06355179846286774,0.4035162627696991,1.6888220310211182,-74.0966796875,-167.1142578125,-63.3544921875
3.3958683013916016,-148009857,1,-0.5790700316429138,0.3093734681606293,1.3190028667449951,51.08642578125,-29.6630859375,-158.63037109375
3.4107272624969482,-148009849,0,-0.012620080262422562,0.5236334800720215,1.8262732028961182,-79.58984375,-198.6083984375,-91.97998046875
3.410811185836792,-148009830,0,-0.04777633026242256,0.4716314971446991,2.027445077896118,-88.19580078125,-228.33251953125,-127.9296875
3.435753345489502,-148009821,1,-0.9714040160179138,0.5571762323379517,1.2401454448699951,98.388671875,-57.06787109375,-192.56591796875
3.444650173187256,-148009794,0,-0.15007124841213226,0.3683600127696991,2.550394296646118,-30.21240234375,-209.04541015625,-87.7685546875
3.457144260406494,-148009802,1,-0.8942555785179138,0.5962387323379517,1.1629970073699951,109.2529296875,-60.791015625,-109.9853515625
3.4572572708129883,-148009783,1,-0.8981618285179138,0.4021469056606293,1.2503993511199951,108.5205078125,-68.17626953125,-58.7158203125
3.485246181488037,-148009775,0,-0.26213181018829346,0.6146979331970215,2.858743906021118,1.89208984375,-201.35498046875,-136.3525390625
3.4905693531036377,-148009764,1,-1.050261378288269,0.3735824525356293,1.2569911479949951,122.1923828125,-76.66015625,-89.111328125
3.50229811668396,-148009756,0,-0.30583298206329346,0.3964361846446991,3.065286874771118,-1.77001953125,-190.49072265625,-226.62353515625
3.5024352073669434,-148009737,0,-0.27287399768829346,0.09687565267086029,3.189554452896118,6.53076171875,-169.98291015625,-266.7236328125
3.5170602798461914,-148009745,1,-1.198698878288269,0.5110336542129517,1.1551845073699951,129.638671875,-89.4775390625,-98.9990234375
3.517151355743408,-148009726,1,-1.167937159538269,0.5779281854629517,1.0126063823699951,129.45556640625,-91.064453125,-60.9130859375
3.5408682823181152,-148009718,0,-0.34636032581329346,-0.2239251285791397,3.308206796646118,49.62158203125,-118.83544921875,-263.48876953125
3.546915054321289,-148009707,1,-1.014616847038269,0.4907699525356293,0.8832117915153503,113.8916015625,-89.17236328125,1.46484375
3.5620532035827637,-148009699,0,-0.40715134143829346,-0.5583977699279785,3.137796640396118,118.95751953125,-40.34423828125,-216.9189453125
3.562120199203491,-148009680,0,-0.25138962268829346,-0.8936028480529785,2.898782968521118,178.03955078125,-2.74658203125,-183.10546875
3.5901761054992676,-148009688,1,-0.8556813597679138,0.4163070619106293,0.8060633540153503,89.66064453125,-89.05029296875,31.31103515625
3.5901854038238525,-148009669,1,-0.7214040160179138,0.3435531556606293,0.7403895258903503,71.83837890625,-85.02197265625,25.08544921875
3.5943901538848877,-148009661,0,-0.04289351776242256,-1.0862298011779785,2.760843515396118,218.81103515625,5.4931640625,-162.109375
3.5943973064422607,-148009642,0,0.19709672033786774,-1.1824212074279785,2.625833749771118,262.63427734375,25.0244140625,-143.6767578125
3.605674982070923,-148009650,1,-0.6271657347679138,0.3518539369106293,0.6734949946403503,68.78662109375,-71.96044921875,3.84521484375
3.6057841777801514,-148009631,1,-0.5458669066429138,0.4443832337856293,0.5448328852653503,74.951171875,-39.4287109375,-18.1884765625
3.6216273307800293,-148009623,0,0.37116897106170654,-1.2295403480529785,2.518900156021118,280.8837890625,86.42578125,-140.0146484375
3.641660213470459,-148009612,1,-0.5549001097679138,0.5583969354629517,0.47745007276535034,67.56591796875,4.21142578125,-14.6484375
3.6506001949310303,-148009604,0,0.40583693981170654,-1.4441399574279785,2.330179452896118,290.71044921875,137.14599609375,-123.291015625
3.6506922245025635,-148009585,0,0.6360615491867065,-1.6047844886779785,2.249613046646118,308.77685546875,151.91650390625,-120.4833984375
3.66573429107666,-148009593,1,-0.5719899535179138,0.5994125604629517,0.48599499464035034,35.82763671875,35.94970703125,7.62939453125
3.6901843547821045,-148009566,0,1.0528095960617065,-1.6387200355529785,2.257669687271118,319.7021484375,174.37744140625,-119.81201171875
3.69579815864563,-148009557,1,-0.42599382996559143,0.5832992792129517,0.5433680415153503,-48.76708984375,43.701171875,44.98291015625
3.710895299911499,-148009530,0,1.6341084241867065,-1.7104973793029785,1.9622595310211182,302.734375,285.2783203125,-119.140625
3.7382311820983887,-148009538,1,-0.32662859559059143,0.5720688104629517,0.5775477290153503,-72.81494140625,39.97802734375,59.75341796875
3.738239049911499,-148009519,1,-0.24459734559059143,0.4941879212856293,0.6109949946403503,-72.69287109375,45.59326171875,73.8525390625
3.74263334274292,-148009511,0,1.8408955335617065,-1.6919426918029785,1.6155798435211182,325.439453125,336.9140625,-90.2099609375
3.742640256881714,-148009492,0,2.043044090270996,-1.7144036293029785,1.3877966403961182,359.68017578125,337.40234375,-78.06396484375
3.7558672428131104,-148009500,1,-0.22946062684059143,0.4936996400356293,0.6749598383903503,-56.0302734375,47.30224609375,91.85791015625
3.75594425201416,-148009481,1,-0.16573992371559143,0.4744125306606293,0.6986414790153503,-54.19921875,30.029296875,113.28125
3.770775079727173,-148009473,0,2.041579246520996,-1.7639641761779785,1.1600134372711182,456.48193359375,279.23583984375,-65.12451171875
3.790274143218994,-148009462,1,-0.06759539991617203,0.4385238587856293,0.6603114008903503,-67.7490234375,9.521484375,122.13134765625
3.800624132156372,-148009454,0,1.9610127210617065,-1.6902337074279785,1.0250036716461182,554.62646484375,190.0634765625,-67.32177734375
3.800966262817383,-148009435,0,1.8963154554367065,-1.4890618324279785,0.9424842000007629,586.181640625,148.37646484375,-65.97900390625
3.815650224685669,-148009443,1,0.17215070128440857,0.2627426087856293,0.7101160883903503,-75.50048828125,-15.869140625,108.82568359375
3.8157691955566406,-148009424,1,0.28933820128440857,0.2624984681606293,0.7267176508903503,-47.79052734375,-43.64013671875,57.55615234375
3.8366992473602295,-148009416,0,1.9597920179367065,-1.3979973793029785,0.9007361531257629,542.29736328125,173.76708984375,-67.9931640625
3.8457820415496826,-148009405,1,0.29007062315940857,0.4299789369106293,0.5838953852653503,-9.21630859375,-30.3955078125,17.9443359375
3.860572338104248,-148009397,0,2.071608543395996,-1.4172844886779785,0.7686560750007629,443.54248046875,258.056640625,-80.4443359375
3.860652208328247,-148009378,0,2.127272605895996,-1.5803704261779785,0.6338904500007629,320.49560546875,351.5625,-92.4072265625
3.8878180980682373,-148009386,1,0.31253156065940857,0.4153304994106293,0.5077235102653503,-5.67626953125,32.3486328125,-3.5400390625
3.8878252506256104,-148009367,1,0.5129709839820862,0.2861801087856293,0.9051844477653503,-4.5166015625,91.796875,-43.3349609375
3.8914601802825928,-148009359,0,1.8675068616867065,-1.5872063636779785,0.5501502156257629,195.37353515625,416.50390625,-78.369140625
3.8914670944213867,-148009340,0,1.8135517835617065,-1.5732903480529785,0.5574744343757629,109.375,439.14794921875,-45.0439453125
3.9057111740112305,-148009348,1,0.04934795945882797,0.6538559198379517,1.0733973979949951,55.96923828125,92.22412109375,-35.888671875
3.9203829765319824,-148009321,0,1.9082783460617065,-1.6174798011779785,0.5779822468757629,71.044921875,465.75927734375,40.283203125
3.939784288406372,-148009329,1,-0.30660906434059143,0.9719711542129517,0.9147059321403503,39.9169921875,27.16064453125,23.4375
3.9506590366363525,-148009302,0,2.199782371520996,-1.6924309730529785,0.43296271562576294,141.54052734375,471.6796875,172.119140625
3.9654922485351562,-148009293,1,-0.7104176878929138,0.9373031854629517,0.5592371821403503,-16.2353515625,17.88330078125,138.48876953125
3.9655652046203613,-148009274,1,-0.8717946410179138,1.0151840448379517,0.5201746821403503,-4.5166015625,67.19970703125,167.8466796875
3.987302303314209,-148009266,0,2.556960105895996,-2.0039544105529785,0.30869513750076294,335.9375,409.60693359375,312.255859375
3.995770215988159,-148009255,1,-0.9655446410179138,0.8733383417129517,0.5799891352653503,-6.591796875,135.6201171875,230.3466796875
4.010587215423584,-148009247,0,2.623854637145996,-2.1792473793029785,0.30552130937576294,384.3994140625,347.16796875,375.8544921875
4.010651111602783,-148009228,0,2.813307762145996,-2.2844719886779785,0.43174201250076294,397.88818359375,317.07763671875,404.23583984375
4.036993026733398,-148009236,1,-0.7963551878929138,0.6824203729629517,0.5902430415153503,2.99072265625,169.189453125,298.2177734375
4.037001371383667,-148009217,1,-0.6361989378929138,0.3862777650356293,0.48037976026535034,-28.01513671875,165.1611328125,351.25732421875
4.041421175003052,-148009209,0,2.982741355895996,-2.4167962074279785,0.6246131062507629,427.91748046875,333.0078125,432.373046875
4.041428327560425,-148009190,0,2.917799949645996,-2.4951653480529785,0.8050330281257629,454.52880859375,337.7685546875,426.3916015625
4.055862188339233,-148009198,1,-0.38107195496559143,0.11357269436120987,0.39908093214035034,-68.29833984375,168.15185546875,387.26806640625
4.070569276809692,-148009171,0,2.728590965270996,-2.5208001136779785,0.8404334187507629,476.1962890625,303.1005859375,395.751953125
4.091831207275391,-148009179,1,-0.26510515809059143,0.01811370998620987,0.46158093214035034,-77.94189453125,182.92236328125,404.1748046875
4.093232154846191,-148009160,1,-0.34445086121559143,-0.006788633763790131,0.6922938227653503,-88.7451171875,201.11083984375,429.99267578125
4.102409362792969,-148009152,0,2.722731590270996,-2.7104973793029785,0.7840369343757629,501.28173828125,233.82568359375,374.20654296875
4.102480173110962,-148009133,0,2.787672996520996,-2.8030266761779785,0.6565955281257629,512.75634765625,210.9375,323.8525390625
4.117245197296143,-148009141,1,-0.44259539246559143,-0.03095855563879013,1.0128505229949951,-113.4033203125,179.931640625,471.13037109375
4.117335081100464,-148009122,1,-0.39352312684059143,-0.006300352513790131,1.3878505229949951,-138.0615234375,116.0888671875,503.35693359375
4.140864133834839,-148009114,0,2.756422996520996,-2.7151360511779785,0.6312049031257629,464.53857421875,181.640625,223.14453125
4.152844190597534,-148009103,1,-0.37228289246559143,0.10502777248620987,1.6656825542449951,-142.08984375,66.162109375,522.0947265625
4.162410020828247,-148009095,0,2.596755027770996,-2.5916008949279785,0.5491736531257629,397.3388671875,138.00048828125,154.72412109375
4.162591218948364,-148009076,0,2.483473777770996,-2.6028313636779785,0.20493537187576294,336.12060546875,44.86083984375,56.09130859375
4.1909661293029785,-148009084,1,-0.33810320496559143,0.2949691712856293,2.015536069869995,-93.93310546875,60.1806640625,575.25634765625
4.190974950790405,-148009065,1,-0.22531023621559143,0.18339690566062927,2.400057554244995,19.83642578125,159.72900390625,654.6630859375
4.196665048599243,-148009057,0,2.593825340270996,-2.7917962074279785,-0.05507439374923706,302.001953125,-70.37353515625,-72.08251953125
4.220194101333618,-148009038,0,2.411208152770996,-3.0315423011779785,-0.12709587812423706,248.59619140625,-136.04736328125,-159.85107421875
4.243041038513184,-148009029,1,-0.04611102491617203,0.3369613587856293,3.009920835494995,188.720703125,242.73681640625,601.37939453125
4.243049383163452,-148009010,1,-0.14938250184059143,0.2505355775356293,2.587313413619995,178.40576171875,126.15966796875,647.4609375
4.25213623046875,-148009002,0,1.6802510023117065,-3.0466790199279785,-0.49770134687423706,134.6435546875,-145.56884765625,-154.35791015625
4.252201318740845,-148008983,0,1.1275166273117065,-2.3308587074279785,-0.7352501749992371,189.0869140625,-223.6328125,-64.94140625
4.269637107849121,-148008991,1,0.07620342820882797,-0.12861481308937073,2.009920835494995,119.9951171875,88.43994140625,651.4892578125
4.269648313522339,-148008972,1,-0.019255556166172028,-0.3310073912143707,1.6478602886199951,80.01708984375,168.02978515625,577.08740234375
4.287914991378784,-148008964,0,0.8667744398117065,-1.7864251136779785,-0.7164513468742371,205.99365234375,-328.06396484375,-78.0029296875
4.295705080032349,-148008953,1,-0.5607594847679138,-0.6195815801620483,1.6017177104949951,39.0625,233.5205078125,538.51318359375
4.311228275299072,-148008945,0,0.6658467054367065,-1.4937005043029785,-0.38905876874923706,118.408203125,-336.7919921875,-201.84326171875
4.33648419380188,-148008934,1,-0.34664812684059143,-0.9701675176620483,1.5379970073699951,27.4658203125,96.13037109375,513.427734375
4.336491107940674,-148008915,1,-0.23751726746559143,-0.9870132207870483,1.3732020854949951,42.96875,-1.40380859375,417.05322265625
4.340649366378784,-148008926,0,0.43537795543670654,-1.2249016761779785,-0.01015251874923706,17.63916015625,-276.67236328125,-317.93212890625
4.340748071670532,-148008907,0,0.34870803356170654,-0.9041008949279785,0.06748420000076294,-29.60205078125,-263.48876953125,-351.86767578125
4.340834140777588,-148008888,0,0.26277053356170654,-0.7332024574279785,0.15122443437576294,-28.13720703125,-366.39404296875,-325.86669921875
4.355691194534302,-148008896,1,-0.6850270628929138,-1.0636733770370483,1.3653895854949951,112.79296875,-36.865234375,324.40185546875
4.370681047439575,-148008869,0,0.5633076429367065,-0.5474114418029785,0.42368537187576294,10.43701171875,-511.53564453125,-284.85107421875
4.390371084213257,-148008877,1,-0.5407399535179138,-1.3400405645370483,1.3649013042449951,252.197265625,-34.72900390625,232.97119140625
4.390379190444946,-148008858,1,-0.38864031434059143,-1.3437026739120483,1.1168544292449951,371.15478515625,-45.2880859375,149.59716796875
4.402213096618652,-148008850,0,0.6389912366867065,-0.7217278480529785,1.0814001560211182,-8.85009765625,-521.484375,-292.3583984375
4.402222156524658,-148008831,0,0.35627639293670654,-0.6367669105529785,1.0001013278961182,-91.00341796875,-380.0048828125,-291.44287109375
4.415680170059204,-148008839,1,-0.30880632996559143,-1.0771011114120483,0.7350184321403503,388.18359375,-56.2744140625,103.3935546875
4.415817975997925,-148008820,1,-0.30416765809059143,-0.6920913457870483,0.32559460401535034,400.0244140625,-20.93505859375,35.09521484375
4.439311265945435,-148008812,0,-0.04826461151242256,-0.4749017059803009,0.8028357625007629,-145.8740234375,-263.5498046875,-232.84912109375
4.447763204574585,-148008801,1,-0.11544696241617203,-0.0028823837637901306,0.05923718214035034,384.6435546875,24.84130859375,-30.8837890625
4.460798263549805,-148008793,0,0.34309279918670654,-0.07695247232913971,0.8216345906257629,-178.1005859375,-281.18896484375,-236.572265625
4.4609620571136475,-148008774,0,0.03669632598757744,0.1317877620458603,0.9822791218757629,-170.41015625,-251.46484375,-197.93701171875
4.486691236495972,-148008765,1,-0.23214617371559143,-0.4193862974643707,0.19156140089035034,483.45947265625,38.4521484375,-127.685546875
4.504533052444458,-148008746,1,-0.41647234559059143,-0.23896637558937073,0.20352429151535034,500.3662109375,44.189453125,-185.60791015625
4.520515203475952,-148008738,0,0.27961623668670654,0.3341803252696991,1.3345739841461182,-160.70556640625,-200.62255859375,-127.99072265625
4.520622253417969,-148008719,0,0.23249711096286774,0.5038580894470215,1.2334997653961182,-225.5859375,-110.41259765625,-135.07080078125
4.543178081512451,-148008727,1,-0.5221852660179138,0.02128753811120987,0.21914929151535034,438.78173828125,23.86474609375,-183.9599609375
4.543185234069824,-148008708,1,-0.5002126097679138,0.17289885878562927,0.27798718214035034,338.19580078125,-43.3349609375,-200.13427734375
4.550498008728027,-148008700,0,0.13581742346286774,0.3317389190196991,0.8528845906257629,-216.064453125,-76.2939453125,-91.12548828125
4.550611257553101,-148008681,0,0.27448928356170654,0.4533209502696991,0.6839392781257629,-167.78564453125,-53.89404296875,-3.72314453125
4.565331220626831,-148008689,1,-0.43746843934059143,0.20659026503562927,0.31778210401535034,284.11865234375,-75.13427734375,-252.86865234375
4.56541633605957,-148008670,1,-0.6005544066429138,0.4021469056606293,0.10879772901535034,287.53662109375,-109.80224609375,-303.77197265625
4.591048240661621,-148008662,0,0.34211623668670654,0.5729498863220215,0.5296424031257629,-112.36572265625,-9.09423828125,87.646484375
4.595694065093994,-148008651,1,-0.6842946410179138,0.4719711244106293,-0.03231555223464966,306.2744140625,-115.8447265625,-326.66015625
4.610495090484619,-148008643,0,0.5305927991867065,0.7450690269470215,0.39951545000076294,-138.24462890625,3.41796875,142.2119140625
4.610721111297607,-148008624,0,0.6199482679367065,0.7531256675720215,0.43686896562576294,-203.55224609375,45.59326171875,158.63037109375
4.635895013809204,-148008632,1,-0.7687672972679138,0.5249496698379517,-0.18246203660964966,315.73486328125,-139.16015625,-343.505859375
4.635906219482422,-148008613,1,-0.8908376097679138,0.4194808900356293,-0.46297961473464966,298.40087890625,-190.7958984375,-357.36083984375
4.642398357391357,-148008605,0,0.6382588148117065,0.6569342613220215,0.5108435750007629,-239.44091796875,98.7548828125,175.1708984375
4.65716028213501,-148008594,1,-0.7826833128929138,0.16923674941062927,-0.9703038334846497,248.47412109375,-231.0791015625,-408.87451171875
4.686177015304565,-148008586,0,0.6453388929367065,0.7079596519470215,0.47226935625076294,-235.595703125,144.1650390625,215.8203125
4.686185359954834,-148008567,0,0.7676533460617065,0.6547369956970215,0.49936896562576294,-243.10302734375,210.63232421875,274.47509765625
4.69115424156189,-148008575,1,-0.8234547972679138,-0.13813629746437073,-1.5125401020050049,220.703125,-208.43505859375,-508.544921875
4.691160202026367,-148008556,1,-0.9623708128929138,-0.2792495787143707,-1.7869541645050049,181.5185546875,-183.59375,-575.74462890625
4.703629016876221,-148008548,0,1.0113056898117065,0.6762213706970215,0.7813513875007629,-246.826171875,252.62451171875,317.3828125
4.717254161834717,-148008537,1,-1.106169581413269,-0.5102065801620483,-2.000821352005005,119.9951171875,-156.73828125,-633.48388671875
4.740263223648071,-148008529,0,1.2395771741867065,0.9774909019470215,1.2630407810211182,-299.4384765625,305.48095703125,340.75927734375
4.740271091461182,-148008510,0,1.2671650648117065,1.3209967613220215,1.6824743747711182,-357.11669921875,445.61767578125,288.2080078125
4.7485151290893555,-148008501,1,-2.8144216537475586,-0.8253921270370483,-2.115567445755005,114.80712890625,-58.16650390625,-859.68017578125
4.762353181838989,-148008474,0,1.2947529554367065,1.0202155113220215,1.3196814060211182,-181.45751953125,575.8056640625,180.908203125
4.788741111755371,-148008482,1,-4.346404075622559,-0.22944489121437073,-1.8282139301300049,129.7607421875,-40.83251953125,-870.42236328125
4.788748025894165,-148008463,1,-4.915251731872559,0.4475570619106293,-2.367276430130005,162.7197265625,63.78173828125,-770.263671875
4.795433282852173,-148008455,0,1.3350361585617065,1.0568366050720215,0.9766638875007629,-133.544921875,557.31201171875,185.05859375
4.807128190994263,-148008444,1,-4.802947044372559,0.8030258417129517,-2.398038148880005,106.689453125,214.90478515625,-615.17333984375
4.821578025817871,-148008436,0,1.1551045179367065,1.0902838706970215,0.7193396687507629,-140.44189453125,471.25244140625,164.9169921875
4.821608304977417,-148008417,0,0.9824970960617065,1.0883307456970215,0.5264685750007629,-94.66552734375,343.81103515625,119.9951171875
4.8453590869903564,-148008425,1,-4.321501731872559,0.6462875604629517,-1.5079014301300049,4.2724609375,285.33935546875,-369.32373046875
4.846673250198364,-148008406,1,-3.7345876693725586,0.2627426087856293,-0.5596593022346497,-49.13330078125,241.51611328125,-225.830078125
4.852334260940552,-148008398,0,0.7215107679367065,0.7938971519470215,0.26548224687576294,-12.14599609375,187.92724609375,39.24560546875
4.867207288742065,-148008387,1,-3.2824392318725586,0.4966293275356293,0.16006726026535034,-52.978515625,204.9560546875,-203.55224609375
4.8925230503082275,-148008379,0,0.38679397106170654,0.1833014339208603,0.22934943437576294,9.09423828125,103.1494140625,44.677734375
4.892540216445923,-148008360,0,0.16657914221286774,-0.11870051920413971,0.33310920000076294,-15.0146484375,74.5849609375,126.52587890625
4.895948171615601,-148008368,1,-3.0754079818725586,0.6897445917129517,0.47891491651535034,-11.41357421875,213.37890625,-199.951171875
4.895955324172974,-148008349,1,-2.7282400131225586,0.7339340448379517,0.9186121821403503,16.66259765625,226.4404296875,-149.90234375
4.912086009979248,-148008341,0,0.20442093908786774,-0.03642513230443001,0.5049842000007629,-31.1279296875,45.10498046875,181.15234375
4.912174224853516,-148008322,0,0.25593459606170654,-0.3838372528553009,0.6041052937507629,-16.54052734375,-47.607421875,158.935546875
4.937870264053345,-148008330,1,-2.0736989974975586,0.4841781556606293,1.3622157573699951,25.634765625,216.61376953125,-97.2900390625
4.937878131866455,-148008311,1,-1.899382472038269,0.14970549941062927,1.7674891948699951,53.77197265625,206.35986328125,-69.27490234375
4.942167043685913,-148008303,0,0.24909867346286774,-0.3398919403553009,1.7205603122711182,56.82373046875,-48.9501953125,126.15966796875
4.961838245391846,-148008292,1,-1.371306300163269,0.18144378066062927,1.7660243511199951,67.3828125,197.57080078125,-42.66357421875
4.970645189285278,-148008284,0,0.34675490856170654,-0.3159661591053009,2.082864999771118,125.6103515625,37.4755859375,132.50732421875
4.970752000808716,-148008265,0,0.32160842418670654,0.023877602070569992,2.052103281021118,162.9638671875,123.59619140625,114.3798828125
4.98873496055603,-148008273,1,-1.357634425163269,0.01909027248620987,1.4845302104949951,46.44775390625,252.74658203125,-41.748046875
5.003099203109741,-148008246,0,0.29792678356170654,0.2382330745458603,1.7864782810211182,168.212890625,158.02001953125,98.93798828125
5.015741348266602,-148008237,1,-1.416228175163269,-0.18842926621437073,1.4647548198699951,-74.27978515625,406.3720703125,113.83056640625
5.038019180297852,-148008210,0,0.5747822523117065,0.3065924346446991,1.7620642185211182,209.8388671875,185.302734375,-40.771484375
5.047123193740845,-148008218,1,-1.704558253288269,-0.6002944707870483,1.6478602886199951,-144.22607421875,420.10498046875,236.99951171875
5.047131299972534,-148008199,1,-1.643523097038269,-0.9240249395370483,1.7015712261199951,-101.86767578125,420.22705078125,311.09619140625
5.060632228851318,-148008191,0,0.6951435804367065,0.2929205596446991,1.6070349216461182,234.0087890625,249.6337890625,-91.6748046875
5.060757160186768,-148008172,0,0.5535420179367065,0.1862311214208603,1.1214392185211182,210.99853515625,268.61572265625,-96.25244140625
5.086237192153931,-148008180,1,-1.548308253288269,-1.2753432989120483,1.5426356792449951,-37.59765625,423.40087890625,316.95556640625
5.086244106292725,-148008161,1,-1.436980128288269,-1.5509780645370483,1.5499598979949951,39.61181640625,454.40673828125,275.5126953125
5.093835115432739,-148008153,0,0.35017287731170654,0.2863287627696991,0.7430213093757629,173.03466796875,171.5087890625,-80.62744140625
5.10546612739563,-148008142,1,-1.250944972038269,-1.4572280645370483,1.7626063823699951,110.65673828125,426.7578125,213.37890625
5.1205220222473145,-148008134,0,0.48420608043670654,0.5075201988220215,0.8086951375007629,209.3505859375,30.3955078125,-83.3740234375
5.12064528465271,-148008115,0,0.9134052991867065,0.7626471519470215,1.0481970310211182,232.60498046875,8.85009765625,-176.33056640625
5.142223119735718,-148008123,1,-0.9745778441429138,-1.5006850957870483,1.8627040386199951,137.8173828125,283.38623046875,170.10498046875
5.142230033874512,-148008104,1,-1.124235987663269,-1.3661636114120483,1.6432216167449951,157.5927734375,136.16943359375,136.53564453125
5.150728225708008,-148008096,0,1.0943135023117065,0.6842780113220215,1.4698278903961182,270.32470703125,69.03076171875,-283.87451171875
5.16522216796875,-148008085,1,-1.263396143913269,-1.2621597051620483,1.3714931011199951,210.51025390625,140.625,152.7099609375
5.189808130264282,-148008077,0,1.1302021741867065,0.4521002471446991,1.5601599216461182,320.61767578125,172.91259765625,-423.2177734375
5.190548419952393,-148008058,0,0.9822529554367065,0.1518072932958603,1.2359411716461182,305.23681640625,254.57763671875,-522.64404296875
5.195490121841431,-148008066,1,-1.446989893913269,-1.3312515020370483,1.3519618511199951,308.4716796875,251.52587890625,159.912109375
5.195605993270874,-148008047,1,-1.520476222038269,-1.4420913457870483,1.7709071636199951,337.34130859375,282.958984375,186.09619140625
5.210474967956543,-148008039,0,0.5667256116867065,-0.1968255192041397,0.7598670125007629,284.24072265625,201.11083984375,-571.96044921875
5.210558176040649,-148008020,0,0.28083693981170654,-0.5168938636779785,0.5906775593757629,271.97265625,84.228515625,-578.857421875
5.2353551387786865,-148008028,1,-1.478728175163269,-1.6698745489120483,1.6400477886199951,276.30615234375,214.4775390625,197.509765625
5.2404701709747314,-148008001,0,0.02815140411257744,-0.6423821449279785,0.6390174031257629,246.15478515625,-92.34619140625,-538.87939453125
5.255446195602417,-148008009,1,-1.671355128288269,-1.2772964239120483,1.3783290386199951,198.486328125,199.89013671875,249.8779296875
5.270653247833252,-148007982,0,-0.09880171716213226,-0.4221673309803009,0.8719275593757629,173.4619140625,-217.22412109375,-496.52099609375
5.289252281188965,-148007973,1,-1.623503565788269,-2.231153964996338,1.2381923198699951,32.2265625,360.90087890625,325.98876953125
5.289260149002075,-148007954,1,-1.665984034538269,-2.683790683746338,1.3404872417449951,21.66748046875,383.11767578125,262.26806640625
5.302914142608643,-148007946,0,0.04450882598757744,-0.7998528480529785,1.4112341403961182,78.0029296875,-416.259765625,-638.00048828125
5.315582990646362,-148007935,1,-1.716032862663269,-2.579298496246338,1.0502040386199951,-10.1318359375,329.04052734375,347.59521484375
5.338274240493774,-148007927,0,0.02863968536257744,-1.3889641761779785,1.7510778903961182,237.85400390625,-452.45361328125,-728.94287109375
5.338282108306885,-148007908,0,-0.14250288903713226,-1.9365715980529785,1.4839880466461182,324.951171875,-398.62060546875,-739.31884765625
5.345965147018433,-148007916,1,-1.420378565788269,-3.552443027496338,0.23648327589035034,-42.05322265625,239.3798828125,416.3818359375
5.345973014831543,-148007897,1,-1.044890284538269,-3.721632480621338,-0.19344836473464966,-72.1435546875,242.1875,316.40625
5.3622283935546875,-148007889,0,-0.6747294664382935,-1.8140130043029785,1.6456091403961182,114.013671875,-348.14453125,-589.90478515625
5.362303018569946,-148007870,0,-0.9757548570632935,-1.5041985511779785,1.9625036716461182,-93.75,-146.1181640625,-462.7685546875
5.386190176010132,-148007878,1,-0.41110125184059143,-3.561964511871338,0.05240124464035034,-26.3671875,357.177734375,47.119140625
5.394061088562012,-148007851,0,-0.9130107164382935,-1.5432610511779785,1.7593786716461182,-138.7939453125,32.77587890625,-359.619140625
5.406390190124512,-148007859,1,-0.21603289246559143,-2.627150058746338,0.31949108839035034,-8.11767578125,358.642578125,-66.89453125
5.406494379043579,-148007840,1,-0.15231218934059143,-2.081984043121338,0.39151257276535034,-154.052734375,222.22900390625,88.7451171875
5.436002016067505,-148007832,0,-0.5936747789382935,-1.3882317543029785,1.0389196872711182,-21.3623046875,135.07080078125,-269.47021484375
5.4360151290893555,-148007813,0,-0.07731734216213226,-0.9412102699279785,0.28159552812576294,99.91455078125,101.9287109375,-246.15478515625
5.44335412979126,-148007821,1,-0.029509462416172028,-2.312696933746338,0.22940319776535034,-255.67626953125,132.2021484375,190.97900390625
5.443362236022949,-148007802,1,-0.03292743116617203,-2.207228183746338,0.20035046339035034,-282.71484375,122.6806640625,118.896484375
5.452307224273682,-148007794,0,0.05232132598757744,-0.8308587074279785,0.0076697468757629395,150.57373046875,36.9873046875,-264.404296875
5.465214252471924,-148007783,1,-0.34298601746559143,-1.6051772832870483,0.28286999464035034,-250.91552734375,176.81884765625,38.6962890625
5.490715265274048,-148007775,0,0.15901078283786774,-0.8240227699279785,0.07993537187576294,201.2939453125,-7.568359375,-269.287109375
5.490722179412842,-148007756,0,0.22810257971286774,-0.7480950355529785,0.01377326250076294,205.56640625,-28.01513671875,-306.82373046875
5.495519399642944,-148007764,1,-0.44821062684059143,-1.1591323614120483,0.31411999464035034,-244.0185546875,194.091796875,17.578125
5.495604991912842,-148007745,1,-0.33151140809059143,-1.1061538457870483,0.31973522901535034,-260.55908203125,210.99853515625,15.93017578125
5.510615110397339,-148007737,0,0.06159866973757744,-0.8398919105529785,0.18931037187576294,261.71875,-40.58837890625,-242.61474609375
5.542978048324585,-148007718,0,0.12214554846286774,-0.6814446449279785,0.29746466875076294,327.45361328125,-50.4150390625,-141.845703125
5.555572986602783,-148007709,1,-0.36398211121559143,-0.7833999395370483,0.8194910883903503,-284.48486328125,212.646484375,-39.9169921875
5.555653095245361,-148007690,1,-0.5002126097679138,-0.2990249693393707,1.0172450542449951,-278.3203125,144.1650390625,-87.646484375
5.57053804397583,-148007682,0,0.48103225231170654,-0.3372063934803009,0.22666388750076294,307.9833984375,-77.33154296875,-56.94580078125
5.57065224647522,-148007663,0,0.5139912366867065,-0.2073235660791397,0.44004279375076294,220.52001953125,-97.16796875,-19.59228515625
5.590933084487915,-148007671,1,-0.6623219847679138,0.15287932753562927,1.0301845073699951,-294.61669921875,72.69287109375,-83.49609375
5.590940237045288,-148007652,1,-0.6357106566429138,0.2878890931606293,0.9713465571403503,-320.86181640625,17.578125,-61.21826171875
5.600391149520874,-148007644,0,0.42805373668670654,-0.2415032535791397,0.8616736531257629,210.0830078125,-102.84423828125,32.71484375
5.61555027961731,-148007633,1,-0.5485524535179138,0.2502914369106293,1.0196864604949951,-299.31640625,2.9296875,-67.7490234375
5.638902187347412,-148007625,0,0.36701858043670654,-0.2148919254541397,1.0352575778961182,310.60791015625,-98.0224609375,132.2021484375
5.639774322509766,-148007606,0,0.44904983043670654,-0.08256770670413971,1.0806677341461182,465.51513671875,-87.40234375,229.98046875
5.645513296127319,-148007614,1,-0.49288836121559143,0.3874984681606293,0.9855067133903503,-227.84423828125,10.3759765625,-78.06396484375
5.645603179931641,-148007595,1,-0.6379079222679138,0.5598617792129517,0.8663660883903503,-168.76220703125,13.48876953125,-80.078125
5.660752296447754,-148007587,0,0.5945576429367065,0.010938148945569992,0.9795935750007629,545.5322265625,-71.35009765625,323.2421875
5.688058137893677,-148007576,1,-0.6281422972679138,0.5591293573379517,0.8063074946403503,-169.921875,-8.4228515625,-89.05029296875
5.6925880908966064,-148007568,0,0.7464131116867065,0.2541022002696991,1.1824743747711182,560.11962890625,-12.939453125,415.34423828125
5.6925952434539795,-148007549,0,0.6883076429367065,0.5744147300720215,1.1556189060211182,497.55859375,23.13232421875,543.51806640625
5.705671310424805,-148007557,1,-0.6432790160179138,0.6128402948379517,0.6471278071403503,-193.17626953125,-42.66357421875,-92.4072265625
5.705792188644409,-148007538,1,-0.6442555785179138,0.6401840448379517,0.5726649165153503,-214.111328125,-61.1572265625,-99.853515625
5.720638990402222,-148007530,0,0.8225849866867065,1.0170416831970215,1.0145056247711182,396.8505859375,84.5947265625,605.89599609375
5.72078013420105,-148007511,0,1.2298115491867065,1.4530768394470215,0.9366248250007629,175.10986328125,253.90625,585.63232421875
5.740739107131958,-148007519,1,-0.7135915160179138,0.6057602167129517,0.5626551508903503,-217.041015625,-85.3271484375,-124.6337890625
5.740746021270752,-148007500,1,-0.7665700316429138,0.6719223260879517,0.5892664790153503,-195.37353515625,-106.0791015625,-166.6259765625
5.750706195831299,-148007492,0,1.4641865491867065,1.5138678550720215,0.8262732625007629,-55.60302734375,421.81396484375,528.74755859375
5.765516042709351,-148007481,1,-1.042937159538269,0.9280258417129517,0.6529871821403503,-180.2978515625,-120.9716796875,-187.8662109375
5.789760112762451,-148007473,0,1.5078877210617065,1.7189459800720215,-0.03310173749923706,-168.8232421875,284.1796875,484.7412109375
5.789768218994141,-148007454,0,1.7136982679367065,1.7978034019470215,-0.19399040937423706,-137.87841796875,4.7607421875,440.12451171875
5.7956342697143555,-148007445,1,-1.633269190788269,1.3130356073379517,0.49844616651535034,-105.8349609375,-152.7099609375,-68.42041015625
5.838972330093384,-148007426,1,-1.584196925163269,1.0979477167129517,0.19107311964035034,-100.09765625,-151.30615234375,-5.615234375
5.842761993408203,-148007418,0,2.215895652770996,1.7697272300720215,0.8853552937507629,-168.3349609375,-184.63134765625,369.68994140625
5.84276819229126,-148007399,0,2.322829246520996,1.8078131675720215,0.8687537312507629,-309.6923828125,-68.54248046875,286.376953125
5.855520009994507,-148007407,1,-1.321989893913269,0.9539047479629517,0.06143444776535034,-118.95751953125,-134.6435546875,-33.14208984375
5.855593204498291,-148007388,1,-1.369353175163269,1.0627914667129517,0.19668835401535034,-114.990234375,-150.390625,-60.48583984375
5.870770215988159,-148007380,0,2.349196434020996,2.0045905113220215,0.7508338093757629,-398.98681640625,-120.17822265625,148.62060546875
5.870779275894165,-148007361,0,2.488600730895996,2.3554205894470215,1.3194372653961182,-378.35693359375,-177.1240234375,-84.77783203125
5.8902740478515625,-148007369,1,-1.594694972038269,1.2205063104629517,0.22159069776535034,-104.4921875,-276.7333984375,-36.07177734375
5.890283107757568,-148007350,1,-1.744353175163269,1.2624984979629517,0.07974499464035034,-117.24853515625,-383.544921875,-7.6904296875
5.900398254394531,-148007342,0,2.277174949645996,2.2289557456970215,2.302347421646118,-440.185546875,-96.00830078125,-341.97998046875
5.915538311004639,-148007331,1,-1.688200831413269,1.1357895135879517,-0.05087023973464966,-127.62451171875,-412.04833984375,26.18408203125
5.937114238739014,-148007323,0,1.1870869398117065,0.7658209800720215,3.102152109146118,-401.4892578125,111.4501953125,-478.94287109375
5.937119960784912,-148007304,0,0.05940140411257744,0.2177252620458603,3.323831796646118,-325.98876953125,260.498046875,-468.75
5.94558310508728,-148007312,1,-1.404265284538269,0.9668442010879517,0.06875866651535034,-128.173828125,-368.71337890625,44.98291015625
5.945670127868652,-148007293,1,-1.354216456413269,0.8923813104629517,0.38907116651535034,-85.99853515625,-325.439453125,11.962890625
5.960479259490967,-148007285,0,-1.0243388414382935,-0.4456048309803009,2.906839609146118,-266.90673828125,337.58544921875,-504.39453125
5.985726356506348,-148007274,1,-1.502653956413269,0.9202133417129517,0.47867077589035034,-44.3115234375,-331.298828125,-6.28662109375
5.99046516418457,-148007266,0,-1.7474833726882935,-1.8938469886779785,2.026712656021118,-260.3759765625,311.8896484375,-508.60595703125
5.99057936668396,-148007247,0,-1.5634013414382935,-2.9348626136779785,1.4456579685211182,-169.12841796875,179.5654296875,-392.578125
6.005559206008911,-148007255,1,-1.532683253288269,1.0488754510879517,0.47427624464035034,-36.56005859375,-326.59912109375,54.62646484375
6.0056843757629395,-148007236,1,-1.128630518913269,0.5684067010879517,0.5377528071403503,-30.70068359375,-220.703125,61.21826171875
6.020414352416992,-148007228,0,-1.0502177476882935,-2.4036126136779785,0.42466193437576294,-28.4423828125,161.80419921875,-293.27392578125
6.040920257568359,-148007217,1,-1.014616847038269,0.5728012323379517,0.7054774165153503,32.470703125,-143.5546875,46.32568359375
6.050542116165161,-148007209,0,-0.5297099351882935,-2.0852532386779785,-0.23134392499923706,-31.43310546875,223.44970703125,-325.98876953125
6.0506272315979,-148007190,0,-0.20036421716213226,-1.7810540199279785,-0.6839806437492371,-71.8994140625,165.1611328125,-317.9931640625
6.065751075744629,-148007181,1,-1.075896143913269,0.5579086542129517,0.40982311964035034,74.3408203125,-123.22998046875,13.36669921875
6.0899882316589355,-148007154,0,1.2312763929367065,-1.3660149574279785,-0.24257439374923706,78.18603515625,48.33984375,-197.6318359375
6.097180128097534,-148007162,1,-1.029997706413269,0.4634262025356293,0.24185436964035034,70.1904296875,-100.64697265625,27.52685546875
6.097314119338989,-148007143,1,-0.7428883910179138,0.2712875306606293,0.22232311964035034,69.88525390625,-43.39599609375,32.53173828125
6.112306356430054,-148007135,0,0.8330830335617065,-1.3445305824279785,0.35410529375076294,399.7802734375,62.744140625,-81.6650390625
6.139817953109741,-148007124,1,-0.5314626097679138,0.2935043275356293,0.39419811964035034,114.990234375,8.9111328125,34.36279296875
6.145951271057129,-148007116,0,1.0520771741867065,-1.4924798011779785,0.18491584062576294,481.01806640625,-58.89892578125,-103.3935546875
6.145958185195923,-148007097,0,0.9607685804367065,-1.1067376136779785,0.36045295000076294,645.81298828125,-118.65234375,-42.6025390625
6.1572511196136475,-148007105,1,-0.5126637816429138,0.4729476869106293,0.5382410883903503,146.78955078125,36.31591796875,58.89892578125
6.157381296157837,-148007086,1,-0.34078875184059143,0.3237777650356293,0.29629772901535034,152.77099609375,10.92529296875,71.044921875
6.172269105911255,-148007078,0,1.0437763929367065,-1.0664544105529785,0.33091193437576294,790.283203125,-119.5068359375,64.14794921875
6.192377090454102,-148007067,1,-0.32418718934059143,0.4880844056606293,0.43789929151535034,59.2041015625,5.9814453125,33.0810546875
6.202311277389526,-148007059,0,1.4900654554367065,-0.8845696449279785,0.30430060625076294,819.2138671875,-51.57470703125,143.798828125
6.202444076538086,-148007040,0,1.8325947523117065,-0.8606438636779785,0.19443732500076294,749.8779296875,73.8525390625,215.33203125
6.2173449993133545,-148007048,1,-0.5441579222679138,0.7471176385879517,0.45205944776535034,-26.2451171875,33.447265625,121.88720703125
6.2174153327941895,-148007029,1,-0.5849294066429138,0.6460434198379517,0.6774012446403503,-50.47607421875,38.02490234375,189.5751953125
6.238951206207275,-148007021,0,2.008864402770996,-0.8818840980529785,0.11069709062576294,670.34912109375,183.53271484375,276.85546875
6.238959074020386,-148007002,0,2.393630027770996,-1.0542473793029785,-0.03847283124923706,585.51025390625,291.3818359375,333.43505859375
6.245706081390381,-148007010,1,-0.8207692503929138,0.8313461542129517,0.7833582758903503,-20.01953125,27.2216796875,260.43701171875
6.245783090591431,-148006991,1,-0.9870290160179138,1.0469223260879517,0.7521082758903503,16.6015625,11.77978515625,354.4921875
6.261312007904053,-148006983,0,2.542311668395996,-1.1672844886779785,-0.22182244062423706,519.34814453125,358.70361328125,349.853515625
6.289316177368164,-148006972,1,-1.220915675163269,0.9265609979629517,0.46548718214035034,18.73779296875,7.4462890625,445.9228515625
6.293718099594116,-148006964,0,2.593825340270996,-1.2007317543029785,-0.38490837812423706,481.01806640625,350.7080078125,332.763671875
6.293725252151489,-148006945,0,2.592360496520996,-1.3867669105529785,-0.5013634562492371,491.8212890625,292.05322265625,331.11572265625
6.306167125701904,-148006953,1,-1.025114893913269,0.8733383417129517,0.10611218214035034,-84.53369140625,60.11962890625,451.66015625
6.321020126342773,-148006926,0,2.358962059020996,-1.4275383949279785,-0.5753380656242371,537.41455078125,160.46142578125,317.81005859375
6.341747283935547,-148006917,1,-0.9032887816429138,0.6753402948379517,0.42618054151535034,-104.00390625,200.98876953125,367.919921875
6.350754022598267,-148006890,0,2.122145652770996,-1.6106438636779785,-0.6910607218742371,513.12255859375,-66.162109375,267.2119140625
6.3654961585998535,-148006898,1,-0.9960622191429138,0.7129379510879517,0.6214930415153503,-77.33154296875,228.8818359375,364.56298828125
6.365606307983398,-148006879,1,-1.172575831413269,0.6999984979629517,0.8409754633903503,-79.52880859375,247.00927734375,391.66259765625
6.387210130691528,-148006871,0,1.9761494398117065,-1.4531731605529785,-0.6627404093742371,438.3544921875,-88.0126953125,214.84375
6.387217283248901,-148006852,0,1.9580830335617065,-1.3682122230529785,-0.7774865031242371,399.59716796875,-117.73681640625,129.82177734375
6.395723104476929,-148006860,1,-1.257780909538269,0.7517563104629517,1.1632411479949951,-108.82568359375,255.9814453125,438.5986328125
6.395827293395996,-148006841,1,-1.076628565788269,0.5386215448379517,1.4298427104949951,-151.30615234375,251.46484375,533.63037109375
6.410776138305664,-148006833,0,1.9868916273117065,-1.4853997230529785,-0.9200646281242371,342.46826171875,-113.34228515625,-48.03466796875
6.4368202686309814,-148006822,1,-0.7006520628929138,0.01982269436120987,1.8207118511199951,-160.7666015625,251.89208984375,590.6982421875
6.442583084106445,-148006814,0,1.5425556898117065,-1.8723626136779785,-0.9947716593742371,232.5439453125,-93.20068359375,-212.21923828125
6.442592144012451,-148006795,0,1.3479756116867065,-2.1829094886779785,-1.0887658596038818,204.65087890625,-94.42138671875,-241.88232421875
6.455556154251099,-148006803,1,-0.33126726746559143,-0.3085464537143707,2.224520444869995,-93.75,271.66748046875,562.3779296875
6.455641269683838,-148006784,1,-0.28024187684059143,-0.3690933287143707,2.431307554244995,8.11767578125,277.77099609375,521.8505859375
6.470497131347656,-148006776,0,1.3875263929367065,-1.9853997230529785,-1.1288049221038818,214.66064453125,-96.37451171875,-258.11767578125
6.491720199584961,-148006765,1,0.07498272508382797,-0.8087905645370483,2.144930601119995,24.71923828125,227.294921875,508.23974609375
6.500388145446777,-148006757,0,1.1250752210617065,-1.8335442543029785,-1.0404260158538818,146.8505859375,-81.11572265625,-340.75927734375
6.500536203384399,-148006738,0,0.7300556898117065,-1.7666497230529785,-0.6886193156242371,113.70849609375,-88.2568359375,-357.48291015625
6.517533302307129,-148006746,1,0.10769756883382797,-1.0009292364120483,1.8358485698699951,5.06591796875,194.2138671875,464.53857421875
6.517544269561768,-148006727,1,0.006623350083827972,-1.1095718145370483,1.7699306011199951,8.1787109375,198.73046875,426.8798828125
6.539147138595581,-148006719,0,0.5906513929367065,-1.3003411293029785,-0.6449181437492371,114.1357421875,-118.34716796875,-338.0126953125
6.539153337478638,-148006700,0,0.47053420543670654,-1.0872063636779785,-0.5858361124992371,87.646484375,-134.82666015625,-326.96533203125
6.545726299285889,-148006708,1,-0.16671648621559143,-1.1530288457870483,1.6568934917449951,70.37353515625,228.57666015625,382.38525390625
6.560976266860962,-148006681,0,0.37654006481170654,-0.9885735511779785,-0.6229454874992371,47.9736328125,-132.14111328125,-332.03125
6.585885286331177,-148006689,1,-0.17819109559059143,-1.4127944707870483,1.5055263042449951,153.4423828125,168.76220703125,337.890625
6.590772390365601,-148006662,0,0.30329787731170654,-0.9316887855529785,-0.48720329999923706,-14.892578125,-138.12255859375,-316.40625
6.6055381298065186,-148006653,1,-0.21725359559059143,-0.9037612676620483,1.2218348979949951,240.05126953125,17.7001953125,152.587890625
6.605654001235962,-148006634,1,-0.49142351746559143,-0.3046402037143707,0.7906824946403503,256.8359375,0.48828125,145.6298828125
6.620683193206787,-148006626,0,0.17561234533786774,-0.5535149574279785,-0.10683220624923706,-42.48046875,-148.62060546875,-279.541015625
6.640411138534546,-148006615,1,-0.45211687684059143,-0.14961090683937073,0.7394129633903503,279.96826171875,23.5595703125,156.18896484375
6.65051531791687,-148006607,0,0.22321976721286774,-0.4338860809803009,0.0044959187507629395,-46.0205078125,-134.6435546875,-280.33447265625
6.650592088699341,-148006588,0,0.27546584606170654,-0.2803216278553009,0.07432013750076294,-69.580078125,-133.4228515625,-256.9580078125
6.665560245513916,-148006596,1,-0.29196062684059143,-0.11445464938879013,0.6715418696403503,399.169921875,12.451171875,114.2578125
6.665646076202393,-148006577,1,-0.33175554871559143,-0.06391754001379013,0.44571179151535034,429.443359375,-14.70947265625,96.435546875
6.688584327697754,-148006569,0,0.46809279918670654,-0.3149895966053009,0.26401740312576294,-138.61083984375,-116.3330078125,-204.1015625
6.689427375793457,-148006550,0,0.35481154918670654,-0.04423763230443001,0.39097052812576294,-182.2509765625,-61.21826171875,-182.861328125
6.696947336196899,-148006558,1,-0.14791765809059143,0.03569183498620987,0.16348522901535034,423.27880859375,-28.86962890625,32.958984375
6.710719108581543,-148006531,0,0.29524123668670654,0.10517643392086029,0.43271857500076294,-205.2001953125,11.16943359375,-178.03955078125
6.73675012588501,-148006539,1,-0.25314226746559143,-0.01631011813879013,0.29068249464035034,351.01318359375,-10.25390625,-14.2822265625
6.736757040023804,-148006520,1,-0.17062273621559143,0.01249847561120987,0.38565319776535034,332.45849609375,-26.4892578125,-69.7021484375
6.7425031661987305,-148006512,0,0.18562211096286774,0.12373112142086029,0.34092170000076294,-233.7646484375,69.9462890625,-150.5126953125
6.742510080337524,-148006493,0,0.15583695471286774,0.022901039570569992,0.37095099687576294,-245.54443359375,89.90478515625,-109.4970703125
6.755580186843872,-148006501,1,-0.33932390809059143,0.08842620998620987,0.6119715571403503,328.91845703125,-14.34326171875,-149.7802734375
6.755700349807739,-148006482,1,-0.23873797059059143,0.23124846816062927,0.40933483839035034,351.62353515625,-55.48095703125,-191.5283203125
6.77060604095459,-148006474,0,0.05476273223757744,0.1762213557958603,0.43491584062576294,-192.56591796875,91.97998046875,-15.9912109375
6.792184114456177,-148006463,1,-0.33053484559059143,0.3948226869106293,0.22012585401535034,339.17236328125,-97.35107421875,-239.68505859375
6.800490140914917,-148006455,0,0.16950882971286774,0.3048834502696991,0.43198615312576294,-168.02978515625,85.38818359375,38.14697265625
6.80058217048645,-148006436,0,0.30403029918670654,0.3883795440196991,0.42612677812576294,-160.46142578125,122.74169921875,68.54248046875
6.8152711391448975,-148006444,1,-0.36373797059059143,0.4507308900356293,0.08096569776535034,296.20361328125,-144.22607421875,-271.728515625
6.815406084060669,-148006425,1,-0.46505632996559143,0.4004379212856293,-0.13461047410964966,249.0234375,-199.40185546875,-339.53857421875
6.8381922245025635,-148006417,0,0.47199904918670654,0.4547857940196991,0.48520880937576294,-197.8759765625,131.53076171875,97.0458984375
6.845289945602417,-148006389,1,-0.8776540160179138,0.24687346816062927,-0.7144444584846497,257.9345703125,-224.2431640625,-498.291015625
6.863862037658691,-148006398,0,0.5296162366867065,0.5070319175720215,0.6207068562507629,-255.37109375,169.12841796875,121.2158203125
6.886445045471191,-148006370,1,-1.193327784538269,0.16801604628562927,-1.0237705707550049,266.11328125,-219.42138671875,-557.43408203125
6.890609264373779,-148006362,0,0.6734150648117065,0.5204596519470215,0.7896521687507629,-291.1376953125,183.7158203125,179.74853515625
6.89061713218689,-148006343,0,0.6839131116867065,0.4896979033946991,0.8616736531257629,-261.90185546875,152.16064453125,200.98876953125
6.908472061157227,-148006351,1,-1.609343409538269,0.06108245998620987,-1.1560947895050049,224.4873046875,-258.056640625,-603.69873046875
6.908483266830444,-148006332,1,-1.985808253288269,-0.02339019626379013,-1.2017490863800049,153.80859375,-305.35888671875,-634.6435546875
6.920515060424805,-148006324,0,0.7305439710617065,0.5089850425720215,0.9075720906257629,-200.25634765625,103.57666015625,212.2802734375
6.942422151565552,-148006313,1,-2.5578298568725586,0.08476410061120987,-1.1138584613800049,72.1435546875,-312.01171875,-646.78955078125
6.955049276351929,-148006305,0,0.7705830335617065,0.4372076690196991,0.9837439656257629,-159.423828125,67.81005859375,216.064453125
6.9550621509552,-148006286,0,0.8289326429367065,0.4030279815196991,1.0779821872711182,-129.57763671875,67.3828125,256.89697265625
6.965713262557983,-148006294,1,-2.8925466537475586,0.16606292128562927,-1.2088291645050049,71.96044921875,-256.04248046875,-629.7607421875
6.96586012840271,-148006275,1,-3.0575857162475586,-0.12397613376379013,-1.3614170551300049,104.67529296875,-135.986328125,-660.94970703125
6.990349054336548,-148006267,0,0.9236592054367065,0.4694342315196991,1.0745642185211182,-102.72216796875,69.39697265625,311.5234375
6.996088027954102,-148006256,1,-3.3752126693725586,-0.23213043808937073,-1.3260166645050049,97.22900390625,-69.091796875,-700.13427734375
7.038938283920288,-148006237,1,-3.7282400131225586,-0.08881988376379013,-1.3194248676300049,56.33544921875,-26.3671875,-692.3828125
7.038950204849243,-148006218,1,-4.116667747497559,0.19633635878562927,-1.3345615863800049,40.283203125,38.330078125,-594.90966796875
7.047773361206055,-148006248,0,1.2495869398117065,0.9784674644470215,1.0709021091461182,-58.4716796875,74.03564453125,305.60302734375
7.047781229019165,-148006229,0,1.4153584241867065,1.2589850425720215,1.0015661716461182,-41.07666015625,136.04736328125,148.4375
7.047787189483643,-148006210,0,1.3260029554367065,0.8905768394470215,0.9161170125007629,-77.33154296875,212.95166015625,64.697265625
7.047792196273804,-148006191,0,1.1416767835617065,0.5749030113220215,0.8541052937507629,-105.28564453125,315.7958984375,94.42138671875
7.055472135543823,-148006199,1,-3.9748220443725586,0.4783187806606293,-1.4583408832550049,48.52294921875,155.21240234375,-476.50146484375
7.055555105209351,-148006180,1,-3.9140310287475586,0.5029770135879517,-1.0035068988800049,15.869140625,251.5869140625,-374.69482421875
7.070627212524414,-148006172,0,1.2198017835617065,0.9430670738220215,0.9847205281257629,-90.087890625,395.99609375,105.46875
7.095969200134277,-148006161,1,-3.4106130599975586,0.6186996698379517,-0.008389770984649658,-40.46630859375,295.47119140625,-285.70556640625
7.102191209793091,-148006153,0,0.8438252210617065,0.8590826988220215,0.8467810750007629,-82.45849609375,449.27978515625,-38.51318359375
7.102313280105591,-148006134,0,0.24348343908786774,0.10322330892086029,0.6990759968757629,-80.74951171875,422.42431640625,-84.47265625
7.117110013961792,-148006125,1,-1.917204737663269,0.9150863885879517,1.1527431011199951,-10.25390625,197.20458984375,-180.35888671875
7.147763252258301,-148006106,1,-1.419157862663269,0.8713852167129517,1.2892177104949951,5.615234375,130.79833984375,-172.42431640625
7.160430192947388,-148006098,0,-0.35466110706329346,-0.04350521042943001,1.1141149997711182,24.0478515625,191.71142578125,106.201171875
7.160580158233643,-148006079,0,-0.37297165393829346,0.10346744954586029,1.4842321872711182,90.6982421875,147.15576171875,130.7373046875
7.18600606918335,-148006087,1,-1.081511378288269,0.5151840448379517,1.1922938823699951,3.41796875,89.17236328125,-165.0390625
7.186014175415039,-148006068,1,-0.8383473753929138,0.22685393691062927,1.1415126323699951,0.18310546875,109.2529296875,-199.15771484375
7.190486192703247,-148006060,0,-0.01603804901242256,0.2267584651708603,1.6829626560211182,151.67236328125,161.4990234375,123.53515625
7.19054913520813,-148006041,0,-0.03874312713742256,0.2382330745458603,1.2474157810211182,144.95849609375,135.43701171875,141.17431640625
7.207895040512085,-148006049,1,-0.36959734559059143,-0.03535308688879013,1.6827723979949951,-5.7373046875,163.818359375,-217.1630859375
7.207905054092407,-148006030,1,-0.7485036253929138,0.3816390931606293,1.3258388042449951,50.72021484375,240.78369140625,-187.255859375
7.220393180847168,-148006022,0,0.13825882971286774,0.3212408721446991,1.2413122653961182,180.35888671875,73.18115234375,181.884765625
7.239850997924805,-148006011,1,-0.5478200316429138,0.3110824525356293,1.5282313823699951,14.892578125,223.9990234375,-145.6298828125
7.253114223480225,-148006003,0,0.32575881481170654,0.3751959502696991,1.3436071872711182,327.5146484375,45.83740234375,205.56640625
7.253125190734863,-148005984,0,0.7080830335617065,0.2667975127696991,1.2142126560211182,418.5791015625,80.99365234375,170.22705078125
7.265702247619629,-148005992,1,-0.5295094847679138,0.15995940566062927,1.5477626323699951,-4.57763671875,235.77880859375,-125.67138671875
7.265822172164917,-148005973,1,-0.6598805785179138,0.08720550686120987,1.5836513042449951,-9.09423828125,255.37109375,-134.21630859375
7.28863000869751,-148005965,0,1.2508076429367065,0.3292975127696991,0.8514197468757629,342.4072265625,142.822265625,87.5244140625
7.300628185272217,-148005954,1,-0.8417653441429138,0.01030120998620987,1.6019618511199951,-3.84521484375,291.07666015625,-122.61962890625
7.310546159744263,-148005946,0,1.3235615491867065,0.1500983089208603,0.6314490437507629,164.6728515625,133.6669921875,-5.9814453125
7.310638189315796,-148005927,0,1.3501728773117065,0.1344733089208603,0.7635291218757629,122.86376953125,-4.33349609375,-76.35498046875
7.336165189743042,-148005935,1,-0.9374684691429138,-0.14570465683937073,1.6366298198699951,8.056640625,352.9052734375,-79.58984375
7.336172103881836,-148005916,1,-1.025847315788269,-0.2892593443393707,1.7267177104949951,6.34765625,417.724609375,-16.357421875
7.340593338012695,-148005908,0,1.4402607679367065,0.1864752620458603,0.9607947468757629,116.69921875,-69.9462890625,-156.25
7.355595111846924,-148005897,1,-1.045378565788269,-0.4240249693393707,1.9462001323699951,4.7607421875,465.14892578125,42.66357421875
7.370601177215576,-148005889,0,1.4090107679367065,0.2680182158946991,1.0250036716461182,90.9423828125,-55.0537109375,-298.15673828125
7.370687961578369,-148005870,0,1.2178486585617065,0.2135748714208603,1.0672399997711182,65.5517578125,-44.25048828125,-417.236328125
7.392641067504883,-148005861,1,-0.9267262816429138,-0.8197768926620483,2.292391538619995,25.2685546875,481.201171875,131.4697265625
7.400604248046875,-148005834,0,0.7586201429367065,0.10078190267086029,1.2549841403961182,57.2509765625,-60.791015625,-588.5009765625
7.415739297866821,-148005842,1,-0.8315114378929138,-1.1667007207870483,2.513827085494995,24.84130859375,465.9423828125,175.59814453125
7.415853023529053,-148005823,1,-0.9335622191429138,-1.3053725957870483,2.370272397994995,89.4775390625,468.505859375,144.10400390625
7.440141201019287,-148005815,0,0.6687763929367065,0.1393561214208603,1.3296911716461182,45.5322265625,-75.01220703125,-660.21728515625
7.445684194564819,-148005804,1,-1.207976222038269,-1.3620132207870483,2.232821226119995,106.3232421875,456.23779296875,176.81884765625
7.460418224334717,-148005796,0,0.5266865491867065,0.05219791457056999,1.4668982028961182,36.31591796875,-110.65673828125,-727.96630859375
7.460505247116089,-148005777,0,0.47053420543670654,-0.1387200504541397,1.6385290622711182,24.10888671875,-150.81787109375,-751.89208984375
7.486592054367065,-148005785,1,-1.396208643913269,-1.8876479864120483,2.142977476119995,33.75244140625,426.513671875,238.70849609375
7.4865992069244385,-148005766,1,-1.513884425163269,-2.277296543121338,2.156649351119995,-14.0380859375,418.212890625,347.47314453125
7.4906392097473145,-148005758,0,0.21003617346286774,-0.4087395966053009,1.7356970310211182,0.9765625,-190.12451171875,-755.0048828125
7.505563259124756,-148005747,1,-1.547087550163269,-2.678663730621338,2.179842710494995,-20.8740234375,396.728515625,410.82763671875
7.520637273788452,-148005739,0,-1.1400614976882935,-2.2915520668029785,0.27231818437576294,46.2646484375,-368.1640625,-628.5400390625
7.520787239074707,-148005720,0,0.6912373304367065,-0.5027337074279785,1.3543493747711182,121.826171875,-672.4853515625,-351.37939453125
7.541550159454346,-148005728,1,-1.464568018913269,-3.906691074371338,1.7818934917449951,20.01953125,326.5380859375,435.05859375
7.541558027267456,-148005709,1,-1.021208643913269,-3.217726230621338,1.1368739604949951,25.57373046875,335.693359375,320.86181640625
7.550433158874512,-148005701,0,0.18830765783786774,-0.1331048160791397,2.309427499771118,-111.14501953125,-528.99169921875,-465.9423828125
7.5505290031433105,-148005682,0,-0.5919657945632935,-0.4524407684803009,2.673685312271118,-194.091796875,-156.55517578125,-587.158203125
7.5654332637786865,-148005690,1,-0.6913747191429138,-3.487501621246338,1.1676356792449951,18.6767578125,419.7998046875,159.60693359375
7.56555700302124,-148005671,1,-0.36007586121559143,-2.883985996246338,1.1232020854949951,-18.00537109375,395.20263671875,123.4130859375
7.589033365249634,-148005663,0,-0.9435282945632935,-0.9021477699279785,2.034281015396118,-186.4013671875,81.4208984375,-483.21533203125
7.597212314605713,-148005652,1,-0.11129657179117203,-2.443312168121338,0.9337489008903503,-99.853515625,276.42822265625,175.537109375
7.61225438117981,-148005644,0,-0.7528544664382935,-1.1555657386779785,1.2435095310211182,-170.2880859375,64.14794921875,-391.7236328125
7.612399101257324,-148005625,0,-0.34025681018829346,-1.3528313636779785,0.5701697468757629,-133.9111328125,2.8076171875,-395.20263671875
7.637777328491211,-148005633,1,0.005646787583827972,-2.437208652496338,0.5194422602653503,-164.794921875,190.0634765625,226.25732421875
7.6428632736206055,-148005606,0,-0.28386032581329346,-1.3193840980529785,0.36973029375076294,-46.630859375,1.03759765625,-413.26904296875
7.657205104827881,-148005597,1,-0.08907977491617203,-2.194288730621338,0.09927624464035034,-244.9951171875,176.94091796875,175.10986328125
7.685600996017456,-148005570,0,0.03864945098757744,-0.9919915199279785,0.13291388750076294,153.9306640625,58.28857421875,-264.09912109375
7.692030191421509,-148005578,1,-0.08761493116617203,-1.7001479864120483,0.09634655714035034,-278.9306640625,188.29345703125,127.74658203125
7.692037105560303,-148005559,1,-0.5209645628929138,-1.2448257207870483,0.34439343214035034,-287.53662109375,175.35400390625,119.62890625
7.702373266220093,-148005551,0,0.5381611585617065,-0.6189446449279785,0.15244513750076294,228.57666015625,44.37255859375,-202.33154296875
7.702502250671387,-148005532,0,0.13337601721286774,-0.6103997230529785,0.36533576250076294,276.611328125,-1.40380859375,-177.490234375
7.716974258422852,-148005540,1,-0.45699968934059143,-1.0473159551620483,0.20962780714035034,-341.36962890625,154.35791015625,167.724609375
7.716997146606445,-148005521,1,-0.6061696410179138,-0.8710464239120483,0.28995007276535034,-348.32763671875,176.94091796875,165.283203125
7.740688323974609,-148005513,0,0.26789748668670654,-0.5349602699279785,0.31479865312576294,365.78369140625,-42.8466796875,-151.67236328125
7.747164249420166,-148005502,1,-0.5944508910179138,-0.5695327520370483,0.27310436964035034,-313.4765625,256.4697265625,150.390625
7.761242151260376,-148005494,0,0.15217484533786774,-0.5190911293029785,0.10117560625076294,371.15478515625,-67.56591796875,-95.0927734375
7.761343002319336,-148005475,0,0.21321000158786774,-0.2690911591053009,0.17905646562576294,328.91845703125,-96.49658203125,-39.6728515625
7.786245107650757,-148005483,1,-0.6105641722679138,-0.4301284849643707,0.6244227290153503,-259.70458984375,309.326171875,66.71142578125
7.786252021789551,-148005464,1,-0.49996843934059143,-0.11933746188879013,0.7884852290153503,-207.70263671875,306.396484375,20.5078125
7.792180299758911,-148005456,0,0.27961623668670654,-0.1951165348291397,0.40879279375076294,286.31591796875,-98.388671875,2.3193359375
7.8070762157440186,-148005445,1,-0.5822438597679138,0.02177581936120987,0.8292567133903503,-234.375,247.25341796875,18.9208984375
7.823812246322632,-148005437,0,0.45002639293670654,-0.2026848942041397,0.6456092000007629,295.8984375,-91.9189453125,72.20458984375
7.835503101348877,-148005418,0,0.44221389293670654,-0.1704583317041397,0.6622107625007629,396.42333984375,-128.11279296875,139.95361328125
7.840134143829346,-148005426,1,-0.5470876097679138,0.2612777650356293,0.7894617915153503,-265.869140625,191.22314453125,28.564453125
7.84014105796814,-148005407,1,-0.5092458128929138,0.3481918275356293,0.7608973383903503,-300.84228515625,123.1689453125,8.6669921875
7.851957082748413,-148005399,0,0.6614521741867065,0.08515690267086029,0.7066443562507629,449.64599609375,-128.11279296875,225.5859375
7.852089166641235,-148005380,0,0.8938740491867065,0.4691900908946991,0.8936560750007629,460.44921875,-76.59912109375,246.76513671875
7.865560054779053,-148005388,1,-0.5758962035179138,0.5310531854629517,0.6910731196403503,-295.95947265625,93.1396484375,-10.80322265625
7.888594150543213,-148005361,0,1.0091084241867065,0.6127448081970215,1.0355017185211182,422.18017578125,41.93115234375,282.04345703125
7.90148401260376,-148005369,1,-0.42111101746559143,0.5015121698379517,0.6197840571403503,-285.33935546875,92.4072265625,-25.93994140625
7.912314176559448,-148005342,0,1.2173603773117065,0.6811041831970215,1.0005896091461182,387.8173828125,175.10986328125,332.21435546875
7.93582820892334,-148005333,1,-0.36984148621559143,0.4709945619106293,0.8026453852653503,-274.96337890625,46.7529296875,-97.65625
7.935835123062134,-148005314,1,-0.46041765809059143,0.5051742792129517,0.9276453852653503,-281.494140625,-42.78564453125,-159.912109375
7.944886207580566,-148005306,0,1.3504170179367065,1.0360846519470215,0.5606482625007629,159.36279296875,390.80810546875,428.955078125
7.957095146179199,-148005295,1,-0.5939626097679138,0.5652328729629517,0.9481531977653503,-288.2080078125,-126.03759765625,-211.85302734375
7.970678091049194,-148005287,0,1.5677021741867065,1.1452155113220215,0.42978888750076294,-26.7333984375,399.59716796875,484.68017578125
7.970699071884155,-148005268,0,1.7893818616867065,1.1002936363220215,0.42246466875076294,-137.8173828125,361.51123046875,519.04296875
7.992875099182129,-148005276,1,-0.9369801878929138,0.5378891229629517,1.1202723979949951,-249.755859375,-151.3671875,-265.19775390625
7.992882251739502,-148005257,1,-1.347380518913269,0.6658188104629517,1.2301356792449951,-169.73876953125,-174.86572265625,-295.59326171875
8.002108335494995,-148005249,0,1.9317158460617065,1.1093268394470215,0.46567755937576294,-179.0771484375,252.62451171875,541.50390625
8.002188205718994,-148005230,0,2.220290184020996,1.2445807456970215,0.44199591875076294,-217.59033203125,134.70458984375,535.400390625
8.01726222038269,-148005238,1,-1.402068018913269,0.8147445917129517,1.1996181011199951,-94.482421875,-228.45458984375,-270.263671875
8.042169094085693,-148005211,0,2.471755027770996,1.1835455894470215,0.5564978718757629,-267.63916015625,26.0009765625,541.8701171875
8.04718828201294,-148005219,1,-1.379362940788269,0.6887680292129517,0.9110438227653503,-63.78173828125,-287.29248046875,-229.06494140625
8.047269105911255,-148005200,1,-1.407439112663269,0.5371567010879517,0.6996180415153503,-76.59912109375,-337.09716796875,-231.01806640625
8.062031269073486,-148005192,0,2.559889793395996,1.1483893394470215,0.7256873250007629,-317.7490234375,-99.2431640625,557.12890625
8.062132358551025,-148005173,0,2.687087059020996,1.1229987144470215,0.8211463093757629,-353.45458984375,-253.60107421875,558.65478515625
8.075639009475708,-148005181,1,-1.723357081413269,0.7612777948379517,0.5753504633903503,-65.97900390625,-378.23486328125,-227.294921875
8.092427015304565,-148005162,1,-1.886687159538269,0.8672348260879517,0.45132702589035034,-64.27001953125,-395.44677734375,-165.0390625
8.096875190734863,-148005154,0,2.903151512145996,0.9784674644470215,1.0562536716461182,-349.2431640625,-446.4111328125,562.8662109375
8.106764078140259,-148005143,1,-1.797331690788269,0.8357406854629517,0.28384655714035034,-49.4384765625,-366.0888671875,-74.3408203125
8.122079372406006,-148005135,0,3.286208152770996,0.8874030113220215,1.4114782810211182,-299.4384765625,-569.9462890625,584.53369140625
8.122197151184082,-148005116,0,3.716628074645996,1.1666998863220215,1.9258825778961182,-247.1923828125,-587.46337890625,546.56982421875
8.139043092727661,-148005124,1,-1.737517237663269,0.5630356073379517,0.03750866651535034,-11.8408203125,-281.06689453125,-47.4853515625
8.13905119895935,-148005105,1,-1.599577784538269,0.7490707635879517,0.17105358839035034,-3.2958984375,-224.12109375,-24.2919921875
8.15220022201538,-148005097,0,3.520827293395996,1.6488776206970215,2.285257577896118,-194.9462890625,-468.1396484375,368.1640625
8.166954040527344,-148005069,1,-1.398650050163269,0.5054184198379517,0.8165614008903503,21.54541015625,-153.4423828125,50.9033203125
8.18900203704834,-148005078,0,2.443190574645996,1.5958991050720215,2.682230234146118,-116.27197265625,-291.748046875,111.4501953125
8.195665121078491,-148005050,1,-1.344450831413269,0.5041977167129517,0.5206629633903503,59.814453125,-128.11279296875,44.86083984375
8.210689067840576,-148005042,0,0.49201858043670654,0.2594732940196991,2.166361093521118,-18.9208984375,-243.22509765625,130.31005859375
8.21074914932251,-148005023,0,0.41316115856170654,0.1525397151708603,2.296732187271118,24.47509765625,-337.890625,294.3115234375
8.237231254577637,-148005031,1,-0.9335622191429138,0.4517074525356293,0.41836804151535034,18.49365234375,-79.7119140625,39.794921875
8.237239122390747,-148005012,1,-1.126921534538269,0.4028793275356293,0.32193249464035034,37.17041015625,-57.0068359375,24.658203125
8.241754293441772,-148005004,0,0.7935322523117065,0.5548834800720215,2.235208749771118,11.5966796875,-377.01416015625,336.73095703125
8.255810022354126,-148004993,1,-0.8866872191429138,0.2827621400356293,0.6507899165153503,11.962890625,-71.77734375,128.0517578125
8.270740985870361,-148004985,0,0.20588578283786774,0.3329596221446991,2.383157968521118,23.681640625,-309.99755859375,285.7666015625
8.270868301391602,-148004966,0,0.15876664221286774,0.008008461445569992,1.6595251560211182,2.685546875,-266.29638671875,228.3935546875
8.29179334640503,-148004974,1,-0.7763356566429138,0.2737289369106293,0.5011317133903503,0.67138671875,-72.1435546875,126.89208984375
8.291802167892456,-148004955,1,-0.31100359559059143,0.01616058498620987,0.43008679151535034,-41.50390625,-38.87939453125,121.76513671875
8.300494194030762,-148004947,0,-0.13762007653713226,0.013623695820569992,1.9954626560211182,2.62451171875,-255.31005859375,178.28369140625
8.315710306167603,-148004936,1,-0.6330251097679138,0.4202133119106293,0.33706921339035034,-13.61083984375,30.09033203125,136.1083984375
8.340206146240234,-148004928,0,-0.06779585778713226,0.020947914570569992,1.8047888278961182,52.91748046875,-259.33837890625,99.79248046875
8.340214014053345,-148004909,0,-0.33390915393829346,-0.8572258949279785,1.4515173435211182,18.4326171875,-316.5283203125,79.52880859375
8.345572233200073,-148004917,1,-0.23947039246559143,0.2556625306606293,0.9256922602653503,30.8837890625,18.798828125,142.02880859375
8.345695972442627,-148004898,1,-0.44186297059059143,0.5464340448379517,1.0802333354949951,45.5322265625,-21.728515625,147.15576171875
8.360499382019043,-148004890,0,-0.15055952966213226,-0.9675774574279785,1.2510778903961182,-12.39013671875,-416.50390625,127.01416015625
8.360597133636475,-148004871,0,0.11457718908786774,-0.8745598793029785,1.3123571872711182,-61.767578125,-485.04638671875,118.0419921875
8.388810157775879,-148004879,1,-0.5605153441429138,0.6587387323379517,0.8951746821403503,19.83642578125,-36.07177734375,187.43896484375
8.388818264007568,-148004860,1,-0.5798024535179138,0.6941391229629517,0.8439051508903503,-28.3203125,-33.38623046875,218.3837890625
8.39520001411438,-148004852,0,0.25471389293670654,-0.9333977699279785,1.7022497653961182,-92.6513671875,-538.818359375,30.517578125
8.40709400177002,-148004841,1,-0.6559743285179138,0.7483383417129517,0.9259364008903503,-15.0146484375,-14.5263671875,239.07470703125
8.424667119979858,-148004833,0,0.18171586096286774,-1.1611809730529785,2.088236093521118,-81.35986328125,-520.08056640625,-76.5380859375
8.424679279327393,-148004814,0,0.10749711096286774,-1.4036126136779785,2.080423593521118,-51.8798828125,-477.294921875,-133.97216796875
8.444908142089844,-148004805,1,-0.8446950316429138,0.9092270135879517,0.9161707758903503,-4.39453125,-13.73291015625,318.7255859375
8.467546224594116,-148004786,1,-1.013396143913269,1.0422836542129517,0.8888270258903503,-5.2490234375,-28.564453125,387.26806640625
8.485742092132568,-148004778,0,0.13239945471286774,-1.8772454261779785,1.8643591403961182,-6.591796875,-482.5439453125,-158.203125
8.485750198364258,-148004759,0,0.09333695471286774,-2.0852532386779785,1.9537146091461182,-29.72412109375,-505.2490234375,-152.89306640625
8.495551109313965,-148004767,1,-1.140105128288269,1.0020004510879517,0.6986414790153503,-33.69140625,-36.865234375,443.90869140625
8.495649099349976,-148004748,1,-1.003874659538269,0.6990219354629517,0.5677821040153503,-120.849609375,-25.5126953125,487.97607421875
8.51497220993042,-148004740,0,0.05207718536257744,-2.2961907386779785,2.045267343521118,-19.47021484375,-513.12255859375,-117.919921875
8.514986038208008,-148004721,0,-0.11247359216213226,-2.2278313636779785,2.062845468521118,5.2490234375,-465.33203125,-111.328125
8.535575151443481,-148004729,1,-0.8305348753929138,0.4885726869106293,0.7057215571403503,-129.5166015625,13.24462890625,502.62451171875
8.535582304000854,-148004710,1,-0.7301930785179138,0.3066879212856293,0.8846766352653503,-73.79150390625,75.0732421875,503.72314453125
8.540239095687866,-148004702,0,-0.26701462268829346,-2.1968255043029785,1.9727575778961182,13.0615234375,-412.7197265625,-144.22607421875
8.555662155151367,-148004691,1,-0.7575368285179138,0.19023284316062927,1.1776454448699951,2.5634765625,156.06689453125,504.638671875
8.57053804397583,-148004683,0,-0.36027634143829346,-2.0266594886779785,1.8589880466461182,72.8759765625,-345.39794921875,-238.1591796875
8.57060718536377,-148004664,0,-0.46110641956329346,-2.1233391761779785,1.6116735935211182,99.18212890625,-272.27783203125,-369.20166015625
8.58913516998291,-148004672,1,-0.6332692503929138,0.2500472962856293,1.4288661479949951,96.61865234375,263.0615234375,498.35205078125
8.58914303779602,-148004653,1,-0.6567067503929138,0.2776351869106293,1.6295497417449951,95.03173828125,341.30859375,513.671875
8.600178241729736,-148004645,0,-0.41716110706329346,-2.4011712074279785,1.4170935153961182,115.29541015625,-197.93701171875,-479.55322265625
8.615716218948364,-148004634,1,-0.6322926878929138,0.06498870998620987,1.8785731792449951,2.685546875,322.08251953125,541.80908203125
8.637591123580933,-148004626,0,-0.36247360706329346,-2.5212883949279785,1.1368200778961182,141.357421875,-148.01025390625,-528.9306640625
8.637598276138306,-148004607,0,-0.23796187341213226,-2.5762200355529785,0.6646521687507629,161.07177734375,-116.27197265625,-539.24560546875
8.645562171936035,-148004615,1,-0.5038747191429138,-0.3446792662143707,2.065096616744995,-53.89404296875,245.9716796875,576.0498046875
8.645653009414673,-148004596,1,0.06472881883382797,-0.9086440801620483,1.9781825542449951,-43.64013671875,159.423828125,527.9541015625
8.660333156585693,-148004588,0,-0.10588179528713226,-2.4751458168029785,0.24082404375076294,160.58349609375,-114.74609375,-520.44677734375
8.687422275543213,-148004577,1,0.011750303208827972,-0.8866714239120483,1.4825770854949951,32.5927734375,168.9453125,433.28857421875
8.693257331848145,-148004569,0,-0.03044234588742256,-2.1338372230529785,-0.05629509687423706,128.35693359375,-133.9111328125,-515.9912109375
8.693263292312622,-148004550,0,0.14338578283786774,-1.9861321449279785,-0.08949822187423706,75.50048828125,-124.51171875,-537.9638671875
8.707234144210815,-148004541,1,-0.5002126097679138,-1.0492690801620483,1.2457606792449951,98.57177734375,237.24365234375,422.66845703125
8.724247217178345,-148004514,0,0.29328811168670654,-1.5666985511779785,-0.41200798749923706,-57.7392578125,-66.7724609375,-594.54345703125
8.743345260620117,-148004522,1,-0.31661882996559143,-0.6996597051620483,0.8895594477653503,148.8037109375,231.201171875,379.638671875
8.743354082107544,-148004503,1,0.07132061570882797,-0.5624526739120483,0.9740321040153503,204.77294921875,177.24609375,294.3115234375
8.752422332763672,-148004495,0,0.36677443981170654,-1.4597649574279785,-0.41127556562423706,-93.6279296875,-198.18115234375,-547.54638671875
8.767338991165161,-148004484,1,-0.13424578309059143,-0.4650405943393707,0.9127528071403503,317.5048828125,121.2158203125,187.19482421875
8.789490222930908,-148004476,0,0.27131545543670654,-1.5527825355529785,0.30283576250076294,-117.37060546875,-343.017578125,-415.46630859375
8.789497137069702,-148004457,0,0.36018264293670654,-0.9934563636779785,1.0103552341461182,-99.2431640625,-359.92431640625,-305.419921875
8.796267032623291,-148004465,1,-0.46383562684059143,-0.08125152438879013,0.5475184321403503,408.26416015625,103.8818359375,125.8544921875
8.79634404182434,-148004446,1,-0.40548601746559143,-0.19868317246437073,0.35904186964035034,294.5556640625,140.19775390625,113.6474609375
8.837896347045898,-148004427,1,0.06448467820882797,-1.0709975957870483,0.29922741651535034,227.35595703125,143.00537109375,-25.81787109375
8.857897281646729,-148004408,1,-0.34298601746559143,-0.8031753301620483,0.7416102290153503,145.8740234375,81.60400390625,-109.7412109375
8.85791015625,-148004389,1,-0.5561208128929138,-0.20088043808937073,0.9317957758903503,339.78271484375,84.65576171875,-212.158203125
8.87152624130249,-148004438,0,0.47199904918670654,-0.05913021042943001,0.9888709187507629,-119.20166015625,-256.89697265625,-260.1318359375
8.87168002128601,-148004419,0,0.6851338148117065,0.8012213706970215,0.12900763750076294,-110.90087890625,-221.86279296875,-344.8486328125
8.871698141098022,-148004400,0,0.9173115491867065,0.1757330745458603,0.7293494343757629,-181.70166015625,-302.8564453125,-398.01025390625
8.894398212432861,-148004370,1,-0.9435719847679138,0.11503753811120987,0.6170985102653503,507.32421875,87.5244140625,-252.9296875
8.894407272338867,-148004351,1,-1.151091456413269,0.4653793275356293,0.28067272901535034,529.35791015625,93.994140625,-226.50146484375
8.903674125671387,-148004381,0,0.48347365856170654,-0.1626458317041397,1.0210974216461182,-262.87841796875,-219.42138671875,-323.486328125
8.90369725227356,-148004362,0,0.19001664221286774,0.08613346517086029,1.1065466403961182,-244.384765625,-98.5107421875,-215.6982421875
8.90371036529541,-148004343,0,0.03034866973757744,0.5353522300720215,0.8260291218757629,-237.4267578125,-31.982421875,-198.1201171875
8.915767192840576,-148004332,1,-1.085905909538269,0.6184555292129517,0.16836804151535034,475.5859375,81.97021484375,-230.46875
8.9413161277771,-148004324,0,0.03571976348757744,0.5221686363220215,0.7481482625007629,-200.86669921875,-29.23583984375,-162.78076171875
8.941326141357422,-148004305,0,0.12702836096286774,0.4267096221446991,0.7178748250007629,-179.38232421875,-63.65966796875,-118.59130859375
8.947163105010986,-148004313,1,-0.9775075316429138,0.5730453729629517,0.12686413526535034,444.4580078125,29.72412109375,-261.53564453125
8.961583137512207,-148004286,0,0.15315140783786774,0.4918951690196991,0.7310584187507629,-135.19287109375,-90.14892578125,-37.59765625
8.988271236419678,-148004277,1,-1.077849268913269,0.4990707337856293,-0.42587023973464966,484.130859375,-27.40478515625,-348.6328125
8.994478225708008,-148004250,0,0.41487014293670654,0.9347662925720215,0.37143927812576294,-203.4912109375,-28.74755859375,94.66552734375
9.007173299789429,-148004258,1,-1.300993800163269,0.4705062806606293,-0.5203526616096497,452.69775390625,-75.927734375,-342.59033203125
9.00728702545166,-148004239,1,-1.443327784538269,0.15434417128562927,-0.8086827397346497,421.20361328125,-156.1279296875,-332.09228515625
9.03649115562439,-148004231,0,0.5879658460617065,0.8654303550720215,0.39731818437576294,-280.517578125,-17.39501953125,94.54345703125
9.036498308181763,-148004212,0,0.6209248304367065,0.7392096519470215,0.5818884968757629,-313.53759765625,-7.26318359375,82.70263671875
