sync_time,timestamp_ms,device_id,ax,ay,az,gx,gy,gz
0.022301912307739258,1582659017,1,0.7877099514007568,0.11806429922580719,0.7611196637153625,-17.15087890625,-17.63916015625,-10.1318359375
0.02231121063232422,1582659036,1,0.8135888576507568,0.11318148672580719,0.7520864605903625,-13.18359375,-16.54052734375,-9.765625
0.029105186462402344,1582659033,0,-0.029756836593151093,-0.05600791424512863,1.2362490892410278,-85.63232421875,76.84326171875,53.466796875
0.0291750431060791,1582659052,0,-0.010469727218151093,-0.09702353924512863,1.2269717454910278,-82.3974609375,79.9560546875,55.419921875
0.04418182373046875,1582659055,1,0.8267724514007568,0.08901156485080719,0.7606313824653625,-10.1318359375,-9.94873046875,-14.0380859375
0.06763887405395508,1582659071,0,-0.021456055343151093,-0.14341026544570923,1.2465029954910278,-79.16259765625,87.158203125,49.37744140625
0.07264399528503418,1582659074,1,0.8118798732757568,0.09487093985080719,0.7808950543403625,-8.4228515625,-8.85009765625,-22.705078125
0.08899903297424316,1582659090,0,-0.05856543034315109,-0.12168174237012863,1.2762881517410278,-71.10595703125,91.97998046875,43.15185546875
0.08901810646057129,1582659109,0,-0.08908300846815109,-0.05210166424512863,1.2838565111160278,-66.89453125,91.49169921875,42.05322265625
0.10386800765991211,1582659110,1,0.7596337795257568,0.1790994554758072,0.7923696637153625,-5.18798828125,-12.14599609375,-33.63037109375
0.10390591621398926,1582659129,1,0.7425439357757568,0.2396463304758072,0.7547720074653625,2.197265625,-13.5498046875,-26.9775390625
0.12251091003417969,1582659128,0,-0.1310752034187317,0.07387489825487137,1.2479678392410278,-65.5517578125,85.38818359375,47.7294921875
0.12251591682434082,1582659147,0,-0.1386435627937317,0.16420692205429077,1.2059756517410278,-66.7724609375,85.14404296875,68.29833984375
0.1679229736328125,1582659148,1,0.7435204982757568,0.2440408617258072,0.7386587262153625,14.58740234375,-9.3994140625,-8.23974609375
0.16792798042297363,1582659167,1,0.7635400295257568,0.2386697679758072,0.7318227887153625,28.1982421875,-0.42724609375,9.33837890625
0.16793203353881836,1582659186,1,0.7576806545257568,0.2149881273508072,0.7296255230903625,39.55078125,4.21142578125,20.20263671875
0.1791551113128662,1582659166,0,-0.11496191471815109,0.16616004705429077,1.1710635423660278,-67.626953125,87.40234375,93.994140625
0.17925286293029785,1582659202,0,-0.10617285221815109,0.08364052325487137,1.1578799486160278,-71.044921875,100.15869140625,125.48828125
0.1941511631011963,1582659205,1,0.7344872951507568,0.2318338304758072,0.7098501324653625,50.1708984375,11.8408203125,29.23583984375
0.21894121170043945,1582659221,0,-0.10959082096815109,0.03334755450487137,1.1605654954910278,-70.1904296875,103.45458984375,137.14599609375
0.22403693199157715,1582659224,1,0.7444970607757568,0.2328103929758072,0.6981313824653625,52.30712890625,15.2587890625,36.43798828125
0.22404193878173828,1582659243,1,0.7574365139007568,0.1964334398508072,0.7201040387153625,47.607421875,21.54541015625,35.400390625
0.2517669200897217,1582659262,1,0.7860009670257568,0.1554178148508072,0.7381704449653625,43.51806640625,28.25927734375,24.5361328125
0.27185606956481934,1582659240,0,-0.07419043034315109,-0.04721885174512863,1.1576358079910278,-75.5615234375,108.33740234375,138.5498046875
0.27186083793640137,1582659259,0,-0.04391699284315109,-0.12632042169570923,1.1700869798660278,-75.5615234375,111.083984375,125.3662109375
0.2718639373779297,1582659278,0,-0.03586035221815109,-0.11655478924512863,1.1717959642410278,-72.75390625,120.2392578125,115.17333984375
0.272136926651001,1582659297,0,-0.028780274093151093,-0.09580283612012863,1.1754580736160278,-65.36865234375,128.35693359375,107.60498046875
0.28410792350769043,1582659281,1,0.7728173732757568,0.12221468985080719,0.7169302105903625,44.677734375,34.97314453125,6.2255859375
0.28413987159729004,1582659300,1,0.7669579982757568,0.1456521898508072,0.7152212262153625,46.5087890625,36.56005859375,-8.11767578125
0.29831600189208984,1582659316,0,-0.020967774093151093,-0.10263877362012863,1.2025576829910278,-59.5703125,130.615234375,101.01318359375
0.3215470314025879,1582659319,1,0.7725732326507568,0.1546853929758072,0.7049673199653625,45.34912109375,37.59765625,-21.8505859375
0.32155299186706543,1582659338,1,0.7574365139007568,0.1786111742258072,0.7127798199653625,40.0390625,38.2080078125,-27.2216796875
0.32906579971313477,1582659335,0,-0.0011923834681510925,-0.12754112482070923,1.1876651048660278,-53.28369140625,135.19287109375,87.70751953125
0.32908105850219727,1582659354,0,-0.020723633468151093,-0.11338096112012863,1.2086611986160278,-50.35400390625,137.0849609375,74.21875
0.366973876953125,1582659373,0,-0.009249024093151093,-0.05967002362012863,1.1898623704910278,-52.42919921875,131.28662109375,66.0400390625
0.37316393852233887,1582659374,1,0.7574365139007568,0.2196267992258072,0.6742056012153625,18.1884765625,33.26416015625,-33.38623046875
0.3731801509857178,1582659393,1,0.8135888576507568,0.2191385179758072,0.6583364605903625,4.0283203125,32.89794921875,-29.72412109375
0.38911986351013184,1582659392,0,0.023465819656848907,-0.04795127362012863,1.1588565111160278,-65.185546875,127.3193359375,58.89892578125
0.389279842376709,1582659411,0,0.04031152278184891,-0.03452353924512863,1.0922061204910278,-75.5615234375,142.333984375,47.4853515625
0.40419507026672363,1582659412,1,0.9080712795257568,0.1388162523508072,0.6737173199653625,3.662109375,54.8095703125,-43.212890625
0.4220120906829834,1582659430,0,0.04397363215684891,0.007468648254871368,1.0599795579910278,-68.359375,165.22216796875,48.583984375
0.4338819980621338,1582659431,1,0.8443505764007568,0.1705545336008072,0.6251333355903625,23.5595703125,89.35546875,-62.3779296875
0.43391895294189453,1582659450,1,0.8287255764007568,0.275779128074646,0.8101919293403625,18.98193359375,81.11572265625,-57.12890625
0.4491748809814453,1582659466,0,-0.2179892659187317,0.26528114080429077,1.3309756517410278,-32.3486328125,193.42041015625,79.1015625
0.47000694274902344,1582659469,1,0.6031396389007568,0.342673659324646,0.8529165387153625,41.07666015625,72.998046875,-20.6298828125
0.47001218795776367,1582659488,1,0.9000146389007568,0.2193826586008072,0.9984243512153625,5.859375,29.96826171875,4.21142578125
0.47991013526916504,1582659485,0,-0.09323339909315109,-0.25766807794570923,1.4916201829910278,-75.13427734375,120.4833984375,112.3046875
0.47991490364074707,1582659504,0,0.04812402278184891,-0.31357628107070923,1.4554873704910278,-101.318359375,91.61376953125,82.8857421875
0.49410080909729004,1582659507,1,0.6187646389007568,0.2315896898508072,1.1554068326950073,-6.89697265625,9.21630859375,-27.77099609375
0.5179891586303711,1582659523,0,-0.6391318440437317,0.14614051580429077,1.2650576829910278,-100.7080078125,62.80517578125,56.82373046875
0.5240790843963623,1582659526,1,0.3704736530780792,0.440329909324646,0.8658559918403625,-24.4140625,91.36962890625,15.9912109375
0.5240910053253174,1582659545,1,0.4490869343280792,0.2196267992258072,0.9654653668403625,-28.38134765625,43.3349609375,7.75146484375
0.5390169620513916,1582659542,0,-0.5048545002937317,0.19741004705429077,0.9420596361160278,-112.73193359375,115.78369140625,63.4765625
0.5390808582305908,1582659561,0,-0.3957236409187317,-0.30234581232070923,1.1381045579910278,-125.06103515625,60.791015625,82.275390625
0.555185079574585,1582659564,1,0.2852685749530792,0.1368631273508072,0.8433950543403625,22.4609375,66.162109375,-54.6875
0.5735170841217041,1582659580,0,-0.4482138752937317,-0.04477744549512863,0.9349795579910278,-104.4921875,23.193359375,46.7529296875
0.5824060440063477,1582659583,1,0.5272119045257568,0.522849440574646,1.1156119108200073,25.5126953125,41.6259765625,-84.5947265625
0.5824649333953857,1582659602,1,0.4002588093280792,0.318015456199646,0.9200552105903625,21.05712890625,92.041015625,-97.83935546875
0.5982160568237305,1582659599,0,-0.3398154377937317,-0.17807823419570923,1.2135440111160278,-104.55322265625,69.4580078125,-5.06591796875
0.5982761383056641,1582659618,0,-0.4159873127937317,0.0003885701298713684,1.2782412767410278,-123.1689453125,9.8876953125,-30.8837890625
0.6228179931640625,1582659638,1,0.004018574953079224,0.408591628074646,1.0692251920700073,21.42333984375,43.76220703125,-93.44482421875
0.6290390491485596,1582659637,0,-0.3805869221687317,-0.25107628107070923,1.4403506517410278,-123.10791015625,-37.04833984375,-21.66748046875
0.6290731430053711,1582659656,0,0.09451074153184891,-0.15488487482070923,0.9501162767410278,-115.6005859375,9.765625,-60.72998046875
0.6440639495849609,1582659657,1,0.2828271687030792,0.2391580492258072,0.8661001324653625,14.09912109375,-45.2880859375,-138.61083984375
0.6679699420928955,1582659675,0,-0.7465537190437317,-0.15610557794570923,1.2799502611160278,-109.7412109375,58.16650390625,-62.6220703125
0.6742439270019531,1582659676,1,0.21471193432807922,0.525046706199646,0.8353384137153625,-24.84130859375,-32.40966796875,-85.51025390625
0.6742560863494873,1582659695,1,0.17076662182807922,0.406638503074646,0.7838247418403625,-49.49951171875,-38.51318359375,-70.98388671875
0.6886000633239746,1582659694,0,-0.11105566471815109,-0.26621299982070923,1.1359072923660278,-138.0615234375,61.70654296875,-30.94482421875
0.704063892364502,1582659714,1,0.21373537182807922,0.543113112449646,0.49940094351768494,-65.97900390625,5.67626953125,-54.6875
0.7225849628448486,1582659730,0,0.3354775309562683,0.05995888262987137,0.9288760423660278,-133.23974609375,118.2861328125,-60.546875
0.7338480949401855,1582659733,1,0.2857568562030792,0.485740065574646,0.5567739605903625,-72.44873046875,26.611328125,-64.27001953125
0.7338731288909912,1582659752,1,-0.013071268796920776,0.394187331199646,0.6295278668403625,-71.96044921875,49.6826171875,-39.12353515625
0.7513241767883301,1582659749,0,-0.1833212971687317,-0.24350792169570923,0.7902041673660278,-90.27099609375,139.2822265625,-54.8095703125
0.7513279914855957,1582659768,0,-0.09054785221815109,-0.15781456232070923,0.9457217454910278,-56.396484375,97.5341796875,-26.9775390625
0.7710208892822266,1582659771,1,-0.027719706296920776,0.480124831199646,0.6258657574653625,-37.41455078125,42.29736328125,10.7421875
0.7788431644439697,1582659787,0,0.0036904290318489075,-0.06894736737012863,1.1254092454910278,-66.95556640625,90.75927734375,-34.7900390625
0.778886079788208,1582659806,0,0.10183496028184891,0.19667762517929077,1.2455264329910278,-101.1962890625,86.36474609375,-38.818359375
0.7939271926879883,1582659790,1,-0.09192869067192078,0.386618971824646,0.6019399762153625,-48.15673828125,34.36279296875,-8.97216796875
0.7939560413360596,1582659809,1,-0.059946268796920776,0.435935378074646,0.5863149762153625,-68.4814453125,25.390625,-17.02880859375
0.8181900978088379,1582659825,0,0.2844521403312683,0.25087684392929077,0.9982119798660278,-138.7939453125,163.9404296875,-83.67919921875
0.8248617649078369,1582659828,1,0.042836934328079224,0.495505690574646,0.6927602887153625,-105.04150390625,21.30126953125,-1.3427734375
0.8248660564422607,1582659847,1,0.14659669995307922,0.424460768699646,0.6937368512153625,-113.34228515625,35.5224609375,27.099609375
0.840087890625,1582659844,0,0.1367470622062683,-0.03842978924512863,1.1156436204910278,-155.82275390625,198.91357421875,-132.87353515625
0.8400931358337402,1582659863,0,0.05544824153184891,-0.30210167169570923,1.1322451829910278,-137.20703125,184.63134765625,-138.73291015625
0.8659889698028564,1582659866,1,-0.10437986254692078,0.289451003074646,0.9434927105903625,-122.37548828125,80.87158203125,30.70068359375
0.8717589378356934,1582659882,0,-0.2604697346687317,-0.48545128107070923,1.6490908861160278,-91.552734375,91.73583984375,-119.384765625
0.8842301368713379,1582659902,1,0.12657716870307922,0.1959451586008072,0.8253286480903625,-118.46923828125,-47.2412109375,17.39501953125
0.8990139961242676,1582659901,0,-0.6083701252937317,0.04994911700487137,1.1341983079910278,-61.46240234375,88.68408203125,-132.87353515625
0.899090051651001,1582659920,0,-0.6115439534187317,0.07924599200487137,1.0895205736160278,-76.66015625,150.0244140625,-137.8173828125
0.9200689792633057,1582659921,1,0.027700215578079224,0.1637185961008072,0.9586294293403625,-79.9560546875,-27.9541015625,8.72802734375
0.9292168617248535,1582659939,0,-0.3312705159187317,-0.33506065607070923,0.9047061204910278,-111.4501953125,148.3154296875,-106.5673828125
0.9438121318817139,1582659940,1,0.015004903078079224,0.1502908617258072,0.9615591168403625,-55.35888671875,-27.9541015625,-2.9296875
0.943882942199707,1582659959,1,0.14073732495307922,0.1744607836008072,0.9989126324653625,-36.7431640625,-36.68212890625,-9.70458984375
0.9686720371246338,1582659958,0,-0.8774130940437317,-0.36679893732070923,0.9235049486160278,-74.52392578125,115.3564453125,-67.626953125
0.9738640785217285,1582659978,1,0.21227052807807922,0.282126784324646,0.9847524762153625,-25.93994140625,-33.02001953125,12.87841796875
0.9738950729370117,1582659997,1,0.18297365307807922,0.311667799949646,1.0201529264450073,-30.029296875,-37.109375,41.93115234375
0.9884200096130371,1582659994,0,-0.3674033284187317,-0.30576378107070923,1.2799502611160278,-84.3505859375,98.0224609375,-54.931640625
0.9884898662567139,1582660013,0,-0.5727255940437317,-0.25742393732070923,1.2323428392410278,-117.61474609375,130.18798828125,-68.84765625
1.0040459632873535,1582660016,1,0.16734865307807922,0.2347635179758072,0.9425161480903625,-47.42431640625,-30.8837890625,49.8046875
1.021789789199829,1582660032,0,-0.3742392659187317,-0.38901573419570923,1.2179385423660278,-123.1689453125,140.0146484375,-66.2841796875
1.0338799953460693,1582660035,1,0.13634279370307922,0.1519998461008072,0.9688833355903625,-55.2978515625,-29.052734375,18.12744140625
1.0493080615997314,1582660051,0,-0.4758017659187317,-0.32456260919570923,1.1256533861160278,-106.5673828125,137.75634765625,-47.4853515625
1.049394130706787,1582660070,0,-0.4421103596687317,-0.40317589044570923,1.1278506517410278,-101.6845703125,138.73291015625,-52.06298828125
1.0700719356536865,1582660054,1,0.2872216999530792,0.291892409324646,0.9168813824653625,-59.814453125,-21.8505859375,4.150390625
1.0700771808624268,1582660073,1,0.23375490307807922,0.262595534324646,0.8668325543403625,-59.75341796875,-37.353515625,34.3017578125
1.0810530185699463,1582660089,0,-0.4789755940437317,-0.42246299982070923,1.0814639329910278,-105.8349609375,154.296875,-85.26611328125
1.0922670364379883,1582660092,1,0.3282373249530792,0.1874002367258072,0.9369009137153625,-68.54248046875,-43.51806640625,70.9228515625
1.0923309326171875,1582660111,1,0.3580224812030792,0.2315896898508072,0.9517934918403625,-68.359375,-29.23583984375,84.9609375
1.1174869537353516,1582660108,0,-0.4501670002937317,-0.5330587029457092,1.0311709642410278,-89.78271484375,158.02001953125,-111.083984375
1.117495059967041,1582660127,0,-0.5414755940437317,-0.5906758904457092,0.9833194017410278,-70.6787109375,144.47021484375,-85.02197265625
1.1240689754486084,1582660130,1,0.3362939655780792,0.1312478929758072,0.9620473980903625,-60.4248046875,-30.45654296875,109.7412109375
1.1389319896697998,1582660146,0,-0.5527060627937317,-0.5638204216957092,1.0248233079910278,-54.443359375,126.89208984375,-47.9736328125
1.1389942169189453,1582660165,0,-0.4967978596687317,-0.6512227654457092,1.0431338548660278,-47.79052734375,135.8642578125,-45.2880859375
1.1541171073913574,1582660166,1,0.4568994343280792,0.01454867422580719,1.0694693326950073,-53.40576171875,-62.92724609375,94.54345703125
1.1717438697814941,1582660184,0,-0.5961630940437317,-0.7320333123207092,1.0187197923660278,-41.8701171875,127.0751953125,-28.99169921875
1.1840660572052002,1582660185,1,0.5067040920257568,-0.03525601327419281,1.1300162076950073,-48.095703125,-64.75830078125,81.48193359375
1.1840999126434326,1582660204,1,0.5181787014007568,-0.01377163827419281,1.1175650358200073,-35.58349609375,-81.0546875,69.82421875
1.1974718570709229,1582660203,0,-0.6366904377937317,-0.7073751091957092,0.9540225267410278,-22.03369140625,107.97119140625,8.48388671875
1.197540044784546,1582660222,0,-0.5080283284187317,-0.6116719841957092,0.9581729173660278,-8.056640625,92.71240234375,11.962890625
1.2214970588684082,1582660223,1,0.4713037312030792,-0.06919156014919281,1.0360220670700073,-1.46484375,-89.84375,76.66015625
1.229180097579956,1582660258,0,-0.4823935627937317,-0.6204610466957092,0.8927432298660278,-8.9111328125,95.8251953125,-26.30615234375
1.2439191341400146,1582660242,1,0.7701318264007568,-0.10874234139919281,1.0631216764450073,36.43798828125,-43.5791015625,83.740234375
1.2439751625061035,1582660261,1,0.7173974514007568,-0.02109585702419281,0.9061391949653625,76.35498046875,77.69775390625,65.36865234375
1.268679141998291,1582660277,0,-0.6425498127937317,-0.7022481560707092,0.8707705736160278,-8.11767578125,92.71240234375,-17.39501953125
1.2737698554992676,1582660280,1,0.6646630764007568,0.10146273672580719,1.0150259733200073,53.40576171875,48.88916015625,47.4853515625
1.2737751007080078,1582660299,1,0.4171045124530792,0.08608187735080719,1.2459830045700073,-10.8642578125,59.814453125,2.13623046875
1.2890570163726807,1582660296,0,-0.7778037190437317,-0.7278829216957092,0.7584658861160278,-3.41796875,53.8330078125,43.9453125
1.289078950881958,1582660315,0,-0.6767295002937317,-0.6846700310707092,0.9117861986160278,-11.962890625,30.2734375,92.59033203125
1.303231954574585,1582660318,1,0.060415059328079224,-0.07065640389919281,1.1881216764450073,-49.072265625,26.3671875,-2.9296875
1.3225629329681396,1582660334,0,-0.7228720784187317,-0.5992208123207092,0.8268252611160278,-32.77587890625,0.30517578125,102.72216796875
1.33400297164917,1582660337,1,-0.18885251879692078,-0.312111496925354,1.2152212858200073,-31.43310546875,-20.93505859375,19.04296875
1.3340351581573486,1582660356,1,-0.06434080004692078,-0.2120138257741928,1.1126822233200073,-18.5546875,-92.1630859375,19.53125
1.3509228229522705,1582660353,0,-0.8591025471687317,-0.6097188591957092,0.8207217454910278,-58.89892578125,-29.9072265625,103.45458984375
1.3509280681610107,1582660372,0,-0.5592978596687317,-0.6775899529457092,0.9901553392410278,-82.3974609375,-81.787109375,123.35205078125
1.370305061340332,1582660375,1,0.4090478718280792,-0.10068570077419281,1.0887564420700073,10.43701171875,-109.55810546875,3.47900390625
1.3787648677825928,1582660391,0,-0.4272177815437317,-0.8958516716957092,1.0143252611160278,-73.974609375,-83.19091796875,165.4052734375
1.3941738605499268,1582660394,1,0.5684716701507568,0.02992953360080719,1.0455435514450073,39.1845703125,-41.6259765625,-0.9765625
1.4178009033203125,1582660410,0,-0.2890341877937317,-1.0433125495910645,0.9322940111160278,-39.6728515625,-60.9130859375,228.82080078125
1.4178059101104736,1582660429,0,-0.3080771565437317,-0.8973165154457092,1.0780459642410278,-0.8544921875,-17.39501953125,261.3525390625
1.4240429401397705,1582660430,1,0.23619630932807922,-0.01108609139919281,0.9996450543403625,41.93115234375,-61.1572265625,-30.09033203125
1.4240710735321045,1582660449,1,0.23570802807807922,0.07973422110080719,0.9471548199653625,36.376953125,-71.2890625,-26.91650390625
1.4390449523925781,1582660448,0,-0.05587988346815109,-0.5000997185707092,1.0101748704910278,-13.916015625,4.5166015625,324.21875
1.4390881061553955,1582660467,0,-0.2209189534187317,-0.12632042169570923,1.0907412767410278,-53.7109375,72.6318359375,342.6513671875
1.4657750129699707,1582660468,1,0.24815919995307922,0.05483187735080719,0.8885610699653625,22.0947265625,-66.34521484375,-24.10888671875
1.471721887588501,1582660486,0,-0.2299521565437317,0.06996864825487137,1.1224795579910278,-68.17626953125,73.3642578125,298.4619140625
1.4840500354766846,1582660487,1,0.3724267780780792,0.11049593985080719,0.7957876324653625,17.2119140625,-45.5322265625,-26.0009765625
1.4840779304504395,1582660506,1,0.3304345905780792,0.1278299242258072,0.7608755230903625,19.4091796875,1.8310546875,-18.06640625
1.499021053314209,1582660522,0,-0.1906455159187317,0.14565223455429077,1.1390811204910278,-64.88037109375,52.91748046875,246.826171875
1.5230720043182373,1582660525,1,0.2664697468280792,-0.00254116952419281,0.9427602887153625,38.4521484375,25.7568359375,-3.35693359375
1.5290889739990234,1582660541,0,-0.1635459065437317,0.23305457830429077,1.0338565111160278,-31.8603515625,28.13720703125,255.0048828125
1.5440728664398193,1582660544,1,0.12877443432807922,0.00893343985080719,0.9427602887153625,57.6171875,11.1083984375,-15.7470703125
1.5441079139709473,1582660563,1,0.08092287182807922,0.12294711172580719,0.9600942730903625,59.9365234375,-33.99658203125,-34.60693359375
1.5691399574279785,1582660560,0,-0.04562597721815109,0.31899207830429077,1.1009951829910278,-5.615234375,20.01953125,203.0029296875
1.5691449642181396,1582660579,0,-0.1523154377937317,0.30702918767929077,1.1383486986160278,-23.86474609375,44.73876953125,149.658203125
1.5741369724273682,1582660582,1,0.15587404370307922,0.268454909324646,0.9439809918403625,35.82763671875,-51.8798828125,-36.0107421875
1.5890789031982422,1582660598,0,-0.05929785221815109,0.23818153142929077,1.1107608079910278,-58.41064453125,64.39208984375,132.568359375
1.589120864868164,1582660617,0,-0.10690527409315109,0.17201942205429077,1.0848819017410278,-89.599609375,79.28466796875,109.375
1.603046178817749,1582660601,1,0.2779443562030792,0.2367166429758072,0.9073598980903625,23.681640625,-32.89794921875,-23.8037109375
1.6031179428100586,1582660620,1,0.23033693432807922,0.1815408617258072,0.9508169293403625,20.44677734375,-15.7470703125,-13.85498046875
1.6237800121307373,1582660636,0,-0.1703818440437317,0.02748817950487137,1.1266299486160278,-83.1298828125,74.0966796875,75.74462890625
1.6340219974517822,1582660639,1,0.14830568432807922,0.2154764086008072,0.9820669293403625,7.99560546875,-42.724609375,-12.451171875
1.6340420246124268,1582660658,1,0.10387209057807922,0.2196267992258072,0.9891470074653625,-10.8642578125,-71.6552734375,-26.55029296875
1.6492011547088623,1582660655,0,-0.2560752034187317,-0.05503135174512863,1.0770694017410278,-65.49072265625,71.044921875,72.6318359375
1.6492829322814941,1582660674,0,-0.2885459065437317,0.0018534138798713684,1.0040713548660278,-62.744140625,71.10595703125,79.16259765625
1.6792371273040771,1582660693,0,-0.3527548909187317,-0.05991416424512863,1.0677920579910278,-54.87060546875,53.22265625,74.951171875
1.6939868927001953,1582660694,1,0.2632959187030792,0.12367953360080719,0.8785513043403625,-17.39501953125,-86.48681640625,-70.9228515625
1.6940138339996338,1582660713,1,0.3084619343280792,0.1522439867258072,0.8023794293403625,-2.3193359375,-63.65966796875,-79.2236328125
1.7179319858551025,1582660712,0,-0.3979209065437317,-0.15366417169570923,1.1605654954910278,-43.212890625,30.94482421875,109.619140625
1.7179369926452637,1582660731,0,-0.3547080159187317,0.013083882629871368,1.2489444017410278,-30.09033203125,-6.65283203125,173.4619140625
1.723956823348999,1582660732,1,0.4532373249530792,0.280906081199646,0.8084829449653625,12.26806640625,-31.005859375,-63.53759765625
1.7387921810150146,1582660750,0,-0.2279990315437317,-0.02353721112012863,1.1424990892410278,-24.96337890625,-25.08544921875,199.64599609375
1.7537739276885986,1582660751,1,0.3843896687030792,0.337058424949646,0.9376333355903625,6.9580078125,9.58251953125,-55.72509765625
1.7538421154022217,1582660770,1,0.2545068562030792,0.335837721824646,0.9950063824653625,2.62451171875,11.23046875,-43.51806640625
1.7733428478240967,1582660786,0,-0.2372763752937317,-0.12876182794570923,1.2374697923660278,-39.0625,21.484375,138.12255859375
1.784776210784912,1582660789,1,0.2725732624530792,0.2372049242258072,0.9974477887153625,10.1318359375,3.96728515625,-41.3818359375
1.7847809791564941,1582660808,1,0.3218896687030792,0.252585768699646,0.9749868512153625,41.259765625,27.16064453125,-49.1943359375
1.7988038063049316,1582660805,0,-0.09494238346815109,-0.16001182794570923,1.2394229173660278,-35.58349609375,44.7998046875,172.05810546875
1.7988479137420654,1582660824,0,-0.1840537190437317,0.12441200762987137,1.1808291673660278,-12.6953125,65.00244140625,163.9404296875
1.8214058876037598,1582660827,1,0.2652490437030792,0.330710768699646,0.9193227887153625,49.13330078125,22.39990234375,-65.97900390625
1.8295018672943115,1582660843,0,-0.04806738346815109,0.03945107012987137,1.2269717454910278,-13.18359375,53.955078125,138.73291015625
1.843994140625,1582660846,1,0.13854005932807922,0.468894362449646,0.8868520855903625,40.83251953125,4.45556640625,-32.2265625
1.8440098762512207,1582660865,1,0.3362939655780792,0.438620924949646,0.9239614605903625,14.70947265625,-7.87353515625,-11.8408203125
1.8683819770812988,1582660862,0,-0.06515722721815109,0.16078895330429077,1.1798526048660278,-27.89306640625,63.41552734375,112.4267578125
1.86838698387146,1582660881,0,0.009305663406848907,0.12734168767929077,1.1678897142410278,-57.06787109375,61.1572265625,103.759765625
1.8739759922027588,1582660884,1,0.043813496828079224,0.556052565574646,0.8704946637153625,32.5927734375,-23.5595703125,16.54052734375
1.8892569541931152,1582660900,0,0.08791894465684891,0.15712684392929077,1.2037783861160278,-54.5654296875,46.142578125,122.0703125
1.9038939476013184,1582660903,1,0.3702295124530792,0.417868971824646,0.8143423199653625,34.97314453125,-30.2734375,36.80419921875
1.9039678573608398,1582660922,1,0.3343408405780792,0.476462721824646,0.8892934918403625,21.3623046875,0.6103515625,-23.98681640625
1.9220941066741943,1582660919,0,0.2991005778312683,0.24526160955429077,1.1774111986160278,-44.3115234375,36.07177734375,128.0517578125
1.922098159790039,1582660938,0,0.4192177653312683,0.28115028142929077,1.1647158861160278,-44.98291015625,31.1279296875,89.35546875
1.9343578815460205,1582660958,1,0.24205568432807922,0.532126784324646,0.8805044293403625,-7.01904296875,-21.1181640625,3.60107421875
1.9488589763641357,1582660957,0,0.3454872965812683,0.38124793767929077,1.1700869798660278,-58.7158203125,32.28759765625,55.908203125
1.9489068984985352,1582660976,0,0.3545204997062683,0.32924598455429077,1.1554385423660278,-59.9365234375,23.0712890625,37.29248046875
1.9712281227111816,1582660977,1,0.24278810620307922,0.498435378074646,0.8656118512153625,-9.033203125,-20.56884765625,13.36669921875
1.9787750244140625,1582660995,0,0.3862587809562683,0.20522254705429077,1.1136904954910278,-60.11962890625,5.31005859375,23.92578125
1.9939188957214355,1582660996,1,0.3231103718280792,0.463034987449646,0.8807485699653625,-5.9814453125,-10.986328125,3.47900390625
1.9940431118011475,1582661015,1,0.3394677937030792,0.436179518699646,0.8548696637153625,6.9580078125,-14.09912109375,-15.7470703125
2.0189449787139893,1582661014,0,0.3161904215812683,0.29311317205429077,1.1937686204910278,-56.21337890625,-2.685546875,20.93505859375
2.0239899158477783,1582661034,1,0.2855127155780792,0.492576003074646,0.8350942730903625,7.14111328125,-14.09912109375,-35.46142578125
2.038767099380493,1582661050,0,0.1574990153312683,0.16860145330429077,1.2111026048660278,-91.6748046875,48.52294921875,-12.6953125
2.054015874862671,1582661053,1,0.21153810620307922,0.557029128074646,0.8973501324653625,-13.427734375,-28.99169921875,-33.75244140625
2.0541348457336426,1582661072,1,0.24425294995307922,0.418113112449646,0.8795278668403625,-26.611328125,-43.3349609375,-10.498046875
2.0718979835510254,1582661069,0,0.03811425715684891,0.11635536700487137,1.2010928392410278,-85.87646484375,46.56982421875,-17.578125
2.071903944015503,1582661088,0,0.0012490227818489075,0.16957801580429077,1.2423526048660278,-64.75830078125,24.71923828125,-20.8740234375
2.084071159362793,1582661091,1,0.3685205280780792,0.412742018699646,0.9637563824653625,-13.3056640625,-35.0341796875,-26.30615234375
2.098971128463745,1582661107,0,-0.09030371159315109,0.15492957830429077,1.2572451829910278,-60.60791015625,31.79931640625,-21.97265625
2.09904408454895,1582661126,0,-0.1862509846687317,0.09267372637987137,1.2970401048660278,-42.05322265625,40.46630859375,-17.76123046875
2.1214449405670166,1582661110,1,0.2752588093280792,0.413718581199646,0.9727895855903625,14.34326171875,-18.73779296875,-63.8427734375
2.1214499473571777,1582661129,1,0.20543459057807922,0.537009596824646,1.0965689420700073,38.51318359375,-9.82666015625,-65.3076171875
2.129210948944092,1582661145,0,-0.1657431721687317,0.10781044512987137,1.2479678392410278,-1.64794921875,40.283203125,2.25830078125
2.1439552307128906,1582661148,1,0.2520654499530792,0.467673659324646,1.1663931608200073,41.9921875,-22.8271484375,-52.1240234375
2.1440141201019287,1582661167,1,0.2930810749530792,0.499900221824646,1.1363638639450073,44.43359375,-32.89794921875,-56.21337890625
2.1677780151367188,1582661164,0,-0.2487509846687317,0.12416786700487137,1.2064639329910278,30.94482421875,20.263671875,3.90625
2.1677842140197754,1582661183,0,-0.3339560627937317,0.07265419512987137,1.1686221361160278,80.38330078125,-21.91162109375,39.6728515625
2.174111843109131,1582661186,1,0.22398927807807922,0.567771315574646,1.0760611295700073,45.59326171875,-41.259765625,-61.95068359375
2.1892919540405273,1582661202,0,-0.2316611409187317,0.20253700017929077,1.1251651048660278,118.408203125,-48.40087890625,94.23828125
2.203993082046509,1582661222,1,0.20104005932807922,0.591452956199646,0.9530141949653625,72.6318359375,-53.955078125,-82.09228515625
2.224187135696411,1582661221,0,-0.10397558659315109,0.42250770330429077,1.1317569017410278,82.45849609375,8.30078125,79.58984375
2.224191904067993,1582661240,0,-0.09982519596815109,0.43422645330429077,1.0350772142410278,17.88330078125,86.3037109375,35.94970703125
2.234002113342285,1582661241,1,0.18639162182807922,0.572409987449646,0.8128774762153625,73.73046875,-70.37353515625,-80.56640625
2.2491769790649414,1582661259,0,-0.11862402409315109,0.34877723455429077,0.8793154954910278,-20.81298828125,124.0234375,18.6767578125
2.2706427574157715,1582661260,1,0.13854005932807922,0.561911940574646,0.6690786480903625,58.10546875,-75.1953125,-77.2705078125
2.2706480026245117,1582661279,1,0.17979982495307922,0.588523268699646,0.6634634137153625,39.12353515625,-55.23681640625,-62.43896484375
2.276467800140381,1582661278,0,-0.1630576252937317,0.31679481267929077,0.7977725267410278,-14.6484375,99.12109375,55.419921875
2.2940521240234375,1582661298,1,0.20519044995307922,0.493552565574646,0.5948598980903625,38.75732421875,-46.44775390625,-61.21826171875
2.2941200733184814,1582661317,1,0.21056154370307922,0.524802565574646,0.5457876324653625,42.54150390625,-40.6494140625,-67.56591796875
2.3187718391418457,1582661314,0,-0.029024414718151093,0.5174784064292908,0.7674990892410278,-9.09423828125,75.439453125,102.05078125
2.3187758922576904,1582661333,0,0.016385741531848907,0.5934061408042908,0.7272158861160278,-45.41015625,95.458984375,80.87158203125
2.3237228393554688,1582661336,1,0.14977052807807922,0.528464674949646,0.48987945914268494,29.6630859375,-34.60693359375,-74.21875
2.3388919830322266,1582661352,0,0.05129785090684891,0.5809549689292908,0.6832705736160278,-75.68359375,102.35595703125,61.279296875
2.353914976119995,1582661355,1,0.24156740307807922,0.705710768699646,0.44080719351768494,2.197265625,-10.6201171875,-76.2939453125
2.353930950164795,1582661374,1,0.15782716870307922,0.630759596824646,0.46302399039268494,-45.10498046875,-27.34375,-42.66357421875
2.3736770153045654,1582661371,0,0.05227441340684891,0.5887674689292908,0.6759463548660278,-103.57666015625,96.3134765625,46.875
2.3736839294433594,1582661390,0,0.10500878840684891,0.5894998908042908,0.8395205736160278,-133.97216796875,100.28076171875,40.283203125
2.3865251541137695,1582661393,1,0.3863427937030792,0.394187331199646,0.47571930289268494,-77.81982421875,-26.123046875,-10.43701171875
2.39886212348938,1582661409,0,0.1374794840812683,0.5841287970542908,0.8722354173660278,-142.7001953125,117.12646484375,35.46142578125
2.420424222946167,1582661412,1,0.2847802937030792,0.451072096824646,0.5514028668403625,-73.3642578125,35.82763671875,-27.03857421875
2.4204299449920654,1582661431,1,0.07701662182807922,0.632224440574646,0.7408559918403625,-75.98876953125,59.4482421875,-14.6484375
2.4274139404296875,1582661428,0,0.12063378840684891,0.5829080939292908,0.9015322923660278,-130.4931640625,123.71826171875,27.7099609375
2.427448034286499,1582661447,0,0.030301757156848907,0.6017069220542908,0.9410830736160278,-96.435546875,116.5771484375,23.86474609375
2.4453539848327637,1582661450,1,0.058461934328079224,0.669089674949646,0.8831899762153625,-87.70751953125,50.6591796875,16.7236328125
2.4686598777770996,1582661466,0,0.027860350906848907,0.6158670783042908,1.0016299486160278,-57.9833984375,109.19189453125,21.3623046875
2.46866512298584,1582661485,0,-0.1767295002937317,0.6214823126792908,0.9545108079910278,-25.20751953125,96.6796875,22.94921875
2.4739818572998047,1582661486,1,0.18932130932807922,0.1510232836008072,1.0636099576950073,-23.681640625,-3.7841796875,11.90185546875
2.4892258644104004,1582661504,0,-0.06222753971815109,0.5987772345542908,0.9596377611160278,15.9912109375,51.33056640625,42.29736328125
2.5039570331573486,1582661505,1,0.13683107495307922,0.1793435961008072,1.1700552701950073,56.7626953125,-36.1328125,-38.75732421875
2.504020929336548,1582661524,1,0.19566896557807922,0.695701003074646,1.0733755826950073,92.10205078125,-64.75830078125,-65.7958984375
2.5224108695983887,1582661523,0,-0.014131836593151093,0.5943827033042908,0.9669619798660278,62.5,28.9306640625,60.85205078125
2.522416114807129,1582661542,0,0.11379785090684891,0.6388162970542908,0.8732119798660278,95.3369140625,58.59375,63.90380859375
2.532562017440796,1582661543,1,0.3170068562030792,0.837790846824646,0.8944204449653625,82.70263671875,-49.4384765625,-22.705078125
2.5492348670959473,1582661578,0,0.11282128840684891,0.8678202033042908,0.6178408861160278,14.5263671875,147.705078125,34.1796875
2.5717389583587646,1582661562,1,0.3785302937030792,0.744040846824646,0.8206899762153625,61.6455078125,-36.1328125,1.28173828125
2.571743965148926,1582661581,1,0.24229982495307922,0.631980299949646,0.8411977887153625,39.0625,-24.71923828125,-14.58740234375
2.5792617797851562,1582661597,0,0.10329980403184891,0.7931131720542908,0.6058779954910278,-4.8828125,138.61083984375,30.3955078125
2.5939009189605713,1582661600,1,0.06554201245307922,0.706931471824646,0.8004263043403625,30.76171875,-48.2177734375,-35.2783203125
2.593935012817383,1582661619,1,0.14146974682807922,0.726706862449646,0.6969106793403625,44.0673828125,-62.98828125,-22.8271484375
2.6185100078582764,1582661616,0,0.09817285090684891,0.7411112189292908,0.5633975267410278,-1.5869140625,124.32861328125,37.841796875
2.6185169219970703,1582661635,0,0.1523720622062683,0.7196268439292908,0.5338565111160278,3.47900390625,110.16845703125,58.837890625
2.6239631175994873,1582661638,1,0.20763185620307922,0.675681471824646,0.6261098980903625,60.72998046875,-48.15673828125,-19.34814453125
2.637300968170166,1582661654,0,0.1333290934562683,0.8365702033042908,0.47111237049102783,-10.31494140625,123.59619140625,67.3828125
2.6538729667663574,1582661657,1,0.16466310620307922,0.712302565574646,0.6163442730903625,75.0732421875,-22.27783203125,-31.92138671875
2.653905153274536,1582661676,1,0.06895998120307922,0.853659987449646,0.5997427105903625,68.42041015625,-13.671875,-33.26416015625
2.6714742183685303,1582661673,0,0.1311318278312683,0.8429178595542908,0.45011627674102783,-31.18896484375,123.59619140625,63.29345703125
2.6714789867401123,1582661692,0,0.1274697184562683,0.8385233283042908,0.45548737049102783,-47.4853515625,121.88720703125,57.80029296875
2.684278964996338,1582661695,1,0.08800294995307922,0.916404128074646,0.6073110699653625,46.875,-17.578125,-21.6064453125
2.6992299556732178,1582661711,0,0.10842675715684891,0.7916483283042908,0.48600494861602783,-57.06787109375,116.8212890625,53.28369140625
2.7209551334381104,1582661714,1,0.13854005932807922,0.875876784324646,0.5929067730903625,24.658203125,-17.76123046875,-10.1318359375
2.7290890216827393,1582661730,0,0.11501855403184891,0.7665018439292908,0.5384951829910278,-54.38232421875,113.70849609375,59.4482421875
2.729123115539551,1582661749,0,0.11965722590684891,0.7857889533042908,0.5153018236160278,-44.677734375,109.130859375,72.69287109375
2.7438318729400635,1582661750,1,0.055532246828079224,0.788474440574646,0.5709341168403625,21.66748046875,-6.34765625,-9.8876953125
2.74385404586792,1582661769,1,0.059682637453079224,0.808493971824646,0.5064809918403625,32.2265625,-4.21142578125,-12.63427734375
2.768311023712158,1582661768,0,0.1294228434562683,0.8441385626792908,0.46940338611602783,-46.630859375,107.84912109375,74.40185546875
2.768315076828003,1582661787,0,0.1357704997062683,0.8253397345542908,0.44572174549102783,-65.7958984375,106.93359375,65.0634765625
2.7740588188171387,1582661788,1,0.08214357495307922,0.860007643699646,0.5225942730903625,31.6162109375,2.62451171875,-20.56884765625
2.789220094680786,1582661806,0,0.1365029215812683,0.7892069220542908,0.43009674549102783,-78.30810546875,102.72216796875,61.82861328125
2.8040170669555664,1582661807,1,0.055288106203079224,0.841452956199646,0.5272329449653625,27.099609375,5.79833984375,-20.08056640625
2.804083824157715,1582661826,1,0.031606465578079224,0.833396315574646,0.5133169293403625,22.3388671875,-7.2021484375,-16.41845703125
2.821805953979492,1582661842,0,0.1741005778312683,0.7542948126792908,0.41447174549102783,-85.3271484375,95.458984375,74.15771484375
2.8324368000030518,1582661845,1,0.06505373120307922,0.831687331199646,0.46448883414268494,11.29150390625,-19.4091796875,-13.36669921875
2.8482320308685303,1582661861,0,0.1877724528312683,0.7699198126792908,0.36051666736602783,-93.07861328125,88.43994140625,78.55224609375
2.870864152908325,1582661864,1,0.057973653078079224,0.806540846824646,0.42274078726768494,-0.79345703125,-18.798828125,-9.09423828125
2.8708689212799072,1582661883,1,0.08482912182807922,0.798484206199646,0.37635406851768494,-16.7236328125,-15.7470703125,-6.591796875
2.8789379596710205,1582661880,0,0.2107216715812683,0.7608866095542908,0.30680572986602783,-111.75537109375,78.61328125,71.35009765625
2.878998041152954,1582661899,0,0.2417275309562683,0.7467264533042908,0.21574126183986664,-149.5361328125,56.70166015625,62.80517578125
2.8940188884735107,1582661902,1,0.11876466870307922,0.795798659324646,0.37049469351768494,-35.70556640625,-10.55908203125,-7.6904296875
2.918675184249878,1582661918,0,0.3012978434562683,0.7262186408042908,0.24943266808986664,-184.9365234375,31.79931640625,64.51416015625
2.91867995262146,1582661937,0,0.2519814372062683,0.6764139533042908,0.44108307361602783,-233.88671875,28.564453125,68.05419921875
2.9237749576568604,1582661921,1,0.18272951245307922,0.675681471824646,0.44861969351768494,-52.1240234375,-1.953125,-13.12255859375
2.923830986022949,1582661940,1,0.10777834057807922,0.698630690574646,0.41663727164268494,-62.8662109375,2.0751953125,-19.34814453125
2.937140941619873,1582661956,0,0.2707802653312683,0.6749491095542908,0.5106631517410278,-262.5732421875,46.56982421875,77.08740234375
2.953922986984253,1582661959,1,0.18858888745307922,0.760886549949646,0.35609039664268494,-74.52392578125,-5.615234375,-13.18359375
2.9540131092071533,1582661978,1,0.17760255932807922,0.753562331199646,0.42249664664268494,-91.6748046875,11.1083984375,-1.52587890625
2.973154067993164,1582661975,0,0.4355751872062683,0.6927713751792908,0.6127139329910278,-264.95361328125,24.169921875,73.8525390625
2.973159074783325,1582661994,0,0.4294716715812683,0.6209940314292908,0.5675479173660278,-256.40869140625,20.32470703125,46.81396484375
2.996752977371216,1582662013,0,0.4350869059562683,0.6017069220542908,0.5670596361160278,-242.12646484375,53.466796875,-18.1884765625
3.019094944000244,1582662014,1,0.07433107495307922,0.910544753074646,0.45765289664268494,-127.197265625,-0.8544921875,34.72900390625
3.0191001892089844,1582662033,1,0.5176904201507568,0.12270297110080719,0.03358061984181404,-118.896484375,42.6025390625,23.681640625
3.0289909839630127,1582662032,0,0.1782509684562683,0.6488260626792908,0.44816315174102783,-253.84521484375,51.1474609375,-67.2607421875
3.029036045074463,1582662051,0,0.3117958903312683,0.5433573126792908,0.7067080736160278,-273.49853515625,-9.70458984375,-53.52783203125
3.042419910430908,1582662052,1,0.2535302937030792,0.543845534324646,0.18934233486652374,-36.31591796875,26.2451171875,-24.71923828125
3.0692219734191895,1582662070,0,0.5320107340812683,0.5374979376792908,1.0087100267410278,-277.099609375,-30.09033203125,-17.51708984375
3.073798179626465,1582662071,1,0.2642724812030792,0.813865065574646,0.6268423199653625,-68.4814453125,19.22607421875,-4.08935546875
3.073880910873413,1582662090,1,0.2991845905780792,0.589255690574646,0.7464712262153625,-111.63330078125,4.5166015625,-13.3056640625
3.0892751216888428,1582662106,0,0.5876747965812683,0.39125770330429077,1.0309268236160278,-237.60986328125,-41.259765625,-29.96826171875
3.1038970947265625,1582662109,1,0.3128564655780792,0.644431471824646,0.7701528668403625,-115.90576171875,-36.376953125,-25.81787109375
3.103956937789917,1582662128,1,0.3526513874530792,0.777488112449646,0.8787954449653625,-111.87744140625,-76.7822265625,-15.869140625
3.1222949028015137,1582662125,0,0.5049111247062683,0.5189432501792908,1.1224795579910278,-198.91357421875,-38.02490234375,-51.8798828125
3.1222989559173584,1582662144,0,0.5600869059562683,0.5680155158042908,1.3192569017410278,-192.9931640625,-36.7431640625,-39.1845703125
3.134382963180542,1582662147,1,0.4649560749530792,0.691794753074646,0.9696157574653625,-108.7646484375,-87.0361328125,-7.2021484375
3.1475980281829834,1582662163,0,0.6887490153312683,0.5704569220542908,1.3287783861160278,-187.1337890625,-62.3779296875,-39.0625
3.172055959701538,1582662166,1,0.6009423732757568,0.565329909324646,1.1021841764450073,-91.9189453125,-70.6787109375,-20.20263671875
3.1720619201660156,1582662185,1,0.5132958889007568,0.655906081199646,1.2210806608200073,-80.26123046875,-53.3447265625,-45.95947265625
3.1789989471435547,1582662182,0,0.5866982340812683,0.5353006720542908,1.3505069017410278,-149.96337890625,-83.0078125,-96.13037109375
3.1790759563446045,1582662201,0,0.5774208903312683,0.49013465642929077,1.4576846361160278,-122.802734375,-95.458984375,-131.04248046875
3.1942760944366455,1582662204,1,0.24815919995307922,0.789695143699646,1.3155630826950073,-57.4951171875,-50.35400390625,-59.99755859375
3.2180819511413574,1582662220,0,0.5830361247062683,0.48012489080429077,1.5030947923660278,-112.48779296875,-90.9423828125,-88.134765625
3.2242090702056885,1582662223,1,0.2979638874530792,1.037742018699646,1.3661001920700073,-9.521484375,-57.4951171875,-72.32666015625
3.2242138385772705,1582662242,1,0.3194482624530792,0.855368971824646,1.5130728483200073,7.9345703125,-54.62646484375,-43.02978515625
3.2390739917755127,1582662239,0,0.6460244059562683,0.5758280158042908,1.6066104173660278,-94.1162109375,-97.5341796875,-45.59326171875
3.2391390800476074,1582662258,0,0.5703408122062683,0.43324989080429077,1.7528506517410278,-65.4296875,-110.77880859375,-56.45751953125
3.2524590492248535,1582662278,1,0.13951662182807922,1.112937331199646,1.4703482389450073,18.49365234375,-79.52880859375,-35.888671875
3.2726268768310547,1582662277,0,0.4929482340812683,0.36855262517929077,1.9261904954910278,-45.8984375,-119.2626953125,-88.2568359375
3.2726330757141113,1582662296,0,0.3752724528312683,0.35366004705429077,2.0861024856567383,-31.3720703125,-83.19091796875,-88.2568359375
3.28399395942688,1582662297,1,-0.013559550046920776,1.101218581199646,1.5394400358200073,3.84521484375,-105.16357421875,-32.8369140625
3.298927068710327,1582662315,0,0.3027626872062683,0.36415809392929077,2.0216493606567383,-16.41845703125,-59.99755859375,-51.45263671875
3.3206372261047363,1582662316,1,0.025258809328079224,1.119284987449646,1.4495962858200073,17.02880859375,-138.12255859375,-38.63525390625
3.3206419944763184,1582662335,1,0.031362324953079224,0.994040846824646,1.3985708951950073,47.79052734375,-138.36669921875,-29.1748046875
3.3292038440704346,1582662334,0,0.3301064372062683,0.37270301580429077,1.9257022142410278,11.29150390625,-40.771484375,-6.591796875
3.3432490825653076,1582662354,1,-0.10145017504692078,0.956443190574646,1.3270376920700073,54.19921875,-153.1982421875,-7.080078125
3.368868112564087,1582662370,0,0.1692177653312683,0.35512489080429077,1.6175967454910278,29.296875,1.953125,-28.80859375
3.3738720417022705,1582662373,1,-0.17420408129692078,0.858054518699646,1.2345083951950073,42.05322265625,-174.37744140625,15.869140625
3.373878002166748,1582662392,1,-0.12513181567192078,0.726706862449646,1.1214712858200073,31.005859375,-180.60302734375,29.11376953125
3.389132022857666,1582662389,0,0.1433388590812683,0.24794715642929077,1.4752627611160278,28.1982421875,17.63916015625,-43.8232421875
3.3891470432281494,1582662408,0,0.06887597590684891,0.25185340642929077,1.3487979173660278,34.66796875,29.296875,-27.099609375
3.404099941253662,1582662411,1,-0.11561033129692078,0.527976393699646,1.0142935514450073,27.77099609375,-165.6494140625,24.96337890625
3.422734022140503,1582662427,0,-0.019014649093151093,0.23818153142929077,1.2098819017410278,43.3349609375,28.9306640625,4.94384765625
3.422739028930664,1582662446,0,-0.07199316471815109,0.19692176580429077,1.0768252611160278,32.2265625,31.67724609375,5.9814453125
3.433979034423828,1582662430,1,-0.15003415942192078,0.431540846824646,0.9190786480903625,38.9404296875,-155.94482421875,15.625
3.434015989303589,1582662449,1,-0.12903806567192078,0.388572096824646,0.7735708355903625,56.21337890625,-142.63916015625,11.77978515625
3.4476709365844727,1582662465,0,-0.1332724690437317,0.10781044512987137,1.0153018236160278,10.07080078125,48.40087890625,-2.01416015625
3.4712769985198975,1582662468,1,-0.10706540942192078,0.387107253074646,0.6844595074653625,63.04931640625,-139.95361328125,16.4794921875
3.4712820053100586,1582662487,1,-0.12464353442192078,0.368064284324646,0.5948598980903625,55.5419921875,-131.40869140625,19.6533203125
3.4788639545440674,1582662484,0,-0.2001670002937317,0.03627724200487137,0.9542666673660278,-2.13623046875,66.5283203125,6.89697265625
3.4789299964904785,1582662503,0,-0.2480185627937317,0.05751747637987137,0.8490420579910278,-13.7939453125,77.0263671875,33.3251953125
3.4941108226776123,1582662506,1,-0.036264628171920776,0.345603346824646,0.5142934918403625,36.0107421875,-128.23486328125,18.06640625
3.5191709995269775,1582662522,0,-0.2350791096687317,0.06874794512987137,0.7430850267410278,-31.3720703125,79.77294921875,58.16650390625
3.5240700244903564,1582662542,1,0.0018213093280792236,0.305808424949646,0.37025055289268494,-15.93017578125,-104.6142578125,10.43701171875
3.539027214050293,1582662541,0,-0.2057822346687317,0.015281148254871368,0.6996279954910278,-42.1142578125,79.65087890625,78.369140625
3.539073944091797,1582662560,0,-0.2458212971687317,0.06093544512987137,0.6766787767410278,-49.62158203125,83.06884765625,100.52490234375
3.552520990371704,1582662561,1,0.11632326245307922,0.319236159324646,0.29041656851768494,-36.19384765625,-87.890625,8.72802734375
3.57368803024292,1582662579,0,-0.2680380940437317,0.11782021075487137,0.6356631517410278,-57.2509765625,107.0556640625,133.11767578125
3.573694944381714,1582662598,0,-0.2355673909187317,0.03261513262987137,0.5843936204910278,-64.5751953125,162.29248046875,179.0771484375
3.5857269763946533,1582662580,1,0.12560060620307922,0.312644362449646,0.28016266226768494,-56.396484375,-73.79150390625,12.87841796875
3.5857350826263428,1582662599,1,0.20982912182807922,0.296775221824646,0.28455719351768494,-80.01708984375,-72.44873046875,10.07080078125
3.621076822280884,1582662618,1,0.2574365437030792,0.2206033617258072,0.22986967861652374,-99.91455078125,-63.17138671875,2.8076171875
3.622142791748047,1582662637,1,0.21153810620307922,0.261863112449646,0.20887358486652374,-110.2294921875,-62.68310546875,2.74658203125
3.6290900707244873,1582662634,0,-0.1833212971687317,0.12685340642929077,0.42106354236602783,-101.6845703125,171.0205078125,176.08642578125
3.6291770935058594,1582662653,0,-0.2258017659187317,0.07875771075487137,0.40714752674102783,-116.14990234375,142.02880859375,159.36279296875
3.643954038619995,1582662656,1,0.20934084057807922,0.289939284324646,0.16028960049152374,-115.966796875,-47.42431640625,19.287109375
3.6695899963378906,1582662672,0,-0.2511923909187317,0.04994911700487137,0.38029205799102783,-98.08349609375,108.2763671875,163.51318359375
3.674494981765747,1582662675,1,0.2906396687030792,0.1981424242258072,0.25745758414268494,-116.88232421875,-15.56396484375,54.931640625
3.6745009422302246,1582662694,1,0.4112451374530792,0.12343539297580719,0.25403961539268494,-117.7978515625,-7.6904296875,52.18505859375
3.68898606300354,1582662691,0,-0.1618369221687317,0.06972450762987137,0.38371002674102783,-77.392578125,88.9892578125,173.2177734375
3.6890430450439453,1582662710,0,-0.1274130940437317,0.13002723455429077,0.39762604236602783,-74.8291015625,83.740234375,176.513671875
3.7039380073547363,1582662713,1,0.3694970905780792,0.1290506273508072,0.34363922476768494,-119.0185546875,-5.67626953125,36.43798828125
3.7220661640167236,1582662729,0,-0.08590918034315109,0.15029090642929077,0.41105377674102783,-84.8388671875,89.17236328125,178.7109375
3.7220709323883057,1582662748,0,-0.06369238346815109,0.08705849200487137,0.43766510486602783,-92.22412109375,83.31298828125,191.71142578125
3.7340290546417236,1582662732,1,0.3055322468280792,0.1915506273508072,0.39490875601768494,-119.0185546875,-2.50244140625,44.189453125
3.7340569496154785,1582662751,1,0.2940576374530792,0.2113260179758072,0.46229156851768494,-120.30029296875,7.99560546875,66.83349609375
3.748857021331787,1582662767,0,0.0041787102818489075,0.05214638262987137,0.48258697986602783,-83.8623046875,57.4951171875,223.32763671875
3.770003080368042,1582662770,1,0.2862451374530792,0.1639627367258072,0.5619009137153625,-120.17822265625,18.85986328125,106.50634765625
3.7773890495300293,1582662786,0,0.07009667903184891,0.04506630450487137,0.5397158861160278,-75.8056640625,26.611328125,240.1123046875
3.777467966079712,1582662805,0,0.10745019465684891,0.05507607012987137,0.6273623704910278,-70.9228515625,17.39501953125,243.59130859375
3.7942068576812744,1582662806,1,0.3521631062030792,0.01821078360080719,0.6930044293403625,-118.95751953125,20.6298828125,126.64794921875
3.8190929889678955,1582662824,0,0.2461220622062683,0.06508583575487137,0.6747256517410278,-74.70703125,38.51318359375,257.50732421875
3.8260011672973633,1582662825,1,0.2862451374530792,0.06801547110080719,0.7130239605903625,-108.21533203125,29.4189453125,131.34765625
3.8260068893432617,1582662844,1,0.2901513874530792,0.10463656485080719,0.7850454449653625,-96.49658203125,36.92626953125,156.55517578125
3.8390371799468994,1582662843,0,0.3249794840812683,0.06923622637987137,0.6984072923660278,-74.76806640625,68.90869140625,272.0947265625
3.8391220569610596,1582662862,0,0.3557412028312683,0.03212685137987137,0.7198916673660278,-70.86181640625,93.6279296875,279.84619140625
3.8655970096588135,1582662863,1,0.3123681843280792,0.04457797110080719,0.8910024762153625,-96.61865234375,33.99658203125,188.232421875
3.871917963027954,1582662898,0,0.4255654215812683,-0.07846885174512863,0.9772158861160278,-68.603515625,79.2236328125,278.076171875
3.884084939956665,1582662882,1,0.2867334187030792,-0.02475796639919281,0.9569204449653625,-87.890625,28.1982421875,195.49560546875
3.8841710090637207,1582662901,1,0.2564599812030792,-0.06211148202419281,1.0382193326950073,-75.37841796875,32.8369140625,180.2978515625
3.898787021636963,1582662917,0,0.5517861247062683,-0.06723838299512863,1.0797549486160278,-58.4716796875,52.67333984375,303.955078125
3.920541763305664,1582662920,1,0.20982912182807922,-0.08774624764919281,1.0650748014450073,-67.44384765625,37.7197265625,173.583984375
3.929008960723877,1582662936,0,0.8110634684562683,0.01601357012987137,1.1595889329910278,-46.20361328125,57.67822265625,327.7587890625
3.9290430545806885,1582662955,0,0.9436318278312683,0.07607216387987137,1.2111026048660278,-58.28857421875,115.3564453125,290.22216796875
3.9439761638641357,1582662939,1,0.21202638745307922,-0.10263882577419281,1.1317251920700073,-74.3408203125,33.447265625,184.99755859375
3.944042921066284,1582662958,1,0.23473146557807922,-0.1885763257741928,1.2567251920700073,-103.02734375,24.96337890625,195.37353515625
3.9682180881500244,1582662974,0,0.8796669840812683,0.011863179504871368,1.2736026048660278,-73.66943359375,164.0625,214.9658203125
3.97422194480896,1582662977,1,0.2786767780780792,-0.256935715675354,1.3526724576950073,-101.4404296875,15.44189453125,174.560546875
3.9742469787597656,1582662996,1,0.2515771687030792,-0.302834153175354,1.4486197233200073,-67.7490234375,24.23095703125,157.89794921875
3.989229917526245,1582662993,0,0.9165322184562683,-0.11924033612012863,1.3304873704910278,-65.00244140625,148.681640625,195.6787109375
3.989331007003784,1582663012,0,1.061063528060913,-0.20664268732070923,1.3663760423660278,-18.85986328125,96.13037109375,235.9619140625
4.016042947769165,1582663015,1,0.2767236530780792,-0.395607590675354,1.5694693326950073,-15.56396484375,49.37744140625,138.97705078125
4.023010015487671,1582663031,0,1.194852590560913,-0.11972861737012863,1.4315615892410278,29.052734375,76.5380859375,265.625
4.033998966217041,1582663034,1,0.3531396687030792,-0.348976731300354,1.6519888639450073,-4.21142578125,49.37744140625,145.69091796875
4.048911094665527,1582663050,0,1.272733449935913,-0.004005961120128632,1.4930850267410278,42.17529296875,103.21044921875,247.25341796875
4.04896879196167,1582663069,0,1.332303762435913,-0.06479697674512863,1.5519229173660278,31.1279296875,157.28759765625,186.767578125
4.0697021484375,1582663070,1,0.4090478718280792,-0.2317892163991928,1.7074087858200073,-40.4052734375,-10.3759765625,196.044921875
4.080648899078369,1582663088,0,1.443143606185913,-0.21396690607070923,1.5770694017410278,11.71875,197.20458984375,163.9404296875
4.080656051635742,1582663107,0,1.601346731185913,-0.28379112482070923,1.5922061204910278,18.12744140625,187.68310546875,198.05908203125
4.09404993057251,1582663089,1,0.4044091999530792,-0.2415548413991928,1.7603873014450073,-31.18896484375,-29.78515625,198.2421875
4.094086170196533,1582663108,1,0.4593408405780792,-0.260353684425354,1.7867544889450073,-0.91552734375,-3.60107421875,201.66015625
4.117686033248901,1582663126,0,1.772001028060913,-0.27158409357070923,1.5958682298660278,46.44775390625,157.53173828125,214.35546875
4.124099016189575,1582663127,1,0.5220849514007568,-0.348488450050354,1.7833365201950073,28.6865234375,30.6396484375,220.947265625
4.124165058135986,1582663146,1,0.6700341701507568,-0.441506028175354,1.8558462858200073,53.7109375,61.95068359375,237.73193359375
4.1388750076293945,1582663162,0,2.187040090560913,-0.12998253107070923,1.5660830736160278,116.39404296875,153.62548828125,159.3017578125
4.167503118515015,1582663165,1,0.7567040920257568,-0.591408371925354,2.0457875728607178,67.07763671875,80.56640625,239.6240234375
4.173315048217773,1582663181,0,2.164335012435913,-0.22202354669570923,1.4777041673660278,115.234375,190.673828125,93.81103515625
4.186403036117554,1582663184,1,0.8621728420257568,-0.687843918800354,2.1695668697357178,101.806640625,53.40576171875,243.408203125
4.186408996582031,1582663203,1,0.9815576076507568,-0.879738450050354,2.1893422603607178,138.85498046875,11.71875,250.54931640625
4.198880910873413,1582663200,0,2.116239309310913,-0.37046104669570923,1.3610049486160278,110.3515625,196.83837890625,68.4814453125
4.198911905288696,1582663219,0,2.111356496810913,-0.41391807794570923,1.2369815111160278,121.27685546875,179.6875,67.81005859375
4.222599029541016,1582663222,1,1.0975244045257568,-1.155617356300354,2.2230336666107178,185.546875,-36.865234375,239.68505859375
4.229107856750488,1582663238,0,2.133817434310913,-0.35263878107070923,1.1180850267410278,127.01416015625,167.3583984375,48.27880859375
4.229139804840088,1582663257,0,2.072538137435913,-0.42392784357070923,1.0489932298660278,117.0654296875,146.484375,-4.150390625
4.2453789710998535,1582663241,1,1.2513329982757568,-1.326271653175354,2.0804555416107178,230.712890625,-80.13916015625,185.60791015625
4.245388984680176,1582663260,1,1.1920068264007568,-1.388527512550354,1.8722037076950073,256.16455078125,-139.404296875,129.45556640625
4.268279075622559,1582663276,0,1.923124074935913,-0.6136251091957092,1.0184756517410278,118.10302734375,113.46435546875,-40.10009765625
4.2722930908203125,1582663279,1,1.0508935451507568,-1.433205246925354,1.7362173795700073,252.9296875,-175.4150390625,95.947265625
4.27236795425415,1582663298,1,0.8860986232757568,-1.470314621925354,1.5919302701950073,244.140625,-203.91845703125,55.96923828125
4.287492036819458,1582663295,0,1.843534231185913,-0.6263204216957092,0.9447451829910278,133.11767578125,76.84326171875,-46.875
4.287554979324341,1582663314,0,1.771756887435913,-0.6524434685707092,0.8522158861160278,135.1318359375,49.13330078125,-55.11474609375
4.32023286819458,1582663333,0,1.613553762435913,-0.6475606560707092,0.7631045579910278,108.82568359375,27.52685546875,-86.669921875
4.33410906791687,1582663334,1,0.6277978420257568,-1.361427903175354,1.1319693326950073,246.03271484375,-271.17919921875,-17.9443359375
4.33412504196167,1582663353,1,0.4359033405780792,-1.218849778175354,0.8790395855903625,245.4833984375,-278.62548828125,-62.98828125
4.348696947097778,1582663352,0,1.344754934310913,-0.7508321404457092,0.6483584642410278,77.20947265625,13.97705078125,-119.56787109375
4.34877610206604,1582663371,0,1.138944387435913,-0.7930684685707092,0.5743838548660278,50.47607421875,5.37109375,-130.4931640625
4.371458053588867,1582663372,1,0.2589013874530792,-0.996437668800354,0.6480825543403625,231.93359375,-282.71484375,-87.70751953125
4.378875970840454,1582663390,0,0.8899208903312683,-0.8023458123207092,0.45646393299102783,26.30615234375,-9.27734375,-136.41357421875
4.394059896469116,1582663391,1,0.14146974682807922,-0.839699387550354,0.5440786480903625,207.51953125,-286.62109375,-92.4072265625
4.394086122512817,1582663410,1,0.004995137453079224,-0.656349778175354,0.41297516226768494,164.97802734375,-299.560546875,-96.49658203125
4.418792963027954,1582663426,0,0.4492470622062683,-0.6778340935707092,0.36539947986602783,23.62060546875,-68.4814453125,-130.859375
4.4239442348480225,1582663429,1,-0.035043925046920776,-0.572365403175354,0.36732086539268494,129.08935546875,-310.791015625,-108.5205078125
4.423948049545288,1582663448,1,-0.07850095629692078,-0.422707200050354,0.23402006924152374,105.95703125,-324.40185546875,-139.09912109375
4.438988924026489,1582663445,0,0.2605263590812683,-0.6119161248207092,0.37345612049102783,40.95458984375,-115.66162109375,-124.45068359375
4.439038991928101,1582663464,0,0.1291787028312683,-0.48716026544570923,0.35636627674102783,72.1435546875,-173.88916015625,-96.86279296875
4.453994989395142,1582663467,1,-0.2523290812969208,-0.2005392163991928,-0.01890961453318596,90.14892578125,-311.95068359375,-144.6533203125
4.472397089004517,1582663483,0,0.027616210281848907,-0.40146690607070923,0.36002838611602783,86.48681640625,-217.59033203125,-68.2373046875
4.48392391204834,1582663486,1,-0.2701513469219208,0.02602328360080719,-0.31407561898231506,75.0732421875,-264.2822265625,-138.73291015625
4.484013080596924,1582663505,1,-0.22571775317192078,0.1944803148508072,-0.46812835335731506,49.560546875,-206.84814453125,-125.91552734375
4.51925802230835,1582663524,1,-0.23914548754692078,0.398581862449646,-0.5052377581596375,-5.06591796875,-175.96435546875,-114.31884765625
4.528414964675903,1582663502,0,-0.07663183659315109,-0.26963096857070923,0.37833893299102783,94.8486328125,-268.85986328125,-22.64404296875
4.528509140014648,1582663521,0,-0.1750205159187317,-0.12705284357070923,0.48966705799102783,106.4453125,-295.10498046875,18.61572265625
4.528520107269287,1582663540,0,-0.2087119221687317,0.18373817205429077,0.6632510423660278,112.12158203125,-271.97265625,31.8603515625
4.530022144317627,1582663559,0,-0.1337607502937317,0.42885535955429077,0.6061221361160278,57.18994140625,-239.56298828125,-15.68603515625
4.543927907943726,1582663543,1,-0.2716161906719208,0.560202956199646,-0.5267221331596375,-49.62158203125,-165.58837890625,-108.33740234375
4.543993949890137,1582663562,1,-0.2977392375469208,0.744040846824646,-0.5320932269096375,-83.8623046875,-142.7001953125,-97.83935546875
4.568553924560547,1582663578,0,-0.1862509846687317,0.40419715642929077,0.6393252611160278,-50.72021484375,-181.33544921875,-53.89404296875
4.573649168014526,1582663598,1,-0.2611181437969208,0.746482253074646,-0.31920257210731506,-118.22509765625,-72.69287109375,-51.45263671875
4.589108943939209,1582663597,0,-0.3249228596687317,0.33217567205429077,0.5604678392410278,-149.23095703125,-121.15478515625,-40.0390625
4.589192152023315,1582663616,0,-0.4086630940437317,0.40224403142929077,0.48087799549102783,-181.70166015625,-82.51953125,-7.38525390625
4.603976011276245,1582663617,1,-0.22352048754692078,0.682517409324646,-0.09703461825847626,-127.5634765625,-49.37744140625,-31.982421875
4.623144865036011,1582663635,0,-0.3984091877937317,0.44008582830429077,0.42008697986602783,-177.490234375,-75.37841796875,9.8876953125
4.634273052215576,1582663636,1,-0.11097165942192078,0.629294753074646,0.14539702236652374,-131.591796875,-39.0625,-38.818359375
4.634337902069092,1582663655,1,0.013051778078079224,0.552146315574646,0.37147125601768494,-148.37646484375,-42.724609375,-52.6123046875
4.649188041687012,1582663654,0,-0.3752158284187317,0.46962684392929077,0.41911041736602783,-169.0673828125,-80.810546875,33.203125
4.6712000370025635,1582663674,1,0.015004903078079224,0.507224440574646,0.43983063101768494,-156.25,-39.1845703125,-70.3125
4.6775970458984375,1582663690,0,-0.3517783284187317,0.49013465642929077,0.5775576829910278,-190.185546875,-91.00341796875,62.56103515625
4.6940598487854,1582663693,1,-0.031137675046920776,0.489158034324646,0.5487173199653625,-157.3486328125,-24.71923828125,-75.98876953125
4.694087028503418,1582663712,1,-0.053842753171920776,0.499411940574646,0.6693227887153625,-141.41845703125,-0.732421875,-72.1435546875
4.7187628746032715,1582663709,0,-0.3544638752937317,0.5074686408042908,0.6483584642410278,-208.49609375,-54.19921875,80.810546875
4.718768119812012,1582663728,0,-0.3449423909187317,0.5484842658042908,0.6517764329910278,-220.15380859375,-7.01904296875,98.08349609375
4.725538969039917,1582663731,1,-0.07337400317192078,0.578513503074646,0.7801626324653625,-130.4931640625,27.40478515625,-78.0029296875
4.738835096359253,1582663747,0,-0.2384970784187317,0.5562967658042908,0.6063662767410278,-234.2529296875,39.0625,116.0888671875
4.738903045654297,1582663766,0,-0.1264365315437317,0.5382303595542908,0.5585147142410278,-259.6435546875,41.748046875,143.37158203125
4.766962766647339,1582663750,1,-0.06702634692192078,0.652243971824646,0.8507192730903625,-146.17919921875,31.55517578125,-77.45361328125
4.7669689655303955,1582663769,1,-0.08020994067192078,0.681052565574646,0.9998891949653625,-192.93212890625,4.638671875,-68.54248046875
4.773244142532349,1582663785,0,-0.03903418034315109,0.5558084845542908,0.6683779954910278,-274.2919921875,24.35302734375,162.9638671875
4.782381057739258,1582663788,1,-0.13953611254692078,0.691306471824646,1.0514029264450073,-234.2529296875,-13.18359375,-17.08984375
4.782457113265991,1582663807,1,-0.009653300046920776,0.568992018699646,1.1351431608200073,-215.75927734375,-2.38037109375,7.50732421875
4.797698974609375,1582663804,0,0.0051552727818489075,0.5704569220542908,0.7914248704910278,-273.01025390625,18.12744140625,167.1142578125
4.797744989395142,1582663823,0,0.09792871028184891,0.5543436408042908,0.8976260423660278,-268.9208984375,30.09033203125,175.048828125
4.820426940917969,1582663826,1,0.08409669995307922,0.578025221824646,1.1856802701950073,-189.63623046875,2.44140625,-5.4931640625
4.829265117645264,1582663842,0,0.2019326090812683,0.5499491095542908,0.9889346361160278,-265.07568359375,46.20361328125,197.3876953125
4.8438849449157715,1582663862,1,0.17149904370307922,0.640036940574646,1.1742056608200073,-200.5615234375,-24.10888671875,-10.80322265625
4.8695080280303955,1582663861,0,0.3008095622062683,0.5279764533042908,1.1146670579910278,-268.12744140625,55.908203125,230.65185546875
4.8695149421691895,1582663880,0,0.3269326090812683,0.5482401251792908,1.2289248704910278,-265.2587890625,67.3828125,252.99072265625
4.873945951461792,1582663881,1,0.17369630932807922,0.676169753074646,1.2074087858200073,-222.65625,-19.34814453125,28.38134765625
4.88733696937561,1582663899,0,0.3891884684562683,0.5453104376792908,1.3116885423660278,-244.68994140625,81.54296875,280.1513671875
4.887401819229126,1582663918,0,0.5766884684562683,0.5235819220542908,1.3378115892410278,-222.900390625,93.32275390625,327.2705078125
4.903773784637451,1582663900,1,0.2977197468280792,0.517966628074646,1.3451040983200073,-215.51513671875,-1.15966796875,50.537109375
4.903841018676758,1582663919,1,0.3824365437030792,0.487693190574646,1.3519400358200073,-219.29931640625,-28.25927734375,67.2607421875
4.932099103927612,1582663938,1,0.5843408107757568,0.513327956199646,1.2567251920700073,-249.51171875,-55.419921875,92.59033203125
4.933829069137573,1582663957,1,0.6898095607757568,0.463034987449646,1.3160513639450073,-279.96826171875,-61.8896484375,146.1181640625
4.948767900466919,1582663954,0,1.344999074935913,0.7782205939292908,1.5377627611160278,-184.9365234375,171.9970703125,417.8466796875
4.948867082595825,1582663973,0,1.667508840560913,1.0414042472839355,1.5353213548660278,-176.08642578125,249.3896484375,403.13720703125
4.97681999206543,1582663992,0,1.884061574935913,1.0763163566589355,1.3768740892410278,-179.13818359375,274.96337890625,362.4267578125
4.99311900138855,1582663976,1,0.9871728420257568,0.2352517992258072,1.5826529264450073,-251.5869140625,-41.19873046875,195.556640625
4.993221998214722,1582663995,1,1.3416650295257568,0.1288064867258072,1.8094595670700073,-175.4150390625,-26.4892578125,188.17138671875
4.993246793746948,1582664014,1,1.6971337795257568,0.03456820547580719,1.7078970670700073,-108.21533203125,-6.65283203125,161.43798828125
5.018151044845581,1582664011,0,2.005887746810913,1.1024394035339355,1.3522158861160278,-114.2578125,289.61181640625,333.43505859375
5.018160104751587,1582664030,0,1.502958059310913,0.7735819220542908,1.4820986986160278,-39.36767578125,276.2451171875,314.453125
5.023985147476196,1582664033,1,2.080190420150757,-0.07602749764919281,1.6080435514450073,-35.09521484375,18.98193359375,158.5693359375
5.038983106613159,1582664049,0,1.908231496810913,0.7708963751792908,0.9435244798660278,-5.55419921875,219.90966796875,324.0966796875
5.038996934890747,1582664068,0,1.915555715560913,0.5619120001792908,1.0394717454910278,-12.87841796875,188.65966796875,274.59716796875
5.0538201332092285,1582664052,1,2.028432607650757,-0.405129075050354,1.5225943326950073,19.775390625,6.28662109375,126.15966796875
5.053879022598267,1582664071,1,1.8284814357757568,-0.670265793800354,1.3953970670700073,46.9970703125,-18.6767578125,79.28466796875
5.072171926498413,1582664087,0,2.159452199935913,0.7462381720542908,1.1100283861160278,38.39111328125,198.91357421875,90.33203125
5.084039211273193,1582664090,1,1.7571923732757568,-0.2188497632741928,0.5609243512153625,38.4521484375,-7.01904296875,86.669921875
5.098131895065308,1582664106,0,1.767118215560913,0.29653114080429077,0.8815127611160278,58.65478515625,150.81787109375,-49.4384765625
5.098188877105713,1582664125,0,1.432645559310913,0.07021278887987137,0.9176455736160278,69.03076171875,110.90087890625,-68.78662109375
5.12096095085144,1582664126,1,1.1758935451507568,-0.471535325050354,0.7381704449653625,118.34716796875,-9.1552734375,51.6357421875
5.129267930984497,1582664144,0,0.9450966715812683,-0.26108604669570923,0.9969912767410278,93.6279296875,80.99365234375,-41.3818359375
5.143985033035278,1582664145,1,0.6414697170257568,-0.380715012550354,0.6392934918403625,164.0625,-13.671875,-16.357421875
5.144047975540161,1582664164,1,0.4283349812030792,-0.321632981300354,0.7452505230903625,192.56591796875,-26.85546875,-39.794921875
5.169229030609131,1582664163,0,0.6684853434562683,-0.26084190607070923,1.2267276048660278,125.30517578125,95.8251953125,-39.6728515625
5.169234037399292,1582664182,0,0.4140908122062683,-0.38974815607070923,1.1886416673660278,166.07666015625,107.60498046875,-79.7119140625
5.174290180206299,1582664183,1,0.3582666218280792,-0.2029806226491928,0.9268911480903625,256.4697265625,-57.12890625,-60.1806640625
5.187597990036011,1582664218,0,0.11306542903184891,-0.18955284357070923,0.7743350267410278,213.43994140625,-0.79345703125,-77.08740234375
5.202354907989502,1582664202,1,0.09532716870307922,0.08046664297580719,0.7349966168403625,249.69482421875,-86.24267578125,-41.56494140625
5.202448129653931,1582664221,1,-0.012827128171920776,0.274802565574646,0.5333364605903625,250.6103515625,-79.833984375,-25.390625
5.222836971282959,1582664237,0,0.07180566340684891,-0.0025411173701286316,0.5814639329910278,187.3779296875,-118.1640625,-64.697265625
5.233768939971924,1582664240,1,0.20006349682807922,0.458640456199646,0.5003774762153625,277.4658203125,-96.923828125,-76.66015625
5.233798980712891,1582664259,1,-0.043344706296920776,0.768943190574646,0.26527008414268494,246.337890625,-119.140625,-88.0126953125
5.249205827713013,1582664256,0,-0.026094727218151093,0.10805458575487137,0.7013369798660278,218.81103515625,-197.32666015625,-41.50390625
5.249274969100952,1582664275,0,0.4548622965812683,0.46596473455429077,0.44132721424102783,232.23876953125,-185.72998046875,-90.27099609375
5.270489931106567,1582664278,1,-0.11951658129692078,1.019431471824646,0.24793608486652374,197.6318359375,-103.33251953125,-59.02099609375
5.279855012893677,1582664294,0,0.12380761653184891,0.12880653142929077,0.21183501183986664,174.072265625,-159.66796875,-144.1650390625
5.292641878128052,1582664297,1,0.20787599682807922,0.931784987449646,0.16541655361652374,138.427734375,-114.2578125,-46.142578125
5.29266095161438,1582664316,1,0.06944826245307922,0.850730299949646,0.008678276091814041,95.52001953125,-112.85400390625,-52.91748046875
5.317672967910767,1582664313,0,-0.09445410221815109,0.07314247637987137,0.015790089964866638,68.90869140625,-134.3994140625,-107.91015625
5.317677974700928,1582664332,0,-0.2746298909187317,0.06801552325487137,0.13004790246486664,-30.6396484375,-124.0234375,-46.7529296875
5.322707176208496,1582664335,1,-0.0033056437969207764,0.725730299949646,-0.005726020783185959,43.76220703125,-84.5947265625,-52.001953125
5.337388038635254,1582664351,0,-0.3634970784187317,0.17079871892929077,0.22453032433986664,-74.15771484375,-107.11669921875,-29.9072265625
5.3531858921051025,1582664354,1,-0.053598612546920776,0.669333815574646,0.15833647549152374,28.50341796875,-44.61669921875,-33.38623046875
5.3735809326171875,1582664370,0,-0.3759482502937317,0.14125770330429077,0.32560455799102783,-100.40283203125,-78.4912109375,-8.056640625
5.373587131500244,1582664389,0,-0.3942587971687317,0.07656044512987137,0.5228701829910278,-133.1787109375,-31.43310546875,33.02001953125
5.386029958724976,1582664390,1,0.046254903078079224,0.447898268699646,0.40687164664268494,29.60205078125,-16.2353515625,-36.4990234375
5.3974609375,1582664408,0,-0.4367392659187317,0.17787879705429077,0.5162783861160278,-172.119140625,28.076171875,73.486328125
5.397533178329468,1582664427,0,-0.2350791096687317,0.33217567205429077,0.6407901048660278,-202.08740234375,49.86572265625,69.27490234375
5.421011924743652,1582664409,1,0.11900880932807922,0.297995924949646,0.5516470074653625,7.01904296875,-32.40966796875,-60.85205078125
5.4210169315338135,1582664428,1,0.14146974682807922,0.1978982836008072,0.49036774039268494,-27.77099609375,-29.4189453125,-82.94677734375
5.429228067398071,1582664446,0,-0.2211630940437317,0.39052528142929077,0.6923037767410278,-212.890625,55.0537109375,37.2314453125
5.443800926208496,1582664447,1,-0.034799784421920776,0.1891092211008072,0.5709341168403625,-62.5,-25.146484375,-79.9560546875
5.44380521774292,1582664466,1,0.17711427807807922,0.1278299242258072,0.5806997418403625,-54.26025390625,18.24951171875,-51.33056640625
5.4685869216918945,1582664482,0,-0.03293066471815109,0.45400184392929077,0.6320010423660278,-218.20068359375,49.62158203125,-21.484375
5.474249839782715,1582664485,1,0.17540529370307922,0.01454867422580719,0.5709341168403625,-33.69140625,23.62060546875,-89.2333984375
5.489145994186401,1582664501,0,0.03445214778184891,0.5103983283042908,0.6788760423660278,-235.83984375,38.14697265625,2.44140625
5.5021889209747314,1582664504,1,0.11974123120307922,0.1436990648508072,0.49671539664268494,-51.94091796875,17.4560546875,-124.08447265625
5.50225305557251,1582664523,1,0.07970216870307922,0.291648268699646,0.5697134137153625,-113.46435546875,7.32421875,-130.37109375
5.521737813949585,1582664520,0,0.2195107340812683,0.5343241095542908,0.7096377611160278,-262.63427734375,29.72412109375,98.0224609375
5.521743059158325,1582664539,0,0.2400185465812683,0.5833963751792908,0.7198916673660278,-268.5546875,42.1142578125,163.75732421875
5.548552989959717,1582664558,0,0.3623329997062683,0.6361307501792908,0.7892276048660278,-263.671875,43.3349609375,165.83251953125
5.548557996749878,1582664577,0,0.4409462809562683,0.6305155158042908,0.7345401048660278,-274.96337890625,55.5419921875,164.00146484375
5.569450855255127,1582664542,1,-0.008920878171920776,0.324851393699646,0.6908071637153625,-156.79931640625,17.39501953125,-97.59521484375
5.569457054138184,1582664561,1,0.009389668703079224,0.400534987449646,0.7430532574653625,-166.6259765625,37.59765625,-53.40576171875
5.578850030899048,1582664596,0,0.4306923747062683,0.5082010626792908,0.8158389329910278,-302.06298828125,64.8193359375,169.12841796875
5.593213081359863,1582664580,1,0.10899904370307922,0.447898268699646,0.8372915387153625,-183.77685546875,42.724609375,-40.71044921875
5.593245983123779,1582664599,1,0.08458498120307922,0.546775221824646,0.9430044293403625,-227.96630859375,26.42822265625,-27.4658203125
5.593250036239624,1582664618,1,0.12657716870307922,0.635642409324646,1.1114615201950073,-293.51806640625,-7.87353515625,11.71875
5.618645906448364,1582664615,0,0.3664833903312683,0.44130653142929077,0.9813662767410278,-317.87109375,77.33154296875,198.30322265625
5.618652105331421,1582664634,0,0.4768349528312683,0.44692176580429077,1.1959658861160278,-304.62646484375,98.81591796875,243.83544921875
5.6367011070251465,1582664653,0,0.7431923747062683,0.44325965642929077,1.4430361986160278,-293.64013671875,139.58740234375,304.6875
5.65391206741333,1582664654,1,0.6077783107757568,0.490134596824646,1.5423697233200073,-334.47265625,-47.8515625,162.7197265625
5.6539812088012695,1582664673,1,1.0474755764007568,0.2061990648508072,1.9784048795700073,-300.29296875,-46.69189453125,153.99169921875
5.6734299659729,1582664672,0,0.8833290934562683,0.48183387517929077,1.3876162767410278,-301.08642578125,177.1240234375,395.8740234375
5.6734349727630615,1582664691,0,1.193876028060913,0.5348123908042908,1.6901065111160278,-325.13427734375,203.61328125,390.93017578125
5.685128927230835,1582664692,1,1.1536767482757568,0.478904128074646,2.2591664791107178,-191.40625,-39.1845703125,142.2119140625
5.69795298576355,1582664710,0,1.566434621810913,0.8456034064292908,1.8256045579910278,-218.8720703125,247.1923828125,344.23828125
5.720637083053589,1582664711,1,1.4886376857757568,0.280417799949646,2.1165883541107178,-94.23828125,-12.75634765625,116.39404296875
5.720643997192383,1582664730,1,1.6727197170257568,0.1668924242258072,1.5672720670700073,-48.40087890625,19.775390625,78.61328125
5.729273080825806,1582664746,0,1.389920949935913,0.8729471564292908,1.1832705736160278,-12.8173828125,102.05078125,228.33251953125
5.7441489696502686,1582664749,1,1.3260400295257568,-0.1343771070241928,1.5269888639450073,-61.58447265625,-4.57763671875,76.66015625
5.744155168533325,1582664768,1,1.4290673732757568,-0.255226731300354,1.4046744108200073,-3.96728515625,-48.88916015625,58.89892578125
5.768718004226685,1582664765,0,1.407743215560913,0.6048807501792908,1.2843447923660278,9.33837890625,36.56005859375,248.35205078125
5.768723011016846,1582664784,0,2.264676809310913,1.1568827629089355,1.3702822923660278,-3.0517578125,208.8623046875,124.69482421875
5.774066925048828,1582664787,1,0.5997216701507568,0.574851393699646,1.2547720670700073,88.134765625,49.74365234375,30.45654296875
5.789021968841553,1582664803,0,1.430936574935913,0.04750771075487137,1.6410342454910278,-24.10888671875,200.37841796875,37.04833984375
5.802248954772949,1582664806,1,1.2108056545257568,0.1644510179758072,1.5074576139450073,173.4619140625,-102.60009765625,-4.57763671875
5.802297115325928,1582664825,1,0.4603174030780792,0.09633578360080719,0.8614614605903625,154.9072265625,-16.2353515625,-59.14306640625
5.821797132492065,1582664822,0,0.8887001872062683,-0.13462120294570923,1.1705752611160278,72.8759765625,124.6337890625,10.80322265625
5.821800947189331,1582664841,0,0.6257607340812683,0.14907020330429077,1.1202822923660278,137.63427734375,23.49853515625,15.56396484375
5.8340020179748535,1582664844,1,0.4012353718280792,0.1390603929758072,0.8553579449653625,123.4130859375,-35.46142578125,-24.71923828125
5.84896993637085,1582664860,0,0.4731728434562683,0.29262489080429077,0.9996768236160278,168.64013671875,-22.76611328125,-45.95947265625
5.870952844619751,1582664863,1,0.4202783405780792,-0.03525601327419281,0.9168813824653625,120.60546875,-67.68798828125,-38.14697265625
5.870959043502808,1582664882,1,0.3951318562030792,-0.1934591382741928,1.0594595670700073,193.2373046875,-76.66015625,-69.76318359375
5.878781795501709,1582664879,0,0.5700966715812683,0.19032996892929077,0.9506045579910278,184.87548828125,-34.85107421875,-59.63134765625
5.878812074661255,1582664898,0,0.5034462809562683,0.19521278142929077,0.9134951829910278,209.04541015625,-55.419921875,-82.51953125
5.894205808639526,1582664918,1,0.5526025295257568,0.02358187735080719,0.45081695914268494,120.60546875,-44.0673828125,-17.333984375
5.918223142623901,1582664917,0,0.3235146403312683,0.16127723455429077,0.9596377611160278,198.1201171875,-85.99853515625,-28.50341796875
5.918227910995483,1582664936,0,0.1958290934562683,0.26918739080429077,0.6927920579910278,199.8291015625,-93.994140625,13.18359375
5.923237085342407,1582664937,1,0.14024904370307922,0.315085768699646,0.6405141949653625,142.02880859375,-75.927734375,-46.20361328125
5.939040899276733,1582664955,0,0.2077919840812683,0.20986121892929077,0.5839053392410278,153.74755859375,-137.39013671875,33.447265625
5.954905986785889,1582664956,1,-0.037241190671920776,0.10414828360080719,0.6795766949653625,125.79345703125,-75.8056640625,-23.37646484375
5.967369794845581,1582664975,1,0.19981935620307922,0.343650221824646,0.26404938101768494,152.03857421875,-34.7900390625,-51.1474609375
5.973163843154907,1582664974,0,0.3823525309562683,0.05995888262987137,0.6837588548660278,122.6806640625,-167.66357421875,2.74658203125
5.985077857971191,1582664994,1,0.09728029370307922,0.371238112449646,0.6048696637153625,179.3212890625,-54.13818359375,-81.4208984375
5.998873949050903,1582665010,0,-0.1879599690437317,0.02089638262987137,0.27628815174102783,55.5419921875,-104.8583984375,-42.29736328125
6.020351886749268,1582665013,1,0.021352559328079224,0.497458815574646,0.46766266226768494,158.69140625,-72.44873046875,-73.73046875
6.020355939865112,1582665032,1,-0.011118143796920776,0.519431471824646,0.25233063101768494,76.7822265625,-55.6640625,-37.29248046875
6.029168128967285,1582665029,0,0.026151366531848907,0.25136512517929077,0.33732330799102783,-73.66943359375,-85.3271484375,-16.41845703125
6.029224872589111,1582665048,0,-0.1955283284187317,0.27333778142929077,0.5836611986160278,-87.0361328125,-60.24169921875,-39.9169921875
6.0442118644714355,1582665051,1,-0.028940409421920776,0.475730299949646,0.49695953726768494,2.0751953125,-67.626953125,-41.259765625
6.068842887878418,1582665067,0,-0.04928808659315109,0.23598426580429077,0.41593658924102783,-101.9287109375,-73.73046875,-11.29150390625
6.068846940994263,1582665086,0,0.026151366531848907,0.34828895330429077,0.40519440174102783,-128.96728515625,-31.005859375,16.6015625
6.073842763900757,1582665070,1,-0.008920878171920776,0.342185378074646,0.49061188101768494,-16.357421875,-55.48095703125,-85.38818359375
6.073873996734619,1582665089,1,-0.059213846921920776,0.334861159324646,0.48865875601768494,3.41796875,-39.55078125,-92.8955078125
6.089238882064819,1582665105,0,-0.0031455084681510925,0.24013465642929077,0.5050479173660278,-141.11328125,37.29248046875,46.2646484375
6.103737115859985,1582665108,1,-0.036020487546920776,0.314353346824646,0.27894195914268494,1.64794921875,-34.72900390625,-99.7314453125
6.103805780410767,1582665127,1,-0.07215330004692078,0.294089674949646,0.34022125601768494,-24.47509765625,-15.0146484375,-85.14404296875
6.122252941131592,1582665124,0,-0.04342871159315109,0.31679481267929077,0.39542877674102783,-132.01904296875,66.10107421875,82.8857421875
6.1222569942474365,1582665143,0,0.022245116531848907,0.43276160955429077,0.42741119861602783,-135.7421875,74.27978515625,116.2109375
6.134030103683472,1582665146,1,-0.08729001879692078,0.372458815574646,0.37684234976768494,-54.13818359375,5.2490234375,-75.01220703125
6.149064064025879,1582665162,0,0.07229394465684891,0.45033973455429077,0.6019717454910278,-139.0380859375,55.96923828125,110.7177734375
6.170702934265137,1582665182,1,-0.21351072192192078,0.467185378074646,0.5308950543403625,-105.28564453125,32.28759765625,-46.2646484375
6.178995847702026,1582665181,0,0.028348632156848907,0.46352332830429077,0.6710635423660278,-136.04736328125,44.98291015625,93.017578125
6.1790430545806885,1582665200,0,0.07693261653184891,0.5797342658042908,0.7401553392410278,-139.34326171875,56.70166015625,87.46337890625
6.194137096405029,1582665201,1,-0.053598612546920776,0.572898268699646,0.7376821637153625,-118.65234375,38.2080078125,-19.53125
6.218809127807617,1582665219,0,0.2768837809562683,0.6351541876792908,0.6876651048660278,-171.20361328125,103.6376953125,108.45947265625
6.218816041946411,1582665238,0,0.3823525309562683,0.7882303595542908,0.8050967454910278,-217.4072265625,149.0478515625,106.4453125
6.225454092025757,1582665220,1,-0.10779783129692078,0.449607253074646,0.7799184918403625,-120.2392578125,26.30615234375,-36.865234375
6.225461006164551,1582665239,1,-0.06482908129692078,0.497458815574646,0.8036001324653625,-134.765625,35.21728515625,-10.68115234375
6.252062797546387,1582665258,1,-0.039682596921920776,0.456443190574646,0.9200552105903625,-131.591796875,33.38623046875,-14.6484375
6.253817081451416,1582665277,1,-0.057016581296920776,0.551169753074646,1.0548208951950073,-145.08056640625,37.41455078125,11.90185546875
6.272039175033569,1582665274,0,0.4182412028312683,0.6686014533042908,0.7960635423660278,-251.03759765625,172.66845703125,93.20068359375
6.272043943405151,1582665293,0,0.4978310465812683,0.6778787970542908,0.7587100267410278,-246.2158203125,154.60205078125,117.37060546875
6.2840681076049805,1582665296,1,0.042348653078079224,0.610495924949646,1.0855826139450073,-164.85595703125,27.52685546875,31.92138671875
6.298858880996704,1582665312,0,0.5722939372062683,0.6607889533042908,0.7223330736160278,-244.68994140625,136.71875,154.1748046875
6.319965839385986,1582665315,1,0.18858888745307922,0.518454909324646,1.2201040983200073,-195.4345703125,11.23046875,50.6591796875
6.319972991943359,1582665334,1,0.4068506062030792,0.491111159324646,1.2735708951950073,-215.087890625,0.8544921875,60.48583984375
6.329117774963379,1582665331,0,0.5735146403312683,0.7230448126792908,0.8297549486160278,-286.865234375,153.3203125,176.26953125
6.329193830490112,1582665350,0,0.6975380778312683,0.7013162970542908,0.8851748704910278,-341.796875,202.880859375,186.95068359375
6.343192100524902,1582665353,1,0.5145165920257568,0.693015456199646,1.4166373014450073,-212.0361328125,4.45556640625,86.85302734375
6.368319988250732,1582665369,0,0.6584755778312683,0.6021952033042908,0.5902529954910278,-329.40673828125,227.9052734375,239.19677734375
6.368324041366577,1582665388,0,0.7097451090812683,0.49233192205429077,1.2328311204910278,-326.2939453125,199.21875,264.46533203125
6.3738930225372314,1582665372,1,0.5577294826507568,0.612693190574646,1.6353873014450073,-189.208984375,6.40869140625,106.0791015625
6.3739330768585205,1582665391,1,0.7537744045257568,0.677390456199646,2.0257680416107178,-135.986328125,15.07568359375,142.27294921875
6.389024019241333,1582665407,0,1.426786184310913,0.9623026251792908,1.4435244798660278,-311.82861328125,268.00537109375,270.01953125
6.415409088134766,1582665410,1,0.9556787014007568,0.349997878074646,1.7066763639450073,-108.5205078125,-10.25390625,92.83447265625
6.421749830245972,1582665426,0,1.412626028060913,0.9632791876792908,1.3361026048660278,-281.55517578125,279.1748046875,170.71533203125
6.421756029129028,1582665445,0,1.552030324935913,0.9544901251792908,1.5126162767410278,-219.7265625,236.083984375,152.89306640625
6.433955907821655,1582665446,1,1.1605126857757568,0.634909987449646,1.5265005826950073,-31.3720703125,-29.96826171875,144.1650390625
6.449100971221924,1582665464,0,1.120877981185913,0.45375770330429077,1.6652041673660278,-65.97900390625,175.78125,190.24658203125
6.471461057662964,1582665465,1,1.0360009670257568,0.07143343985080719,1.0291861295700073,-123.47412109375,-56.57958984375,100.76904296875
6.471467018127441,1582665484,1,0.9847314357757568,-0.1514669507741928,1.2723501920700073,-117.5537109375,-41.6259765625,141.845703125
6.479053974151611,1582665483,0,1.642118215560913,0.8609842658042908,1.3092471361160278,-54.3212890625,123.779296875,151.9775390625
6.479116916656494,1582665502,0,1.260770559310913,0.40907996892929077,1.3661319017410278,-38.6962890625,162.65869140625,82.03125
6.494012117385864,1582665503,1,1.1751611232757568,-0.2225118726491928,1.4430044889450073,-1.52587890625,-64.94140625,80.38330078125
6.517906188964844,1582665538,0,0.9309365153312683,0.16762489080429077,1.2941104173660278,96.3134765625,110.16845703125,23.37646484375
6.5230021476745605,1582665522,1,0.6507470607757568,-0.592629075050354,1.7808951139450073,103.759765625,-77.2705078125,40.0390625
6.523007869720459,1582665541,1,0.6207177639007568,-0.1375509351491928,0.8065298199653625,168.27392578125,-59.75341796875,-12.39013671875
6.539252996444702,1582665557,0,0.7473427653312683,-0.08091025799512863,1.1063662767410278,106.75048828125,47.54638671875,27.587890625
6.553943872451782,1582665560,1,0.4864404499530792,-0.03818570077419281,0.9178579449653625,114.19677734375,-77.63671875,10.80322265625
6.553972005844116,1582665579,1,0.4166162312030792,-0.04990445077419281,0.9317739605903625,108.45947265625,-102.4169921875,6.4697265625
6.574172019958496,1582665576,0,0.6064736247062683,0.06972450762987137,1.0055361986160278,122.74169921875,75.68359375,3.662109375
6.574175834655762,1582665595,0,0.5090615153312683,0.02895302325487137,0.8651553392410278,122.49755859375,42.3583984375,-36.68212890625
6.5839338302612305,1582665598,1,0.5076806545257568,-0.11338101327419281,0.9159048199653625,196.8994140625,-117.49267578125,-44.3115234375
6.59917688369751,1582665614,0,0.3642861247062683,0.22524207830429077,0.9994326829910278,159.48486328125,26.55029296875,-78.7353515625
6.62081503868103,1582665617,1,-0.07044431567192078,0.567038893699646,0.10877592861652374,196.59423828125,-120.361328125,-17.2119140625
6.620820999145508,1582665636,1,0.5403954982757568,-0.03550015389919281,0.6920278668403625,123.10791015625,-112.9150390625,-47.66845703125
6.627349853515625,1582665633,0,0.09011621028184891,-0.006691507995128632,0.8341494798660278,186.4013671875,-37.41455078125,-79.52880859375
6.627384901046753,1582665652,0,0.3076454997062683,0.13979285955429077,0.6632510423660278,179.50439453125,-96.61865234375,-59.26513671875
6.644829988479614,1582665655,1,0.20812013745307922,0.1725076586008072,0.6065786480903625,143.00537109375,-89.7216796875,-70.73974609375
6.669277191162109,1582665671,0,0.1572548747062683,0.12905067205429077,0.7674990892410278,158.38623046875,-105.16357421875,-72.998046875
6.673927068710327,1582665674,1,0.14830568432807922,0.334861159324646,0.5455434918403625,138.0615234375,-78.125,-78.91845703125
6.688898086547852,1582665690,0,0.10525292903184891,0.17177528142929077,0.6749697923660278,121.4599609375,-94.482421875,-90.6982421875
6.688989162445068,1582665709,0,0.06374902278184891,0.21205848455429077,0.5018740892410278,72.32666015625,-60.9130859375,-76.23291015625
6.703786849975586,1582665710,1,0.19542482495307922,0.315574049949646,0.5164907574653625,131.04248046875,-85.51025390625,-97.96142578125
6.703869819641113,1582665729,1,0.11388185620307922,0.435447096824646,0.30872711539268494,134.6435546875,-78.91845703125,-94.54345703125
6.721958160400391,1582665728,0,-0.08151464909315109,0.19081825017929077,0.40665924549102783,26.67236328125,-56.396484375,-70.3125
6.721962928771973,1582665747,0,-0.12448339909315109,0.24721473455429077,0.38981354236602783,17.7001953125,-103.02734375,-67.68798828125
6.733958005905151,1582665748,1,0.015981465578079224,0.522361159324646,0.20569975674152374,104.4921875,-62.1337890625,-100.64697265625
6.74905800819397,1582665766,0,-0.10763769596815109,0.29018348455429077,0.47379791736602783,20.751953125,-143.5546875,-44.3115234375
6.771501064300537,1582665767,1,-0.012338846921920776,0.550925612449646,0.20228178799152374,65.36865234375,-52.1240234375,-94.3603515625
6.771506071090698,1582665786,1,0.053823262453079224,0.595115065574646,0.23646147549152374,16.7236328125,-47.66845703125,-92.95654296875
6.778910875320435,1582665802,0,-0.11960058659315109,0.43129676580429077,0.43131744861602783,-31.6162109375,-104.8583984375,4.0283203125
6.7940452098846436,1582665805,1,0.06407716870307922,0.503562331199646,0.29700836539268494,-21.240234375,-44.7998046875,-87.34130859375
6.818954944610596,1582665821,0,-0.2026084065437317,0.37294715642929077,0.40226471424102783,-89.7216796875,-57.31201171875,33.75244140625
6.825541019439697,1582665824,1,-0.017221659421920776,0.412742018699646,0.40101227164268494,-32.40966796875,-38.6962890625,-85.8154296875
6.825546026229858,1582665843,1,-0.031381815671920776,0.468650221824646,0.39661774039268494,-27.16064453125,-32.71484375,-74.5849609375
6.837260961532593,1582665840,0,-0.1601279377937317,0.31191200017929077,0.43620026111602783,-131.77490234375,-39.61181640625,71.47216796875
6.837372064590454,1582665859,0,-0.1794150471687317,0.40541785955429077,0.46085846424102783,-143.24951171875,-31.92138671875,91.36962890625
6.854013204574585,1582665862,1,-0.07264158129692078,0.521140456199646,0.33607086539268494,-7.080078125,-8.7890625,-69.39697265625
6.872171878814697,1582665878,0,-0.11056738346815109,0.41786903142929077,0.5658389329910278,-136.41357421875,-26.42822265625,107.36083984375
6.872178077697754,1582665897,0,0.028592772781848907,0.44863075017929077,0.7201358079910278,-123.1689453125,-8.60595703125,123.10791015625
6.884315013885498,1582665881,1,-0.20545408129692078,0.448630690574646,0.37879547476768494,-18.85986328125,25.57373046875,-58.10546875
6.884363889694214,1582665900,1,-0.20252439379692078,0.530661940574646,0.47059234976768494,-70.37353515625,16.9677734375,-40.8935546875
6.898823022842407,1582665916,0,0.05325097590684891,0.5897440314292908,0.6854678392410278,-136.1083984375,16.357421875,132.4462890625
6.920807123184204,1582665919,1,-0.16126462817192078,0.590476393699646,0.45545563101768494,-110.65673828125,12.02392578125,-31.06689453125
6.920811891555786,1582665938,1,-0.16541501879692078,0.474265456199646,0.6102407574653625,-119.81201171875,15.869140625,-47.42431640625
6.927428960800171,1582665935,0,0.10159081965684891,0.5545877814292908,0.7767764329910278,-153.6865234375,38.26904296875,147.52197265625
6.927459955215454,1582665954,0,0.1338173747062683,0.6510233283042908,0.7909365892410278,-175.35400390625,67.19970703125,158.75244140625
6.969121932983398,1582665973,0,0.1809365153312683,0.7362284064292908,0.8732119798660278,-185.24169921875,100.40283203125,158.87451171875
6.974175930023193,1582665974,1,-0.07361814379692078,0.476951003074646,0.8092153668403625,-110.107421875,22.39990234375,-40.52734375
6.9741809368133545,1582665993,1,-0.08753415942192078,0.572409987449646,0.9195669293403625,-130.43212890625,9.765625,-44.86083984375
6.989336013793945,1582665992,0,0.3137490153312683,0.6500467658042908,0.6776553392410278,-169.921875,105.65185546875,162.841796875
6.9893410205841064,1582666011,0,0.4199501872062683,0.7608866095542908,0.7574893236160278,-158.0810546875,72.93701171875,170.95947265625
7.003868103027344,1582666012,1,0.009389668703079224,0.565329909324646,1.0230826139450073,-158.5693359375,18.9208984375,-6.9580078125
7.021661043167114,1582666030,0,0.5522744059562683,0.45522254705429077,0.6791201829910278,-143.37158203125,93.26171875,182.43408203125
7.032419919967651,1582666031,1,0.017690449953079224,0.691550612449646,1.0897330045700073,-210.51025390625,-21.1181640625,40.283203125
7.032495975494385,1582666050,1,0.3038232624530792,0.512595534324646,1.1729849576950073,-213.134765625,-5.7373046875,30.029296875
7.0490758419036865,1582666066,0,0.5102822184562683,0.6698221564292908,0.5970889329910278,-182.80029296875,138.3056640625,256.40869140625
7.071011066436768,1582666069,1,0.2635400593280792,0.617331862449646,1.2957876920700073,-190.5517578125,1.708984375,37.353515625
7.0710179805755615,1582666088,1,0.3624170124530792,0.658347487449646,1.3634146451950073,-160.5224609375,4.21142578125,52.79541015625
7.079069137573242,1582666085,0,0.6594521403312683,0.48451942205429077,0.6652041673660278,-243.71337890625,201.904296875,287.29248046875
7.079102993011475,1582666104,0,0.8349892497062683,0.5279764533042908,0.7894717454910278,-302.42919921875,235.41259765625,313.78173828125
7.093959093093872,1582666107,1,0.4317529499530792,0.582663893699646,1.3480337858200073,-160.400390625,10.55908203125,82.1533203125
7.118206977844238,1582666123,0,1.055692434310913,0.40932410955429077,0.9877139329910278,-300.59814453125,249.8779296875,305.23681640625
7.124768972396851,1582666126,1,0.6527001857757568,0.505027174949646,1.3602408170700073,-179.0771484375,-9.6435546875,94.3603515625
7.124773979187012,1582666145,1,0.7598779201507568,0.557517409324646,1.4444693326950073,-198.05908203125,-30.09033203125,134.521484375
7.137462854385376,1582666142,0,1.092313528060913,0.29750770330429077,1.0319033861160278,-254.7607421875,303.28369140625,292.3583984375
7.137535810470581,1582666161,0,1.226835012435913,0.35976356267929077,1.1320010423660278,-225.64697265625,270.5078125,300.6591796875
7.154023170471191,1582666164,1,0.7733056545257568,-0.10288296639919281,1.4376333951950073,-182.67822265625,-38.26904296875,132.38525390625
7.1733238697052,1582666180,0,1.817411184310913,1.1295390129089355,1.1395694017410278,-196.59423828125,266.9677734375,218.81103515625
7.183899164199829,1582666183,1,0.9993798732757568,0.258445143699646,1.6016958951950073,-93.017578125,50.59814453125,87.58544921875
7.183928966522217,1582666202,1,1.2410790920257568,-0.253761887550354,1.0875357389450073,-106.01806640625,35.2783203125,68.17626953125
7.199016809463501,1582666199,0,1.394071340560913,0.5240702033042908,1.0704776048660278,-110.65673828125,136.77978515625,144.34814453125
7.199028968811035,1582666218,0,1.459256887435913,0.33730262517929077,1.0370303392410278,-45.5322265625,121.27685546875,153.1982421875
7.220661878585815,1582666238,1,1.1285302639007568,-0.1868673413991928,1.7965201139450073,18.98193359375,-33.50830078125,78.61328125
7.2289650440216064,1582666237,0,1.535428762435913,0.5084452033042908,1.1217471361160278,9.70458984375,126.8310546875,135.7421875
7.229043960571289,1582666256,0,1.394315481185913,0.37416785955429077,1.2220889329910278,45.22705078125,93.26171875,106.87255859375
7.244627952575684,1582666257,1,0.7620751857757568,-0.1441427320241928,1.7462271451950073,116.76025390625,-18.37158203125,31.25
7.268791913986206,1582666275,0,1.267606496810913,0.34267371892929077,1.3133975267410278,97.2900390625,57.861328125,42.66357421875
7.273928165435791,1582666276,1,0.6224267482757568,0.04042758047580719,1.5047720670700073,187.68310546875,-14.6484375,0.42724609375
7.273959159851074,1582666295,1,0.6185204982757568,0.2105935961008072,1.2462271451950073,170.7763671875,-26.9775390625,8.4228515625
7.289096832275391,1582666294,0,1.151395559310913,0.27944129705429077,1.1632510423660278,120.60546875,16.41845703125,-33.26416015625
7.304760932922363,1582666314,1,0.4996240437030792,0.1976541429758072,1.0594595670700073,164.85595703125,-38.75732421875,10.31494140625
7.321183919906616,1582666330,0,0.8757607340812683,0.03896278887987137,0.9466983079910278,128.7841796875,0.1220703125,-75.1953125
7.33381199836731,1582666333,1,0.4278466999530792,0.05947054922580719,1.0853384733200073,177.1240234375,-70.49560546875,-5.31005859375
7.333838939666748,1582666352,1,0.3150537312030792,-0.06064663827419281,1.4188345670700073,242.7978515625,-111.81640625,-38.6962890625
7.34964394569397,1582666349,0,0.9087197184562683,0.36049598455429077,1.1263858079910278,114.19677734375,8.544921875,-143.310546875
7.3496479988098145,1582666368,0,0.6963173747062683,0.25746864080429077,1.0333682298660278,138.61083984375,-2.3193359375,-171.93603515625
7.372166156768799,1582666371,1,-0.023813456296920776,0.519187331199646,0.46595367789268494,220.15380859375,-96.98486328125,-8.36181640625
7.379006862640381,1582666387,0,0.6325966715812683,-0.010597757995128632,0.9474307298660278,175.72021484375,-82.09228515625,-150.08544921875
7.379022121429443,1582666406,0,0.5464150309562683,0.19008582830429077,0.7059756517410278,144.83642578125,-135.7421875,-151.06201171875
7.393957138061523,1582666390,1,0.4102685749530792,0.08949984610080719,0.8905141949653625,195.25146484375,-86.73095703125,-30.82275390625
7.394037961959839,1582666409,1,0.10313966870307922,0.1646951586008072,0.8983266949653625,222.10693359375,-90.6982421875,-45.59326171875
7.418251991271973,1582666425,0,0.3740517497062683,0.25551551580429077,0.6227236986160278,92.95654296875,-137.5732421875,-149.23095703125
7.4249608516693115,1582666428,1,0.24303224682807922,0.306296706199646,0.5726431012153625,229.67529296875,-91.064453125,-40.52734375
7.424966096878052,1582666447,1,0.14024904370307922,0.349021315574646,0.49549469351768494,227.5390625,-96.5576171875,-64.02587890625
7.438838958740234,1582666444,0,0.2427040934562683,0.17470496892929077,0.5165225267410278,66.5283203125,-117.00439453125,-145.5078125
7.438914060592651,1582666463,0,0.2192665934562683,0.12197060137987137,0.36173737049102783,40.95458984375,-115.234375,-123.046875
7.4539289474487305,1582666466,1,0.14342287182807922,0.316550612449646,0.34217438101768494,214.84375,-98.08349609375,-70.25146484375
7.472445964813232,1582666482,0,0.020780272781848907,0.19423621892929077,0.32951080799102783,22.94921875,-148.49853515625,-110.107421875
7.4839489459991455,1582666502,1,0.0027978718280792236,0.450583815574646,0.03919585421681404,135.498046875,-93.26171875,-78.55224609375
7.498907089233398,1582666501,0,-0.03512793034315109,0.28066200017929077,0.46256744861602783,27.52685546875,-162.59765625,-92.8955078125
7.498970031738281,1582666520,0,-0.11740332096815109,0.24306434392929077,0.37858307361602783,2.86865234375,-165.8935546875,-66.5283203125
7.521017074584961,1582666521,1,0.004750996828079224,0.482566237449646,0.10828764736652374,90.14892578125,-82.51953125,-84.716796875
7.52899694442749,1582666539,0,-0.2245810627937317,0.25551551580429077,0.27262604236602783,-47.7294921875,-146.30126953125,-19.95849609375
7.52904200553894,1582666558,0,-0.2446005940437317,0.24452918767929077,0.30802643299102783,-103.271484375,-110.16845703125,23.8037109375
7.542306900024414,1582666540,1,0.011586934328079224,0.406394362449646,0.10535795986652374,74.89013671875,-74.0966796875,-92.59033203125
7.5423338413238525,1582666559,1,-0.054086893796920776,0.520408034324646,0.14002592861652374,70.1904296875,-59.6923828125,-97.71728515625
7.573046922683716,1582666578,1,-0.09559080004692078,0.592185378074646,0.14027006924152374,40.1611328125,-54.0771484375,-88.9892578125
7.5738489627838135,1582666597,1,-0.14173337817192078,0.576072096824646,0.12415678799152374,-4.5166015625,-51.20849609375,-82.275390625
7.588842868804932,1582666594,0,-0.1752646565437317,0.42031043767929077,0.40202057361602783,-176.6357421875,-60.9130859375,72.32666015625
7.588855028152466,1582666613,0,-0.1303427815437317,0.45156043767929077,0.5792666673660278,-176.57470703125,-35.82763671875,74.21875
7.60400390625,1582666616,1,-0.22645017504692078,0.610251784324646,0.11610014736652374,-45.0439453125,-43.27392578125,-88.623046875
7.621381044387817,1582666632,0,-0.12423925846815109,0.48476356267929077,0.5514346361160278,-157.5927734375,-2.50244140625,82.3974609375
7.634207010269165,1582666635,1,-0.2660009562969208,0.690818190574646,0.14832670986652374,-60.4248046875,-36.9873046875,-91.36962890625
7.63428807258606,1582666654,1,-0.2830908000469208,0.655661940574646,0.15906889736652374,-68.29833984375,-33.26416015625,-85.63232421875
7.647413015365601,1582666651,0,-0.1305869221687317,0.48012489080429077,0.5895205736160278,-152.099609375,20.6298828125,102.05078125
7.647439002990723,1582666670,0,-0.1296103596687317,0.48866981267929077,0.6058779954910278,-163.14697265625,35.5224609375,134.94873046875
7.6716508865356445,1582666673,1,-0.2830908000469208,0.664939284324646,0.16785795986652374,-71.4111328125,-31.06689453125,-83.19091796875
7.6790430545806885,1582666689,0,-0.08297949284315109,0.5018534064292908,0.6290713548660278,-169.189453125,42.236328125,156.43310546875
7.679095983505249,1582666708,0,-0.04513769596815109,0.5125955939292908,0.6820498704910278,-165.83251953125,52.91748046875,175.72021484375
7.693975925445557,1582666692,1,-0.3155615031719208,0.601951003074646,0.19373686611652374,-74.0966796875,-19.59228515625,-75.3173828125
7.694040060043335,1582666711,1,-0.3526708781719208,0.605124831199646,0.30775055289268494,-91.00341796875,-7.26318359375,-68.4814453125
7.719872951507568,1582666727,0,0.09695214778184891,0.5140604376792908,0.6925479173660278,-152.2216796875,71.71630859375,201.7822265625
7.724441051483154,1582666730,1,-0.3570654094219208,0.623191237449646,0.44373688101768494,-123.779296875,3.84521484375,-57.2509765625
7.738929986953735,1582666746,0,0.2807900309562683,0.5609354376792908,0.7108584642410278,-157.16552734375,94.3603515625,228.82080078125
7.739005088806152,1582666765,0,0.3972451090812683,0.5584940314292908,0.7389346361160278,-172.54638671875,112.85400390625,248.53515625
7.7522969245910645,1582666766,1,-0.3243505656719208,0.586814284324646,0.5887563824653625,-198.1201171875,-27.03857421875,-35.94970703125
7.772759914398193,1582666784,0,0.4140908122062683,0.5819315314292908,0.7794619798660278,-179.931640625,132.50732421875,261.16943359375
7.783746957778931,1582666785,1,-0.2977392375469208,0.612204909324646,0.6436880230903625,-217.7734375,-25.146484375,-14.22119140625
7.783815145492554,1582666804,1,-0.14051267504692078,0.557761549949646,0.7408559918403625,-233.45947265625,-18.1884765625,6.04248046875
7.798993110656738,1582666803,0,0.4616982340812683,0.5162577033042908,0.6549502611160278,-166.44287109375,136.29150390625,274.47509765625
7.799080848693848,1582666822,0,0.5288369059562683,0.5594705939292908,0.5831729173660278,-159.5458984375,132.38525390625,291.1376953125
7.821847915649414,1582666823,1,-0.037973612546920776,0.517966628074646,0.9976919293403625,-249.93896484375,-18.798828125,5.859375
7.829051971435547,1582666858,0,0.8962685465812683,0.5389627814292908,0.8234072923660278,-186.46240234375,203.61328125,327.63671875
7.844893217086792,1582666842,1,-0.024057596921920776,0.630271315574646,1.0372427701950073,-273.74267578125,-31.3720703125,26.79443359375
7.84489893913269,1582666861,1,0.00011232495307922363,0.524314284324646,1.2100943326950073,-312.80517578125,-56.57958984375,37.7197265625
7.867074012756348,1582666877,0,1.087674856185913,0.5963358283042908,0.7997256517410278,-202.45361328125,250.91552734375,328.0029296875
7.873948097229004,1582666880,1,0.19493654370307922,0.544577956199646,1.4273794889450073,-330.2001953125,-78.67431640625,111.75537109375
7.87398099899292,1582666899,1,0.4381006062030792,0.426413893699646,1.5726431608200073,-305.23681640625,-66.95556640625,145.99609375
7.888952970504761,1582666896,0,1.296903371810913,0.5958475470542908,0.5470401048660278,-212.82958984375,260.68115234375,326.23291015625
7.889024019241333,1582666915,0,1.567411184310913,0.8143534064292908,1.0174990892410278,-160.0341796875,216.61376953125,283.02001953125
7.9040000438690186,1582666918,1,0.8384912014007568,0.370017409324646,1.8424185514450073,-242.98095703125,-34.72900390625,183.9599609375
7.922043085098267,1582666934,0,1.714383840560913,0.7020487189292908,1.0065127611160278,-75.62255859375,173.52294921875,221.13037109375
7.933902978897095,1582666937,1,0.9974267482757568,0.2286600023508072,2.0294301509857178,-167.1142578125,0.732421875,149.35302734375
7.933941841125488,1582666956,1,0.9539697170257568,0.328757643699646,1.8824576139450073,-105.3466796875,27.77099609375,121.826171875
7.949377059936523,1582666953,0,1.588407278060913,0.5011209845542908,0.8226748704910278,-39.4287109375,128.96728515625,195.73974609375
7.949383020401001,1582666972,0,1.712918996810913,0.7884745001792908,0.6896182298660278,-29.78515625,141.845703125,191.58935546875
7.9705650806427,1582666975,1,0.9854638576507568,0.358298659324646,1.9552115201950073,-49.49951171875,18.798828125,139.16015625
7.977266073226929,1582666991,0,1.855008840560913,0.6654276251792908,0.7814151048660278,-18.06640625,184.50927734375,142.27294921875
7.994009971618652,1582666994,1,1.1685693264007568,0.268699049949646,1.7950552701950073,7.87353515625,-5.615234375,119.20166015625
8.017437219619751,1582667010,0,1.621610403060913,0.35634559392929077,0.7462588548660278,11.65771484375,167.29736328125,118.22509765625
8.01744294166565,1582667029,0,1.445585012435913,0.26869910955429077,0.8265811204910278,33.8134765625,140.31982421875,77.08740234375
8.023993015289307,1582667030,1,0.5677392482757568,-0.05283413827419281,1.7589224576950073,113.6474609375,-3.23486328125,75.1953125
8.023997783660889,1582667049,1,0.6883447170257568,0.12367953360080719,1.6578482389450073,201.904296875,-22.88818359375,59.50927734375
8.038793802261353,1582667048,0,1.531278371810913,0.22719520330429077,1.0214053392410278,105.224609375,87.40234375,-34.24072265625
8.038810968399048,1582667067,0,1.244657278060913,0.23818153142929077,0.7738467454910278,135.25390625,25.81787109375,-46.5087890625
8.053137063980103,1582667068,1,0.4822900593280792,0.2149881273508072,1.0557974576950073,199.64599609375,-26.18408203125,33.3251953125
8.072356939315796,1582667086,0,1.021756887435913,0.18837684392929077,0.7667666673660278,153.25927734375,11.53564453125,-42.48046875
8.083811044692993,1582667087,1,0.3836572468280792,0.346335768699646,0.8875845074653625,155.70068359375,-55.48095703125,49.1943359375
8.083891868591309,1582667106,1,0.2535302937030792,0.339255690574646,0.8299673199653625,161.43798828125,-51.6357421875,54.931640625
8.09877896308899,1582667122,0,0.8637978434562683,0.29848426580429077,0.8458682298660278,181.09130859375,-29.541015625,-120.1171875
8.12043309211731,1582667125,1,0.4984033405780792,-0.09824429452419281,1.6622427701950073,269.8974609375,-72.32666015625,20.56884765625
8.12918496131897,1582667141,0,0.8357216715812683,0.24428504705429077,0.5785342454910278,179.3212890625,-83.31298828125,-146.66748046875
8.143967866897583,1582667144,1,0.08238771557807922,0.366111159324646,0.7301138043403625,304.26025390625,-86.669921875,15.7470703125
8.14401912689209,1582667163,1,0.4307763874530792,0.2306131273508072,0.9310415387153625,255.79833984375,-47.79052734375,51.1474609375
8.168022871017456,1582667160,0,0.6118447184562683,0.12465614825487137,0.8124209642410278,177.490234375,-137.939453125,-142.02880859375
8.16802716255188,1582667179,0,0.5339638590812683,0.04970497637987137,0.38273346424102783,177.1240234375,-186.70654296875,-102.35595703125
8.173923969268799,1582667182,1,0.2613427937030792,0.2262185961008072,1.0665396451950073,272.4609375,-65.185546875,20.44677734375
8.1890230178833,1582667198,0,0.7151162028312683,0.33681434392929077,0.07462798058986664,100.4638671875,-207.33642578125,-129.45556640625
8.189028024673462,1582667217,0,0.2097451090812683,0.17006629705429077,0.31925690174102783,39.55078125,-174.86572265625,-169.43359375
8.22188687324524,1582667236,0,0.2893349528312683,0.16835731267929077,0.08390532433986664,-4.8828125,-152.28271484375,-120.66650390625
8.233179092407227,1582667201,1,0.3131006062030792,0.361960768699646,0.7547720074653625,223.388671875,-106.0791015625,8.056640625
8.233286142349243,1582667220,1,0.2596338093280792,0.310935378074646,0.6888540387153625,216.30859375,-150.2685546875,-34.423828125
8.233296155929565,1582667239,1,0.2542627155780792,0.410544753074646,0.27576813101768494,210.9375,-118.46923828125,-53.22265625
8.23500108718872,1582667258,1,0.11363771557807922,0.427878737449646,0.27332672476768494,182.6171875,-128.173828125,-57.373046875
8.248899936676025,1582667255,0,0.1806923747062683,0.26161903142929077,0.14787016808986664,-52.6123046875,-127.62451171875,-111.26708984375
8.24891209602356,1582667274,0,0.05422753840684891,0.16591590642929077,0.14225493371486664,-101.4404296875,-104.43115234375,-98.44970703125
8.276803016662598,1582667293,0,-0.11374121159315109,0.16664832830429077,0.19767485558986664,-138.36669921875,-117.1875,-72.44873046875
8.291275978088379,1582667294,1,0.10509279370307922,0.347556471824646,-0.02037445828318596,118.7744140625,-135.1318359375,-80.62744140625
8.292529106140137,1582667313,1,0.016225606203079224,0.293357253074646,-0.11363618075847626,92.4072265625,-127.8076171875,-109.19189453125
8.31714916229248,1582667312,0,-0.1564658284187317,0.15004676580429077,0.26823151111602783,-148.74267578125,-114.44091796875,-45.0439453125
8.317156076431274,1582667331,0,-0.2873252034187317,0.19521278142929077,0.32829010486602783,-150.57373046875,-95.458984375,-16.66259765625
8.323869943618774,1582667332,1,-0.08997556567192078,0.281638503074646,-0.11754243075847626,76.59912109375,-110.04638671875,-124.3896484375
8.338785886764526,1582667350,0,-0.3173545002937317,0.21034950017929077,0.31412994861602783,-153.50341796875,-68.05419921875,27.7099609375
8.35499095916748,1582667351,1,-0.16858884692192078,0.311423659324646,-0.16637055575847626,65.91796875,-86.3037109375,-132.9345703125
8.354995965957642,1582667370,1,-0.18836423754692078,0.372214674949646,-0.18785493075847626,62.07275390625,-61.21826171875,-130.2490234375
8.374638080596924,1582667386,0,-0.4316123127937317,0.29824012517929077,0.35709869861602783,-143.73779296875,-40.1611328125,110.2294921875
8.383954048156738,1582667389,1,-0.2584325969219208,0.401267409324646,-0.20445649325847626,50.47607421875,-44.189453125,-123.35205078125
8.38402509689331,1582667408,1,-0.2935888469219208,0.373191237449646,-0.21617524325847626,37.17041015625,-33.26416015625,-126.64794921875
8.3991060256958,1582667405,0,-0.4203818440437317,0.28823035955429077,0.43815338611602783,-134.3994140625,-33.8134765625,142.08984375
8.399152040481567,1582667424,0,-0.4413779377937317,0.25991004705429077,0.45841705799102783,-136.29150390625,-23.0712890625,168.02978515625
8.422773838043213,1582667427,1,-0.3021337687969208,0.366355299949646,-0.22447602450847626,16.845703125,-24.2919921875,-139.16015625
8.428869009017944,1582667443,0,-0.3849814534187317,0.24379676580429077,0.49430572986602783,-151.2451171875,-13.36669921875,198.42529296875
8.443910121917725,1582667446,1,-0.3355810344219208,0.351462721824646,-0.23253266513347626,1.89208984375,-7.568359375,-159.60693359375
8.443969011306763,1582667465,1,-0.4425146281719208,0.370017409324646,-0.15123383700847626,-2.01416015625,9.82666015625,-177.55126953125
8.468920946121216,1582667462,0,-0.2682822346687317,0.32216590642929077,0.5861026048660278,-175.9033203125,18.5546875,239.2578125
8.468925952911377,1582667481,0,-0.11178808659315109,0.36366981267929077,0.6461611986160278,-197.57080078125,65.73486328125,261.77978515625
8.473951816558838,1582667484,1,-0.5157568454742432,0.367331862449646,-0.17735688388347626,1.5869140625,23.3154296875,-185.11962890625
8.489044904708862,1582667500,0,-0.03439550846815109,0.34560340642929077,0.6505557298660278,-209.716796875,96.0693359375,271.240234375
8.504183053970337,1582667503,1,-0.6336767673492432,0.374411940574646,-0.13634125888347626,1.03759765625,46.69189453125,-189.88037109375
8.515761137008667,1582667522,1,-0.6615087985992432,0.266257643699646,-0.07432954013347626,1.953125,56.45751953125,-216.49169921875
8.521687030792236,1582667519,0,0.09548730403184891,0.26674598455429077,0.6090518236160278,-198.42529296875,115.41748046875,292.29736328125
8.521692037582397,1582667538,0,0.3142372965812683,0.19252723455429077,0.6246768236160278,-192.626953125,115.966796875,331.48193359375
8.533952951431274,1582667558,1,-0.6488134860992432,-0.10532437264919281,0.12513335049152374,47.30224609375,70.73974609375,-340.63720703125
8.548679113388062,1582667557,0,0.6001259684562683,0.23549598455429077,0.8016787767410278,-207.94677734375,142.15087890625,380.126953125
8.548773050308228,1582667576,0,0.6845986247062683,0.14345496892929077,0.9310733079910278,-215.63720703125,161.9873046875,409.3017578125
8.57219910621643,1582667577,1,-0.8465673923492432,-0.1338888257741928,0.22254545986652374,62.80517578125,78.0029296875,-392.822265625
8.577250003814697,1582667595,0,0.8288857340812683,-0.03965049237012863,0.9635440111160278,-180.72509765625,147.0947265625,450.86669921875
8.593209981918335,1582667596,1,-0.9234716892242432,-0.2371603101491928,0.34119781851768494,63.04931640625,81.60400390625,-413.57421875
8.59324598312378,1582667615,1,-0.9784033298492432,-0.346779465675354,0.5506704449653625,65.49072265625,77.45361328125,-439.02587890625
8.6183180809021,1582667614,0,1.049588918685913,-0.25229698419570923,1.1132022142410278,-124.93896484375,135.7421875,509.82666015625
8.625318050384521,1582667634,1,-0.9928076267242432,-0.533302903175354,0.8265493512153625,72.44873046875,45.95947265625,-466.24755859375
8.638763904571533,1582667650,0,1.207792043685913,-0.9471212029457092,1.3151065111160278,-86.3037109375,217.7734375,628.60107421875
8.653789043426514,1582667653,1,-1.7464697360992432,-0.1976095288991928,0.7784536480903625,79.9560546875,30.70068359375,-417.236328125
8.653861045837402,1582667672,1,-1.1510107517242432,-0.874611496925354,0.7506216168403625,37.4755859375,1.5869140625,-423.64501953125
8.671792030334473,1582667669,0,1.992704153060913,-0.9163594841957092,1.3976260423660278,-8.9111328125,251.77001953125,677.6123046875
8.671795845031738,1582667688,0,1.996122121810913,-0.7132344841957092,1.1551944017410278,102.72216796875,213.92822265625,719.8486328125
8.68532395362854,1582667691,1,-2.067270517349243,-0.731056809425354,1.0750845670700073,106.14013671875,-22.27783203125,-473.93798828125
8.698945045471191,1582667707,0,3.047879934310913,0.11440224200487137,0.5841494798660278,95.03173828125,66.7724609375,457.58056640625
8.69896912574768,1582667726,0,2.559842824935913,-0.8543477654457092,0.7150088548660278,143.85986328125,-71.6552734375,336.73095703125
8.720266819000244,1582667710,1,-0.7794287204742432,-0.678810715675354,0.9752309918403625,159.36279296875,-68.66455078125,-653.076171875
8.720271110534668,1582667729,1,-2.150766611099243,-0.616066575050354,1.5140494108200073,242.00439453125,-107.36083984375,-675.537109375
8.729106187820435,1582667745,0,2.414090871810913,-0.8252950310707092,0.6197940111160278,182.6171875,-119.68994140625,357.177734375
8.743838787078857,1582667748,1,-1.9051611423492432,-0.703224778175354,1.5687369108200073,230.89599609375,-193.2373046875,-525.87890625
8.743911027908325,1582667767,1,-2.014047861099243,-1.044045090675354,1.8353384733200073,212.0361328125,-265.869140625,-482.97119140625
8.768370151519775,1582667764,0,2.680936574935913,-0.42710167169570923,0.7416201829910278,199.951171875,14.16015625,271.6064453125
8.768374919891357,1582667783,0,2.609159231185913,0.010886617004871368,0.8922549486160278,259.521484375,158.69140625,75.1953125
8.773578882217407,1582667786,1,-1.9505712985992432,-1.476662278175354,1.7799185514450073,299.072265625,-264.95361328125,-513.7939453125
8.789260864257812,1582667802,0,2.757108449935913,-0.9351583123207092,1.0731631517410278,328.4912109375,145.751953125,7.9345703125
8.814888954162598,1582667822,1,-2.439096689224243,-1.684425950050354,1.8453482389450073,523.74267578125,-175.78125,-481.201171875
8.821177959442139,1582667821,0,3.156034231185913,-1.2986836433410645,0.8929873704910278,454.04052734375,89.599609375,-21.1181640625
8.821183919906616,1582667840,0,2.878202199935913,-0.7669454216957092,0.5909854173660278,215.576171875,114.501953125,-99.91455078125
8.833920955657959,1582667841,1,-2.628549814224243,-2.0164570808410645,1.8958853483200073,507.50732421875,-228.1494140625,-283.0810546875
8.848858118057251,1582667859,0,2.806424856185913,-0.8228536248207092,1.0450869798660278,177.490234375,5.7373046875,-197.08251953125
8.870815992355347,1582667860,1,-2.013803720474243,-3.1775898933410645,2.0987660884857178,443.05419921875,-345.458984375,-255.67626953125
8.870821952819824,1582667879,1,-1.9735205173492432,-2.2586445808410645,1.7362173795700073,491.69921875,-349.7314453125,-245.4833984375
8.877194881439209,1582667878,0,1.473417043685913,-1.5264668464660645,1.7599307298660278,257.38525390625,-9.6435546875,-215.63720703125
8.892339944839478,1582667898,1,-1.8250830173492432,-1.974953293800354,1.4378775358200073,444.03076171875,-311.58447265625,-208.3740234375
8.892413854598999,1582667917,1,-0.7528173923492432,-3.6067891120910645,0.9320181012153625,299.072265625,-221.6796875,-273.98681640625
8.91789197921753,1582667914,0,0.5527626872062683,-1.0730977058410645,0.43790924549102783,270.20263671875,-116.2109375,-120.78857421875
8.917896032333374,1582667933,0,1.068143606185913,-0.5811544060707092,0.34757721424102783,211.7919921875,-252.8076171875,-127.8076171875
8.925549983978271,1582667936,1,-1.2660009860992432,-0.909767746925354,1.0455435514450073,409.36279296875,-157.53173828125,-221.74072265625
8.938657999038696,1582667952,0,1.140897512435913,-0.6214376091957092,1.0582705736160278,169.43359375,-251.28173828125,-203.125
8.953645944595337,1582667955,1,-1.6551611423492432,-1.414162278175354,0.6341665387153625,233.0322265625,-164.6728515625,-60.36376953125
8.972631931304932,1582667971,0,1.185575246810913,-0.5674825310707092,1.1691104173660278,154.541015625,-162.841796875,-279.541015625
8.972637176513672,1582667990,0,0.9746376872062683,-0.6326680779457092,0.6639834642410278,63.3544921875,-100.28076171875,-245.9716796875
8.9823899269104,1582667974,1,-0.9893896579742432,-0.823341965675354,1.4718130826950073,338.19580078125,-161.92626953125,181.82373046875
8.982430934906006,1582667993,1,0.6976220607757568,-1.749123215675354,1.2769888639450073,357.5439453125,-253.11279296875,153.6865234375
8.997299909591675,1582668009,0,0.7068154215812683,-0.49228721857070923,0.5787783861160278,17.27294921875,-126.5869140625,-217.95654296875
9.019718170166016,1582668012,1,0.3047998249530792,-0.281349778175354,0.7003286480903625,366.2109375,-262.63427734375,-30.21240234375
9.019729137420654,1582668031,1,-1.1500341892242432,0.882712721824646,0.17103178799152374,348.20556640625,-145.32470703125,214.9658203125
9.028857946395874,1582668028,0,0.5071083903312683,-0.27060753107070923,0.6652041673660278,57.7392578125,-214.66064453125,-201.72119140625
9.029023885726929,1582668047,0,0.5283486247062683,-0.21884971857070923,0.9271670579910278,82.51953125,-272.52197265625,-284.423828125
9.043874979019165,1582668050,1,-0.6278173923492432,-0.531105637550354,1.1182974576950073,356.5673828125,-111.4501953125,373.4130859375
9.067530870437622,1582668066,0,0.4797646403312683,-0.48642784357070923,1.2611514329910278,7.9345703125,-194.4580078125,-342.7734375
9.067536115646362,1582668085,0,0.1894814372062683,-0.44980674982070923,1.0104190111160278,-66.95556640625,-75.927734375,-319.091796875
9.074073076248169,1582668087,1,-0.2562353312969208,-0.738136887550354,0.37293609976768494,298.583984375,-188.3544921875,262.5732421875
9.087460994720459,1582668104,0,0.1699501872062683,-0.36631065607070923,0.5238467454910278,-87.158203125,-98.5107421875,-312.6220703125
