sync_time,timestamp_ms,device_id,ax,ay,az,gx,gy,gz
0.019929170608520508,-1270588525,1,0.7974995374679565,-0.3996678590774536,0.5861785411834717,6.04248046875,20.1416015625,-16.4794921875
0.03942298889160156,-1270588510,0,0.6229625940322876,0.011376529932022095,0.8699227571487427,10.3759765625,11.41357421875,-20.69091796875
0.040380239486694336,-1270588491,0,0.6534801721572876,0.054833561182022095,0.8613778352737427,12.939453125,17.15087890625,-25.08544921875
0.0649561882019043,-1270588472,0,0.6605602502822876,0.0885249674320221,0.9089852571487427,17.39501953125,27.16064453125,-31.43310546875
0.08777117729187012,-1270588506,1,0.8492573499679565,-0.3747655153274536,0.5769011974334717,6.53076171875,19.59228515625,-19.04296875
0.08777904510498047,-1270588487,1,0.8975971937179565,-0.3535252809524536,0.6108367443084717,10.8642578125,32.2265625,-23.74267578125
0.0877840518951416,-1270588468,1,0.9076069593429565,-0.3820897340774536,0.6433074474334717,17.02880859375,37.65869140625,-26.2451171875
0.09586310386657715,-1270588453,0,0.6844860315322876,0.0787593424320221,0.9634286165237427,24.59716796875,31.31103515625,-36.56005859375
0.09599113464355469,-1270588434,0,0.6786266565322876,0.1341792643070221,0.9819833040237427,33.3251953125,36.92626953125,-35.21728515625
0.11063504219055176,-1270588432,1,0.9034565687179565,-0.3606053590774536,0.7028777599334717,27.9541015625,44.49462890625,-32.3486328125
0.12577009201049805,-1270588415,0,0.6922985315322876,0.1510249674320221,1.0068856477737427,39.1845703125,30.2734375,-34.24072265625
0.14488911628723145,-1270588413,1,0.8985737562179565,-0.3510838747024536,0.6994597911834717,33.935546875,39.4287109375,-32.89794921875
0.1448960304260254,-1270588394,1,0.9093159437179565,-0.3315526247024536,0.6767547130584717,41.259765625,30.33447265625,-30.82275390625
0.15588998794555664,-1270588396,0,0.7018200159072876,0.1629878580570221,0.9900399446487427,44.12841796875,25.634765625,-29.72412109375
0.15598225593566895,-1270588377,0,0.6932750940322876,0.1520015299320221,0.9570809602737427,50.23193359375,23.8037109375,-21.6064453125
0.170363187789917,-1270588375,1,0.9010151624679565,-0.3176366090774536,0.6589324474334717,46.56982421875,23.3154296875,-26.91650390625
0.19260907173156738,-1270588358,0,0.6901012659072876,0.1576167643070221,0.9268075227737427,52.8564453125,26.42822265625,-15.19775390625
0.19261813163757324,-1270588339,0,0.6395641565322876,0.1412593424320221,0.9124032258987427,59.326171875,30.21240234375,-11.16943359375
0.2008190155029297,-1270588356,1,0.8941792249679565,-0.3054295778274536,0.6599090099334717,54.62646484375,21.78955078125,-21.728515625
0.2009260654449463,-1270588337,1,0.8953999280929565,-0.2939549684524536,0.6538054943084717,61.03515625,26.42822265625,-19.6533203125
0.21584725379943848,-1270588320,0,0.6195446252822876,0.1937495768070221,0.8718758821487427,65.97900390625,37.2314453125,-9.09423828125
0.24190711975097656,-1270588318,1,0.8717182874679565,-0.2790623903274536,0.6608855724334717,69.9462890625,32.71484375,-18.37158203125
0.24191617965698242,-1270588299,1,0.8336323499679565,-0.2280370146036148,0.6686980724334717,77.33154296875,36.07177734375,-11.41357421875
0.24609613418579102,-1270588301,0,0.6200329065322876,0.2113277018070221,0.9023934602737427,69.03076171875,45.22705078125,-2.74658203125
0.24622225761413574,-1270588282,0,0.5694957971572876,0.2079097330570221,0.8901864290237427,65.3076171875,45.654296875,0.48828125
0.2634282112121582,-1270588280,1,0.8050678968429565,-0.2260838896036148,0.6691863536834717,79.345703125,44.86083984375,-10.43701171875
0.29467225074768066,-1270588261,1,0.8114155530929565,-0.1970311552286148,0.6752898693084717,86.48681640625,53.7109375,-7.99560546875
0.29468607902526855,-1270588242,1,0.8253315687179565,-0.2121678739786148,0.7084929943084717,93.75,70.73974609375,-1.89208984375
0.3063030242919922,-1270588246,0,0.5367809534072876,0.2242671549320221,0.8562508821487427,67.19970703125,40.771484375,14.34326171875
0.30631303787231445,-1270588227,0,0.5353161096572876,0.2171870768070221,0.9297372102737427,70.37353515625,55.17578125,19.95849609375
0.3208451271057129,-1270588223,1,0.7535542249679565,-0.2219334989786148,0.7509734630584717,104.6142578125,75.37841796875,6.89697265625
0.34298014640808105,-1270588208,0,0.4943004846572876,0.2166987955570221,0.9395028352737427,72.021484375,53.466796875,25.57373046875
0.3429892063140869,-1270588189,0,0.4637829065322876,0.2188960611820221,0.9426766633987427,69.27490234375,60.36376953125,20.99609375
0.35061192512512207,-1270588204,1,0.7379292249679565,-0.1435643583536148,0.7919890880584717,104.3701171875,73.54736328125,8.30078125
0.36608099937438965,-1270588170,0,0.4559704065322876,0.2384273111820221,0.9031258821487427,68.42041015625,68.359375,27.77099609375
0.38886308670043945,-1270588168,1,0.6622456312179565,-0.04737294837832451,0.7507293224334717,83.31298828125,91.6748046875,26.18408203125
0.3888711929321289,-1270588149,1,0.6541889905929565,-0.04224599525332451,0.7429168224334717,71.59423828125,98.9990234375,50.29296875
0.39614319801330566,-1270588151,0,0.4059215784072876,0.2625972330570221,0.7866708040237427,56.640625,89.78271484375,22.8271484375
0.39622926712036133,-1270588132,0,0.4093395471572876,0.3099605143070221,0.8723641633987427,40.771484375,100.03662109375,32.2265625
0.4108762741088867,-1270588130,1,0.6739643812179565,-0.2944432497024536,0.8535125255584717,80.322265625,110.595703125,74.8291015625
0.4258301258087158,-1270588113,0,0.5174938440322876,0.2242671549320221,0.9900399446487427,24.10888671875,143.37158203125,65.3076171875
0.4446589946746826,-1270588111,1,0.6405171155929565,-0.2299901396036148,0.8266570568084717,111.14501953125,64.453125,93.81103515625
0.44466710090637207,-1270588092,1,0.6324604749679565,-0.05665029212832451,0.7890594005584717,86.669921875,61.82861328125,71.77734375
0.45595812797546387,-1270588094,0,0.3536754846572876,0.048730045557022095,1.0105477571487427,20.69091796875,117.61474609375,89.66064453125
0.45601511001586914,-1270588075,0,0.3758922815322876,0.0702144205570221,0.8994637727737427,23.8037109375,104.18701171875,52.24609375
0.47060608863830566,-1270588073,1,0.5006245374679565,0.01634775474667549,0.7499969005584717,46.20361328125,81.6650390625,44.49462890625
0.49201202392578125,-1270588056,0,0.3561168909072876,0.2413569986820221,0.8435555696487427,12.26806640625,91.9189453125,1.89208984375
0.5008461475372314,-1270588054,1,0.6397846937179565,-0.08643545210361481,0.8850066661834717,32.5927734375,102.294921875,19.1650390625
0.5009140968322754,-1270588035,1,0.6749409437179565,-0.1464940458536148,0.8115203380584717,93.1396484375,85.9375,20.5078125
0.5159239768981934,-1270588037,0,0.5214000940322876,0.4088374674320221,0.8459969758987427,5.4931640625,59.9365234375,-6.28662109375
0.5160262584686279,-1270588018,0,0.5282360315322876,0.3072749674320221,0.9270516633987427,1.8310546875,86.12060546875,-13.5498046875
0.5408310890197754,-1270588016,1,0.6944721937179565,0.02586923912167549,0.8410613536834717,111.99951171875,54.0771484375,16.4794921875
0.5459411144256592,-1270587982,0,0.3431774377822876,0.4486323893070221,1.1575204133987427,41.50390625,69.64111328125,-1.40380859375
0.5605900287628174,-1270587997,1,0.5821675062179565,0.1767481416463852,0.9570281505584717,62.31689453125,58.10546875,9.70458984375
0.5606660842895508,-1270587978,1,0.45814409852027893,0.4745997190475464,1.1484344005584717,23.01025390625,54.8095703125,-1.953125
0.5938820838928223,-1270587959,1,0.45423784852027893,0.4487208127975464,1.2241179943084717,7.6904296875,83.55712890625,17.9443359375
0.5938911437988281,-1270587940,1,0.46937456727027893,0.06981454789638519,1.1589324474334717,31.43310546875,63.1103515625,31.06689453125
0.6079411506652832,-1270587963,0,0.1112438514828682,0.7240229845046997,0.9985848665237427,30.8837890625,75.927734375,-35.15625
0.6079511642456055,-1270587944,0,0.2150036096572876,0.7379390001296997,1.1448251008987427,10.8642578125,69.27490234375,-33.3251953125
0.6079559326171875,-1270587925,0,0.2745739221572876,0.3788081705570221,1.0649911165237427,-12.5732421875,24.5361328125,-16.11328125
0.6423029899597168,-1270587906,0,0.3307262659072876,0.4059077799320221,0.8655282258987427,-23.86474609375,-48.15673828125,-29.052734375
0.6509730815887451,-1270587904,1,0.19764603674411774,0.03343759849667549,0.9301726818084717,77.392578125,-14.58740234375,1.77001953125
0.6510920524597168,-1270587885,1,0.33949175477027893,0.2719630002975464,0.8256804943084717,138.916015625,-34.0576171875,-16.11328125
0.6658890247344971,-1270587887,0,0.2538219690322876,0.2037593424320221,0.6338387727737427,-50.048828125,-42.78564453125,-75.5615234375
0.6666021347045898,-1270587868,0,0.1722790002822876,0.3094722330570221,0.8762704133987427,-84.1064453125,-72.69287109375,-103.759765625
0.6910688877105713,-1270587866,1,0.18128861486911774,0.3456934690475464,1.0119597911834717,186.4013671875,-7.6904296875,-7.50732421875
0.6961510181427002,-1270587849,0,-1.3636096715927124,0.7538081407546997,1.7583504915237427,-62.92724609375,161.376953125,-99.4873046875
0.6961569786071777,-1270587830,0,0.031409867107868195,0.1100093424320221,1.0242196321487427,-38.6962890625,110.595703125,4.57763671875
0.7107691764831543,-1270587847,1,0.08460892736911774,0.5241602659225464,1.3989226818084717,72.6318359375,-15.07568359375,-25.2685546875
0.7108972072601318,-1270587828,1,0.09754838049411774,0.2966212034225464,0.7558562755584717,5.18798828125,12.6953125,-22.64404296875
0.7258551120758057,-1270587811,0,-0.027183882892131805,0.2198726236820221,0.8406258821487427,-27.2216796875,128.23486328125,-24.90234375
0.747291088104248,-1270587809,1,0.034804243594408035,0.3305567502975464,0.7329070568084717,-22.5830078125,16.4794921875,10.80322265625
0.7473001480102539,-1270587790,1,0.06947220861911774,0.3605860471725464,0.7180144786834717,-35.58349609375,-1.0986328125,64.453125
0.7557840347290039,-1270587792,0,-0.0848010703921318,0.4190913736820221,0.8643075227737427,-30.21240234375,131.89697265625,-2.13623046875
0.7558960914611816,-1270587773,0,-0.052330367267131805,0.3731929361820221,0.8530770540237427,-31.06689453125,117.7978515625,51.8798828125
0.7705421447753906,-1270587771,1,-0.035752397030591965,0.3444727659225464,0.6833465099334717,-42.48046875,-15.93017578125,152.77099609375
0.7930421829223633,-1270587754,0,-0.1453479528427124,0.1983882486820221,0.9854012727737427,-33.87451171875,94.54345703125,67.32177734375
0.8009200096130371,-1270587752,1,-0.060898881405591965,0.2138575166463852,0.9382293224334717,-73.8525390625,-38.818359375,190.4296875
0.8158562183380127,-1270587718,0,-0.1648792028427124,0.3360835611820221,0.8313485383987427,-46.7529296875,87.2802734375,-6.7138671875
0.8400871753692627,-1270587733,1,0.10462845861911774,0.2585352659225464,0.9499480724334717,-72.6318359375,-89.41650390625,189.208984375
0.840095043182373,-1270587714,1,0.21278275549411774,0.10057626664638519,0.8603484630584717,-58.837890625,-105.28564453125,193.9697265625
0.8456718921661377,-1270587699,0,-0.1070178672671318,0.1156245768070221,0.9097176790237427,-59.38720703125,45.10498046875,-68.90869140625
0.845782995223999,-1270587680,0,-0.1184924766421318,0.1627437174320221,0.7905770540237427,-84.53369140625,-53.89404296875,-105.52978515625
0.8606681823730469,-1270587695,1,0.47743120789527893,0.1894434541463852,0.8693816661834717,-56.2744140625,-106.01806640625,207.275390625
0.860781192779541,-1270587676,1,0.36878862977027893,-0.2060643583536148,0.7729461193084717,-57.373046875,-61.34033203125,201.72119140625
0.8758571147918701,-1270587661,0,-0.1148303672671318,-0.007910579442977905,0.5449715852737427,-103.82080078125,-90.51513671875,-183.89892578125
0.8934731483459473,-1270587640,1,0.18665970861911774,-0.11182607710361481,0.46630552411079407,-9.21630859375,-8.6669921875,176.8798828125
0.9059741497039795,-1270587642,0,-0.0015491172671318054,-0.047461360692977905,0.4966317117214203,-122.9248046875,-118.65234375,-230.16357421875
0.9060542583465576,-1270587623,0,0.0851208046078682,0.4659663736820221,0.7539559602737427,-46.142578125,-86.73095703125,-222.0458984375
0.9208571910858154,-1270587621,1,0.14588822424411774,-0.06080068275332451,0.31786802411079407,33.75244140625,-83.67919921875,212.158203125
0.9420630931854248,-1270587604,0,-0.2417834997177124,0.2809077799320221,0.7883797883987427,35.70556640625,-39.00146484375,-177.1240234375
0.9511799812316895,-1270587602,1,0.37831011414527893,-0.03199208900332451,0.5231902599334717,22.5830078125,-142.15087890625,241.39404296875
0.9513039588928223,-1270587583,1,0.5047749280929565,-0.1806737333536148,0.32153013348579407,75.0732421875,-130.859375,233.3984375
0.9658081531524658,-1270587585,0,-0.2156604528427124,0.1158687174320221,0.8528329133987427,121.76513671875,-146.240234375,-91.1865234375
0.9659299850463867,-1270587566,0,-0.2342151403427124,0.2467280924320221,0.8245126008987427,164.0625,-156.18896484375,-152.64892578125
0.990699052810669,-1270587564,1,1.8175190687179565,-0.2827244997024536,2.3608367443084717,112.73193359375,-4.8828125,171.630859375
0.9972240924835205,-1270587547,0,0.6417614221572876,0.0924312174320221,1.1038094758987427,111.26708984375,-198.1201171875,-103.515625
0.99723219871521,-1270587528,0,0.5655895471572876,0.0633784830570221,0.8352547883987427,104.55322265625,28.9306640625,119.9951171875
1.0107340812683105,-1270587545,1,0.47962847352027893,0.2607325315475464,0.9897429943084717,-69.03076171875,93.75,288.818359375
1.010829210281372,-1270587526,1,0.09461869299411774,-0.10645498335361481,1.1440398693084717,-192.3828125,108.642578125,95.15380859375
1.0257840156555176,-1270587509,0,0.0819469764828682,0.4359370768070221,1.1851083040237427,64.208984375,127.3193359375,107.60498046875
1.0459022521972656,-1270587507,1,0.19373978674411774,-0.6059666872024536,0.9807097911834717,-261.16943359375,-17.7001953125,-42.6025390625
1.0459110736846924,-1270587488,1,0.7603901624679565,-0.7961522340774536,0.04101254418492317,-178.64990234375,157.04345703125,-226.37939453125
1.0558431148529053,-1270587490,0,0.008948929607868195,0.7662593126296997,1.2295418977737427,-18.06640625,135.55908203125,112.12158203125
1.070446252822876,-1270587469,1,0.6134175062179565,-0.6538182497024536,0.23998714983463287,-26.18408203125,74.70703125,-219.970703125
1.0944640636444092,-1270587454,0,-0.2093127965927124,-0.010351985692977905,0.8123055696487427,-91.85791015625,64.0869140625,68.54248046875
1.1150891780853271,-1270587435,0,-0.2578967809677124,0.0987788736820221,0.8413583040237427,-39.12353515625,39.24560546875,40.58837890625
1.11594820022583,-1270587416,0,-0.1997913122177124,0.054589420557022095,0.8594247102737427,35.15625,35.5224609375,-7.75146484375
1.1387221813201904,-1270587450,1,0.8702534437179565,-0.3159276247024536,0.46484068036079407,99.365234375,-17.2119140625,-172.54638671875
1.1394810676574707,-1270587431,1,0.8409565687179565,-0.2634373903274536,0.6589324474334717,142.2119140625,48.095703125,-118.71337890625
1.1394879817962646,-1270587412,1,0.6392964124679565,-0.2573338747024536,0.6706511974334717,132.080078125,78.67431640625,-62.6220703125
1.1456892490386963,-1270587397,0,-0.0740588828921318,0.020165592432022095,0.8403817415237427,82.58056640625,44.73876953125,-74.5849609375
1.1457772254943848,-1270587378,0,-0.0652698203921318,0.1253902018070221,0.7805672883987427,103.271484375,39.48974609375,-75.927734375
1.1609652042388916,-1270587376,1,0.6571186780929565,-0.3205662965774536,0.6994597911834717,118.65234375,156.92138671875,-67.87109375
1.175795078277588,-1270587359,0,-0.046959273517131805,0.1598140299320221,0.8738290071487427,102.294921875,30.76171875,-37.41455078125
1.193047046661377,-1270587357,1,0.5243061780929565,-0.10523428022861481,0.8203094005584717,142.333984375,143.06640625,-66.650390625
1.1930551528930664,-1270587338,1,0.5963276624679565,0.06566415727138519,0.9370086193084717,156.3720703125,96.98486328125,-42.236328125
1.205704927444458,-1270587340,0,-0.3880237340927124,0.3204585611820221,1.1182137727737427,58.7158203125,-17.88330078125,12.3291015625
1.205841302871704,-1270587321,0,-0.3377307653427124,0.4588862955570221,1.2683602571487427,5.859375,-89.35546875,39.4287109375
1.2208430767059326,-1270587319,1,0.5807026624679565,0.1821192353963852,1.0358855724334717,161.2548828125,105.52978515625,-23.13232421875
1.2418959140777588,-1270587302,0,0.060950882732868195,0.1126948893070221,1.2271004915237427,-36.80419921875,-135.1318359375,28.99169921875
1.2508020401000977,-1270587300,1,0.41029253602027893,0.2460840791463852,1.1755340099334717,105.89599609375,101.13525390625,-8.7890625
1.2508652210235596,-1270587281,1,0.49256792664527893,0.09422861039638519,1.1059539318084717,42.96875,10.68115234375,-18.5546875
1.2658472061157227,-1270587283,0,0.1385875940322876,0.2584468424320221,1.2122079133987427,-38.2080078125,-102.60009765625,31.8603515625
1.2659342288970947,-1270587264,0,0.1337047815322876,0.1285640299320221,1.2400399446487427,-32.71484375,-5.9814453125,73.73046875
1.2900810241699219,-1270587262,1,0.8624409437179565,-0.04273427650332451,0.9528777599334717,30.33447265625,43.88427734375,-13.427734375
1.2958478927612305,-1270587245,0,0.023597367107868195,0.1595698893070221,1.0081063508987427,0.06103515625,31.18896484375,109.43603515625
1.3109209537506104,-1270587243,1,0.6624897718429565,0.1972559541463852,1.1450164318084717,21.3623046875,101.98974609375,-9.58251953125
1.311056137084961,-1270587224,1,0.7667378187179565,0.2946680784225464,1.0227019786834717,-2.9296875,148.5595703125,-19.59228515625
1.3258280754089355,-1270587226,0,0.030921585857868195,0.2445308268070221,0.9087411165237427,0.244140625,5.7373046875,128.0517578125
1.3461050987243652,-1270587205,1,0.6693257093429565,0.12059579789638519,0.8974578380584717,28.01513671875,159.912109375,-16.11328125
1.3561179637908936,-1270587190,0,0.1402965784072876,0.4818355143070221,0.9619637727737427,17.7001953125,-27.52685546875,79.77294921875
1.3562061786651611,-1270587171,0,0.3317028284072876,0.3902827799320221,0.9114266633987427,43.701171875,-5.92041015625,85.02197265625
1.3706841468811035,-1270587186,1,0.48939409852027893,0.2646387815475464,0.8911101818084717,60.97412109375,110.90087890625,-35.15625
1.3707380294799805,-1270587167,1,0.5621479749679565,0.3098047971725464,0.9560515880584717,55.23681640625,75.927734375,-29.78515625
1.3942201137542725,-1270587152,0,0.3219372034072876,0.2650386393070221,0.8750497102737427,92.8955078125,38.39111328125,137.8173828125
1.4007081985473633,-1270587148,1,0.46790972352027893,0.2612208127975464,0.9045379161834717,23.8037109375,87.158203125,-29.23583984375
1.4156920909881592,-1270587133,0,0.3854137659072876,0.3492671549320221,0.8491708040237427,123.1689453125,47.2412109375,177.978515625
1.41579008102417,-1270587114,0,0.2870250940322876,0.5841304063796997,0.8506356477737427,122.13134765625,38.02490234375,158.5693359375
1.4320242404937744,-1270587112,1,0.5662983655929565,0.3928126096725464,0.8491179943084717,26.2451171875,73.54736328125,-72.08251953125
1.44722318649292,-1270587095,0,0.1800915002822876,0.7494136095046997,0.7754403352737427,99.7314453125,3.5400390625,96.25244140625
1.4605162143707275,-1270587093,1,0.5064839124679565,0.4081934690475464,1.0341765880584717,64.27001953125,93.75,-70.12939453125
1.46061110496521,-1270587074,1,0.21790970861911774,0.3012598752975464,1.0854461193084717,42.3583984375,125.6103515625,-72.57080078125
1.475663185119629,-1270587076,0,0.2413707971572876,0.5252925157546997,0.7000008821487427,76.66015625,-23.0712890625,42.3583984375
1.4757471084594727,-1270587057,0,0.3563610315322876,0.3321773111820221,0.6616708040237427,56.2744140625,-6.16455078125,10.1318359375
1.4945480823516846,-1270587055,1,0.11122025549411774,0.1425684541463852,1.1586883068084717,12.14599609375,129.21142578125,-106.4453125
1.5057380199432373,-1270587038,0,0.3443981409072876,0.4964839518070221,0.5823251008987427,53.64990234375,28.50341796875,25.7568359375
1.5058050155639648,-1270587019,0,0.2533336877822876,0.7291499376296997,0.6252938508987427,55.35888671875,37.109375,63.04931640625
1.520599126815796,-1270587036,1,0.042128462344408035,0.3266505002975464,1.0339324474334717,-29.4189453125,156.92138671875,-165.10009765625
1.5207040309906006,-1270587017,1,-0.004502397030591965,0.3229883909225464,1.0058562755584717,-21.484375,155.45654296875,-204.40673828125
1.5414621829986572,-1270587000,0,0.2482067346572876,0.7159663438796997,0.6328622102737427,42.6025390625,39.55078125,72.20458984375
1.5506250858306885,-1270586998,1,-0.11387740075588226,0.08543954789638519,0.6061980724334717,69.39697265625,156.3720703125,-200.0732421875
1.566075086593628,-1270586981,0,0.2162243127822876,0.6422358751296997,0.6614266633987427,5.55419921875,43.39599609375,54.5654296875
1.5661780834197998,-1270586962,0,0.1654430627822876,0.5174800157546997,0.7019540071487427,-27.587890625,55.60302734375,23.193359375
1.5902771949768066,-1270586979,1,-0.15220747888088226,-0.10694326460361481,0.44823911786079407,98.44970703125,150.45166015625,-152.89306640625
1.590285062789917,-1270586960,1,0.06654252111911774,0.02733408287167549,0.7604949474334717,99.91455078125,113.037109375,-119.44580078125
1.6098029613494873,-1270586941,1,0.041151899844408035,0.12157236039638519,0.8081023693084717,66.95556640625,45.2880859375,-47.05810546875
1.610605001449585,-1270586922,1,-0.14415083825588226,0.2941797971725464,0.8801238536834717,42.96875,-39.1845703125,94.1162109375
1.641226053237915,-1270586903,1,-0.32627972960472107,0.2270411103963852,0.7683074474334717,39.0625,-63.90380859375,86.60888671875
1.6560871601104736,-1270586926,0,0.2005993127822876,0.4640132486820221,0.7197762727737427,-23.86474609375,47.30224609375,22.15576171875
1.6561970710754395,-1270586907,0,0.2880016565322876,0.5528804063796997,0.7666512727737427,-15.80810546875,48.40087890625,7.32421875
1.6562418937683105,-1270586888,0,0.3177868127822876,0.5782710313796997,0.7944833040237427,-16.41845703125,55.11474609375,-13.48876953125
1.6568922996520996,-1270586869,0,0.3014293909072876,0.5851069688796997,0.8062020540237427,-32.53173828125,67.3828125,-37.41455078125
1.670776128768921,-1270586884,1,-0.14097701013088226,0.1906641572713852,0.7556121349334717,41.19873046875,-56.15234375,46.142578125
1.692199945449829,-1270586850,0,0.2892223596572876,0.4664546549320221,0.8027840852737427,-49.6826171875,77.2705078125,-39.61181640625
1.7007112503051758,-1270586848,1,-0.12364302575588226,0.08617196977138519,0.6445281505584717,58.41064453125,-122.49755859375,19.04296875
1.7008330821990967,-1270586829,1,-0.11680708825588226,0.3952540159225464,0.7294890880584717,65.4296875,-168.02978515625,16.357421875
1.7157740592956543,-1270586831,0,0.2655407190322876,0.4552241861820221,0.8025399446487427,-52.55126953125,84.47265625,-13.85498046875
1.7158682346343994,-1270586812,0,0.2323375940322876,0.5208979845046997,0.8228036165237427,-52.3681640625,81.23779296875,-2.99072265625
1.7413251399993896,-1270586810,1,0.020155806094408035,0.6787012815475464,0.8293426036834717,64.75830078125,-177.734375,32.958984375
1.7469971179962158,-1270586793,0,0.2328258752822876,0.5343257188796997,0.8318368196487427,-55.60302734375,67.68798828125,-19.22607421875
1.7613160610198975,-1270586791,1,0.15614213049411774,0.6706446409225464,0.8686492443084717,56.7626953125,-158.8134765625,38.0859375
1.761404275894165,-1270586772,1,0.34632769227027893,0.4560450315475464,0.8168914318084717,73.79150390625,-104.8583984375,2.38037109375
1.7757411003112793,-1270586774,0,0.1254040002822876,0.4513179361820221,0.8948251008987427,-56.0302734375,63.53759765625,-41.44287109375
1.7758090496063232,-1270586755,0,-0.025719039142131805,0.2782222330570221,0.9646493196487427,-43.76220703125,53.28369140625,-35.70556640625
1.793133020401001,-1270586753,1,0.5782612562179565,0.4204005002975464,0.9265105724334717,17.27294921875,33.99658203125,-49.86572265625
1.8058621883392334,-1270586736,0,-0.0017932578921318054,0.1988765299320221,0.9558602571487427,-24.658203125,38.4521484375,-10.55908203125
1.8206100463867188,-1270586734,1,0.29896441102027893,0.5427149534225464,0.9228484630584717,-9.1552734375,107.0556640625,-63.232421875
1.820713996887207,-1270586715,1,0.055800337344408035,0.7106837034225464,0.9472625255584717,-3.2958984375,150.5126953125,-40.95458984375
1.840925931930542,-1270586717,0,0.034339554607868195,0.3192378580570221,0.9683114290237427,-7.14111328125,8.30078125,27.587890625
1.8414981365203857,-1270586698,0,0.035071976482868195,0.3907710611820221,1.0312997102737427,-13.12255859375,-10.7421875,30.1513671875
1.8505480289459229,-1270586696,1,-0.13536177575588226,0.6701563596725464,1.2001922130584717,-41.80908203125,85.8154296875,-12.39013671875
1.8658030033111572,-1270586662,0,0.0912243202328682,0.3207027018070221,1.1003915071487427,-34.7900390625,-34.11865234375,0.3662109375
1.8898351192474365,-1270586677,1,-0.048691850155591965,0.6694239377975464,0.8974578380584717,-58.7158203125,40.6494140625,-15.13671875
1.8906030654907227,-1270586658,1,-0.006943803280591965,0.5529688596725464,0.9457976818084717,-53.7109375,30.45654296875,-11.04736328125
1.8958122730255127,-1270586643,0,0.0902477577328682,0.2657710611820221,1.1565438508987427,-33.38623046875,-9.09423828125,-9.8876953125
1.910634994506836,-1270586639,1,0.08338822424411774,0.3083399534225464,0.8889129161834717,-39.48974609375,23.62060546875,-9.46044921875
1.9107520580291748,-1270586620,1,-0.10948286950588226,0.4475001096725464,1.0317351818084717,-3.84521484375,23.13232421875,-17.333984375
1.9257640838623047,-1270586624,0,-0.011070601642131805,0.2506343424320221,1.1455575227737427,-26.18408203125,7.8125,4.638671875
1.9258761405944824,-1270586605,0,-0.0735706016421318,0.2311030924320221,1.0525399446487427,-1.15966796875,-3.47900390625,23.62060546875
1.9549651145935059,-1270586586,0,-0.1282581090927124,0.3126460611820221,0.9985848665237427,35.15625,-31.1279296875,33.75244140625
1.9710462093353271,-1270586584,1,-0.14439497888088226,0.5207422971725464,0.8281219005584717,17.822265625,-66.0400390625,-87.0361328125
1.9711720943450928,-1270586565,1,-0.08873091638088226,0.6320704221725464,0.8010222911834717,8.1787109375,-49.74365234375,-80.56640625
1.9921259880065918,-1270586567,0,-0.1160510703921318,0.4112788736820221,0.9375497102737427,44.00634765625,-44.3115234375,16.41845703125
1.9921340942382812,-1270586548,0,-0.1394885778427124,0.4632808268070221,0.9116708040237427,29.541015625,-49.37744140625,-5.43212890625
2.000864028930664,-1270586546,1,-0.15123091638088226,0.5712794065475464,0.8503386974334717,2.685546875,-21.8505859375,-68.17626953125
2.0158982276916504,-1270586529,0,-0.1934436559677124,0.3839351236820221,0.9446297883987427,13.18359375,-58.16650390625,-7.8125
2.0160021781921387,-1270586510,0,-0.2229846715927124,0.3907710611820221,0.9932137727737427,18.798828125,-80.4443359375,10.1318359375
2.0404012203216553,-1270586527,1,-0.25621137022972107,0.5126856565475464,0.8623015880584717,1.220703125,5.2490234375,-52.18505859375
2.0404090881347656,-1270586508,1,-0.27354535460472107,0.4916895627975464,0.9045379161834717,27.4658203125,-1.220703125,-39.55078125
2.0461580753326416,-1270586491,0,-0.1927112340927124,0.3834468424320221,0.9729501008987427,20.1416015625,-92.59033203125,10.43701171875
2.060730218887329,-1270586489,1,-0.31651410460472107,0.5905665159225464,0.8894011974334717,48.52294921875,3.0517578125,-18.24951171875
2.0607831478118896,-1270586470,1,-0.27403363585472107,0.5229395627975464,0.8608367443084717,65.3076171875,19.04296875,15.13671875
2.075672149658203,-1270586472,0,-0.1319202184677124,0.4710933268070221,0.9512215852737427,16.54052734375,-94.17724609375,-5.859375
2.075777053833008,-1270586453,0,-0.1136096641421318,0.4603511393070221,0.9648934602737427,8.1787109375,-84.04541015625,-19.22607421875
2.094788074493408,-1270586451,1,-0.28941449522972107,0.3581446409225464,0.8676726818084717,79.65087890625,44.49462890625,42.96875
2.1058030128479004,-1270586434,0,-0.030845992267131805,0.3490230143070221,0.9309579133987427,7.080078125,-76.23291015625,-15.13671875
2.122805118560791,-1270586432,1,-0.33140668272972107,0.5776270627975464,0.7661101818084717,71.8994140625,34.1796875,45.8984375
2.1228151321411133,-1270586413,1,-0.31041058897972107,0.6975001096725464,0.7163054943084717,45.41015625,-7.14111328125,45.34912109375
2.143665313720703,-1270586398,0,-0.0650256797671318,0.4173823893070221,0.8752938508987427,24.23095703125,-58.16650390625,8.7890625
2.1664981842041016,-1270586379,0,0.011390335857868195,0.5323725938796997,0.8843270540237427,28.076171875,-65.85693359375,11.77978515625
2.166508197784424,-1270586360,0,0.1195446327328682,0.5531245470046997,0.8862801790237427,24.7802734375,-52.06298828125,-2.50244140625
2.187870979309082,-1270586394,1,-0.10167036950588226,0.6926172971725464,0.7170379161834717,18.6767578125,12.8173828125,92.95654296875
2.18864107131958,-1270586375,1,-0.005967240780591965,0.7353419065475464,0.8156707286834717,-22.27783203125,101.13525390625,78.18603515625
2.1886472702026367,-1270586356,1,-0.23790083825588226,0.8102930784225464,0.6684539318084717,-70.556640625,134.09423828125,-19.59228515625
2.195674180984497,-1270586341,0,0.0851208046078682,0.5177241563796997,0.8801766633987427,22.39990234375,-30.09033203125,-17.7001953125
2.210740089416504,-1270586320,1,-0.47667035460472107,0.3933008909225464,0.5837371349334717,-87.0361328125,10.1318359375,-42.96875
2.2258622646331787,-1270586322,0,0.0958629921078682,0.5218745470046997,0.8582040071487427,18.310546875,-18.37158203125,-20.44677734375
2.2258810997009277,-1270586303,0,0.0785290077328682,0.5374995470046997,0.8279305696487427,6.591796875,-17.63916015625,-18.310546875
2.243385076522827,-1270586301,1,-0.24986372888088226,0.4201563596725464,0.7033660411834717,-56.09130859375,-23.74267578125,-26.611328125
2.2556700706481934,-1270586284,0,0.1207653358578682,0.4903804361820221,0.8367196321487427,6.77490234375,-26.0009765625,-13.85498046875
2.270585060119629,-1270586282,1,-0.25035199522972107,0.3373926877975464,0.8034636974334717,-39.61181640625,8.60595703125,-20.1416015625
2.2707021236419678,-1270586263,1,-0.32359418272972107,0.3586329221725464,0.7431609630584717,-26.55029296875,-1.77001953125,-3.0517578125
2.2918059825897217,-1270586265,0,0.1368786096572876,0.5052729845046997,0.8660165071487427,15.7470703125,-19.775390625,-7.38525390625
2.2918131351470947,-1270586246,0,0.1383434534072876,0.5103999376296997,0.8525887727737427,18.61572265625,-12.939453125,-9.46044921875
2.30049729347229,-1270586244,1,-0.27891644835472107,0.4536036252975464,0.7983367443084717,-15.2587890625,-19.4091796875,-1.5869140625
2.3157010078430176,-1270586227,0,0.1376110315322876,0.5296870470046997,0.8323251008987427,15.5029296875,-2.25830078125,-11.90185546875
2.3158020973205566,-1270586208,0,0.0807262733578682,0.5226069688796997,0.7971688508987427,7.75146484375,-3.90625,-6.7138671875
2.33976411819458,-1270586225,1,-0.22886763513088226,0.4558008909225464,0.8039519786834717,-8.30078125,-37.4755859375,1.708984375
2.339771270751953,-1270586206,1,-0.19786177575588226,0.4775294065475464,0.7770965099334717,-0.3662109375,-75.86669921875,-11.8408203125
2.345396041870117,-1270586189,0,0.0792614296078682,0.4908687174320221,0.7942391633987427,8.11767578125,-15.869140625,-2.0751953125
2.3606042861938477,-1270586187,1,-0.25279340147972107,0.5537012815475464,0.7534148693084717,-7.26318359375,-89.599609375,-51.7578125
2.3606760501861572,-1270586168,1,-0.31529340147972107,0.4816797971725464,0.8269011974334717,-26.85546875,-88.7451171875,-51.33056640625
2.375537872314453,-1270586170,0,0.1268688440322876,0.4872066080570221,0.7710458040237427,12.63427734375,-21.66748046875,-5.92041015625
2.396963119506836,-1270586149,1,-0.36558637022972107,0.2717188596725464,0.9260222911834717,-27.2216796875,-98.0224609375,-22.64404296875
2.4055700302124023,-1270586134,0,0.1610485315322876,0.5035640001296997,0.7935067415237427,7.87353515625,-21.30126953125,-25.5126953125
2.4206011295318604,-1270586130,1,-0.27061566710472107,0.3300684690475464,0.9299285411834717,-21.240234375,-126.953125,8.72802734375
2.420762062072754,-1270586111,1,-0.21910201013088226,0.3178614377975464,0.9177215099334717,-23.5595703125,-168.701171875,-3.11279296875
2.4419100284576416,-1270586115,0,0.2069469690322876,0.4977046549320221,0.7971688508987427,1.77001953125,-25.57373046875,-19.22607421875
2.441917896270752,-1270586096,0,0.1888805627822876,0.4198237955570221,0.7708016633987427,-0.06103515625,-25.146484375,-4.5166015625
2.450477123260498,-1270586092,1,-0.06919966638088226,0.3332422971725464,0.9252898693084717,-31.73828125,-185.97412109375,-22.3388671875
2.468250274658203,-1270586077,0,0.2132946252822876,0.4391109049320221,0.7341805696487427,5.126953125,-29.11376953125,5.2490234375
2.4682600498199463,-1270586058,0,0.2457653284072876,0.4732905924320221,0.7219735383987427,8.23974609375,-42.1142578125,15.0146484375
2.490129232406616,-1270586056,1,0.07508744299411774,0.3918360471725464,0.8659636974334717,-51.3916015625,-163.330078125,-12.20703125
2.495958089828491,-1270586039,0,0.2933727502822876,0.4908687174320221,0.7485848665237427,3.35693359375,-46.32568359375,9.3994140625
2.5125892162323,-1270586037,1,0.15711869299411774,0.2905176877975464,0.8869597911834717,-53.77197265625,-131.591796875,15.9912109375
2.5126001834869385,-1270586018,1,0.19593705236911774,0.2138575166463852,0.9121062755584717,-50.78125,-97.7783203125,31.55517578125
2.525820255279541,-1270586020,0,0.3417125940322876,0.4317866861820221,0.7209969758987427,-0.79345703125,-50.29296875,16.54052734375
2.5259511470794678,-1270586001,0,0.3773571252822876,0.4500972330570221,0.6799813508987427,-5.92041015625,-54.19921875,22.76611328125
2.5439202785491943,-1270585999,1,0.22865189611911774,0.2629297971725464,0.8957488536834717,-42.66357421875,-94.54345703125,36.07177734375
2.5557961463928223,-1270585982,0,0.3785778284072876,0.5570307970046997,0.7224618196487427,-34.0576171875,-61.34033203125,37.841796875
2.5706639289855957,-1270585980,1,-0.013535600155591965,0.1298731416463852,0.8915984630584717,-44.86083984375,-111.4501953125,33.87451171875
2.5707321166992188,-1270585961,1,-0.017930131405591965,0.10790048539638519,0.9401824474334717,-32.89794921875,-125.54931640625,32.89794921875
2.592211961746216,-1270585963,0,0.4022594690322876,0.5445796251296997,0.7754403352737427,-79.89501953125,-80.01708984375,57.67822265625
2.592813014984131,-1270585944,0,0.5094372034072876,0.2220698893070221,0.9019051790237427,-125.9765625,-33.14208984375,42.236328125
2.6005301475524902,-1270585942,1,0.09437455236911774,0.4062403440475464,0.9113738536834717,-35.94970703125,-137.26806640625,45.47119140625
2.6156671047210693,-1270585925,0,0.4681774377822876,0.4227534830570221,0.8052254915237427,-127.5634765625,-22.4609375,27.2216796875
2.6405460834503174,-1270585923,1,0.16786088049411774,0.3710840940475464,0.9394500255584717,-63.232421875,-150.08544921875,90.4541015625
2.6405560970306396,-1270585904,1,0.21815384924411774,0.2770899534225464,1.0554168224334717,-99.2431640625,-178.28369140625,106.26220703125
2.6461260318756104,-1270585906,0,0.1185680702328682,0.6854487657546997,0.7869149446487427,-142.51708984375,9.82666015625,-14.892578125
2.6607532501220703,-1270585885,1,0.21327103674411774,0.10130868852138519,1.0090301036834717,-119.0185546875,-192.7490234375,92.22412109375
2.6967082023620605,-1270585866,1,0.44471636414527893,0.05296884849667549,0.9211394786834717,-105.89599609375,-182.06787109375,81.97021484375
2.6967170238494873,-1270585847,1,0.8507221937179565,0.1501368135213852,0.48534849286079407,-102.9052734375,-100.2197265625,60.11962890625
2.7060532569885254,-1270585870,0,0.1222301796078682,0.1764155924320221,0.8137704133987427,-87.09716796875,-42.96875,-12.0849609375
2.7061471939086914,-1270585851,0,-0.2842639684677124,0.1244136393070221,0.9089852571487427,-7.38525390625,-105.77392578125,-3.662109375
2.7062270641326904,-1270585832,0,0.0680309608578682,0.2772456705570221,1.1238290071487427,43.8232421875,-162.17041015625,-14.5263671875
2.7203540802001953,-1270585828,1,0.43324175477027893,-0.06202138587832451,0.9040496349334717,-43.9453125,-7.32421875,51.57470703125
2.7425899505615234,-1270585813,0,0.2259899377822876,0.2474605143070221,1.0713387727737427,35.15625,-104.67529296875,-2.685546875
2.7425992488861084,-1270585794,0,0.1149059608578682,0.2464839518070221,1.0520516633987427,7.568359375,-71.22802734375,31.43310546875
2.750514030456543,-1270585792,1,0.22987259924411774,0.1481836885213852,0.9736297130584717,-2.44140625,2.38037109375,47.7294921875
2.765479326248169,-1270585775,0,0.1713024377822876,0.2057124674320221,0.9775887727737427,-7.8125,-48.03466796875,40.71044921875
2.789766311645508,-1270585773,1,0.22547806799411774,0.1393946260213852,0.9956023693084717,10.07080078125,2.25830078125,71.8994140625
2.789774179458618,-1270585754,1,0.28016558289527893,0.1281641572713852,0.9694793224334717,17.02880859375,-17.02880859375,93.75
2.7956979274749756,-1270585756,0,0.1749645471572876,0.1419917643070221,1.0259286165237427,-18.1884765625,-51.57470703125,38.39111328125
2.795781135559082,-1270585737,0,0.0751110389828682,0.1976558268070221,1.0564461946487427,-25.69580078125,-56.5185546875,44.37255859375
2.8107471466064453,-1270585735,1,0.34559527039527893,0.08788095414638519,0.9204070568084717,22.39990234375,-29.541015625,106.201171875
2.825681209564209,-1270585718,0,-0.005943648517131805,0.1737300455570221,1.1633797883987427,-27.587890625,-39.48974609375,42.17529296875
2.825779914855957,-1270585699,0,0.0990368202328682,0.020409733057022095,1.1194344758987427,-27.89306640625,10.55908203125,41.748046875
2.843278169631958,-1270585716,1,0.34046831727027893,0.04686533287167549,0.8845183849334717,24.59716796875,-27.7099609375,114.44091796875
2.8432860374450684,-1270585697,1,0.37269487977027893,0.0031641609966754913,0.8950164318084717,18.98193359375,-18.24951171875,123.10791015625
2.8577890396118164,-1270585680,0,0.0795055702328682,0.0667964518070221,1.0491219758987427,-25.32958984375,21.30126953125,66.2841796875
2.870755195617676,-1270585678,1,0.39564409852027893,0.0016993172466754913,0.9262664318084717,11.8408203125,-1.77001953125,124.93896484375
2.870826005935669,-1270585659,1,0.46693316102027893,-0.06226552650332451,0.9323699474334717,24.59716796875,12.14599609375,119.9951171875
2.8927040100097656,-1270585661,0,0.1139293983578682,0.1883784830570221,1.0378915071487427,-23.98681640625,-2.685546875,94.78759765625
2.892711877822876,-1270585642,0,0.3529430627822876,0.1751948893070221,1.0439950227737427,-25.69580078125,-11.23046875,85.14404296875
2.9007480144500732,-1270585640,1,0.49207964539527893,-0.12183584272861481,0.9108855724334717,37.17041015625,23.62060546875,104.3701171875
2.9400970935821533,-1270585621,1,0.5614155530929565,-0.1318456083536148,0.9150359630584717,41.1376953125,25.08544921875,89.84375
2.9401049613952637,-1270585602,1,0.6090229749679565,-0.11597646772861481,0.9555633068084717,38.75732421875,30.21240234375,83.984375
2.947991132736206,-1270585606,0,0.5504528284072876,0.050194889307022095,1.1650887727737427,-5.859375,39.4287109375,53.64990234375
2.9480011463165283,-1270585587,0,0.5902477502822876,0.1336909830570221,1.1716805696487427,23.74267578125,65.49072265625,87.646484375
2.960635185241699,-1270585583,1,0.7003315687179565,-0.11133779585361481,1.0429656505584717,27.34375,38.26904296875,72.998046875
2.9761040210723877,-1270585568,0,0.6700817346572876,0.2464839518070221,1.1936532258987427,38.63525390625,76.7822265625,114.74609375
2.9761321544647217,-1270585549,0,0.8041149377822876,0.3436519205570221,1.2156258821487427,37.2314453125,88.56201171875,111.75537109375
2.9965782165527344,-1270585564,1,0.7574604749679565,-0.09156240522861481,1.1000945568084717,24.84130859375,48.76708984375,59.02099609375
3.0055742263793945,-1270585530,0,0.9283825159072876,0.3233882486820221,1.2085458040237427,31.3720703125,100.52490234375,70.73974609375
3.020571231842041,-1270585528,1,0.8768452405929565,-0.04444326087832451,1.2148406505584717,67.68798828125,69.3359375,62.1337890625
3.02065110206604,-1270585509,1,0.9791401624679565,-0.11841787397861481,1.2917449474334717,76.23291015625,65.12451171875,74.3408203125
3.0444700717926025,-1270585511,0,0.9193493127822876,0.2291499674320221,1.1946297883987427,36.376953125,115.66162109375,45.83740234375
3.044477939605713,-1270585492,0,0.8810192346572876,0.1605464518070221,1.2327157258987427,44.189453125,112.97607421875,39.73388671875
3.050464153289795,-1270585490,1,1.0155171155929565,-0.1818944364786148,1.3666961193084717,75.98876953125,59.6923828125,60.72998046875
3.0655770301818848,-1270585473,0,0.9444957971572876,0.1515132486820221,1.3330575227737427,57.0068359375,108.70361328125,22.4609375
3.091015338897705,-1270585471,1,1.0186909437179565,-0.2114354521036148,1.3657195568084717,77.45361328125,54.443359375,34.0576171875
3.0910232067108154,-1270585452,1,0.9742573499679565,-0.2072850614786148,1.3251922130584717,95.15380859375,48.095703125,16.66259765625
3.0962581634521484,-1270585454,0,1.0284801721572876,0.1256343424320221,1.3250008821487427,61.8896484375,110.77880859375,-0.79345703125
3.0964291095733643,-1270585435,0,0.9781872034072876,0.0724116861820221,1.2998543977737427,61.70654296875,128.96728515625,-18.61572265625
3.110767126083374,-1270585433,1,0.9415425062179565,-0.2102147489786148,1.2663543224334717,109.86328125,33.26416015625,7.32421875
3.125840187072754,-1270585416,0,0.8883434534072876,-0.0030277669429779053,1.2141610383987427,60.85205078125,144.10400390625,-27.099609375
3.1427011489868164,-1270585414,1,0.8949116468429565,-0.2121678739786148,1.2050750255584717,118.408203125,19.10400390625,-1.953125
3.1427090167999268,-1270585395,1,0.8202046155929565,-0.2270604521036148,1.1213347911834717,117.37060546875,6.103515625,-17.27294921875
3.1558611392974854,-1270585397,0,0.7860485315322876,-0.023779720067977905,1.0933114290237427,58.04443359375,149.59716796875,-26.91650390625
3.155917167663574,-1270585378,0,0.7015758752822876,-0.013281673192977905,0.9944344758987427,57.2509765625,149.10888671875,-24.5361328125
3.1709840297698975,-1270585376,1,0.7552632093429565,-0.2055760771036148,1.0456511974334717,113.58642578125,4.08935546875,-30.82275390625
3.191697120666504,-1270585342,0,0.5487438440322876,-0.025488704442977905,0.8745614290237427,47.7294921875,132.50732421875,-38.51318359375
3.2039802074432373,-1270585357,1,0.7152241468429565,-0.1772557646036148,0.9721648693084717,113.4033203125,11.04736328125,-35.400390625
3.203991174697876,-1270585338,1,0.6812885999679565,-0.1735936552286148,0.9218719005584717,111.572265625,22.27783203125,-35.15625
3.2156200408935547,-1270585323,0,0.4674450159072876,-0.033545345067977905,0.8770028352737427,38.6962890625,126.03759765625,-42.724609375
3.2393250465393066,-1270585319,1,0.6397846937179565,-0.1794530302286148,0.8725554943084717,109.375,26.67236328125,-36.43798828125
3.2393341064453125,-1270585300,1,0.5933979749679565,-0.1682225614786148,0.8376433849334717,111.87744140625,15.869140625,-38.63525390625
3.2473511695861816,-1270585304,0,0.3592907190322876,-0.0027836263179779053,0.8750497102737427,27.2216796875,119.44580078125,-36.865234375
3.2473621368408203,-1270585285,0,0.2670055627822876,-0.040137141942977905,0.8608895540237427,18.4326171875,112.60986328125,-27.28271484375
3.2746500968933105,-1270585266,0,0.2015758752822876,-0.017432063817977905,0.8491708040237427,15.13671875,107.0556640625,-14.95361328125
3.296190023422241,-1270585264,1,0.5157612562179565,-0.10547842085361481,0.7866179943084717,101.62353515625,-0.42724609375,-36.92626953125
3.296199321746826,-1270585245,1,0.46571245789527893,-0.06983388960361481,0.7207000255584717,93.07861328125,-2.25830078125,-31.8603515625
3.3059661388397217,-1270585247,0,0.1781383752822876,0.014062076807022095,0.8267098665237427,11.3525390625,108.5205078125,-10.25390625
3.3060662746429443,-1270585228,0,0.1466442346572876,0.039940983057022095,0.7756844758987427,6.77490234375,106.62841796875,-6.28662109375
3.3204989433288574,-1270585226,1,0.41664019227027893,-0.03052724525332451,0.6384246349334717,88.07373046875,-0.244140625,-32.77587890625
3.343611240386963,-1270585209,0,0.0697399452328682,0.0025874674320220947,0.7021981477737427,3.60107421875,100.40283203125,-2.99072265625
3.3436191082000732,-1270585190,0,-0.026695601642131805,0.042870670557022095,0.6421395540237427,3.47900390625,84.5947265625,4.94384765625
3.350649118423462,-1270585207,1,0.38001909852027893,0.01903330162167549,0.5666472911834717,83.1298828125,5.43212890625,-36.0107421875
3.350783109664917,-1270585188,1,0.34046831727027893,0.07542978227138519,0.5375945568084717,76.2939453125,9.82666015625,-37.2314453125
3.3655521869659424,-1270585171,0,-0.0711291953921318,0.0665523111820221,0.6482430696487427,7.4462890625,68.115234375,9.58251953125
3.3910772800445557,-1270585169,1,0.30384722352027893,0.1354883760213852,0.5109832286834717,68.90869140625,13.916015625,-32.16552734375
3.391085147857666,-1270585150,1,0.30067339539527893,0.1970118135213852,0.48705747723579407,59.6923828125,16.54052734375,-24.96337890625
3.3956480026245117,-1270585152,0,-0.1101916953921318,0.0904780924320221,0.6602059602737427,11.962890625,53.89404296875,21.30126953125
3.3957812786102295,-1270585133,0,-0.0760120078921318,0.1312495768070221,0.6750985383987427,13.00048828125,58.77685546875,23.62060546875
3.410936117172241,-1270585131,1,0.29701128602027893,0.2372950166463852,0.47924497723579407,49.6826171875,22.39990234375,-25.146484375
3.4261302947998047,-1270585114,0,-0.1568225622177124,0.1805659830570221,0.6785165071487427,9.8876953125,70.3125,17.822265625
3.4429850578308105,-1270585112,1,0.30311480164527893,0.2673243284225464,0.47021177411079407,34.423828125,31.79931640625,-30.3955078125
3.4429931640625,-1270585093,1,0.29310503602027893,0.3112696409225464,0.47216489911079407,28.80859375,47.9736328125,-38.51318359375
3.4554691314697266,-1270585078,0,-0.2163928747177124,0.1988765299320221,0.6614266633987427,-7.62939453125,75.3173828125,1.3427734375
3.470564126968384,-1270585074,1,0.26722612977027893,0.3769434690475464,0.5458953380584717,29.541015625,60.72998046875,-39.24560546875
3.4939730167388916,-1270585059,0,-0.2644885778427124,0.1874019205570221,0.6865731477737427,-13.3056640625,69.091796875,0.6103515625
3.493980884552002,-1270585040,0,-0.3033069372177124,0.1471187174320221,0.7056161165237427,-9.1552734375,63.8427734375,4.638671875
3.500638008117676,-1270585055,1,0.26698198914527893,0.4426172971725464,0.6013152599334717,33.26416015625,70.98388671875,-37.7197265625
3.5007219314575195,-1270585036,1,0.26576128602027893,0.4721583127975464,0.6296355724334717,37.65869140625,78.61328125,-34.11865234375
3.5156331062316895,-1270585021,0,-0.3338245153427124,0.1666499674320221,0.7690926790237427,0.54931640625,48.03466796875,11.65771484375
3.5404491424560547,-1270585000,1,0.26844683289527893,0.4904688596725464,0.6464812755584717,39.85595703125,88.623046875,-42.17529296875
3.546149253845215,-1270585002,0,-0.3142932653427124,0.1883784830570221,0.7922860383987427,-0.06103515625,45.83740234375,12.02392578125
3.546394109725952,-1270584983,0,-0.2942737340927124,0.2186519205570221,0.8008309602737427,-3.662109375,46.08154296875,8.1787109375
3.560582160949707,-1270584981,1,0.23866166174411774,0.5158594846725464,0.6672332286834717,45.0439453125,95.703125,-51.69677734375
3.575545072555542,-1270584964,0,-0.2569202184677124,0.2384273111820221,0.8169442415237427,-3.35693359375,47.9736328125,6.28662109375
3.593914270401001,-1270584962,1,0.20960892736911774,0.5475977659225464,0.6933562755584717,45.22705078125,88.43994140625,-51.20849609375
3.593964099884033,-1270584943,1,0.20716752111911774,0.5837305784225464,0.6750457286834717,43.212890625,82.275390625,-45.654296875
3.6057112216949463,-1270584945,0,-0.2535022497177124,0.2372066080570221,0.8352547883987427,-4.638671875,46.32568359375,-1.89208984375
3.6058061122894287,-1270584926,0,-0.2359241247177124,0.2098628580570221,0.8962899446487427,-7.32421875,35.94970703125,-7.26318359375
3.620903968811035,-1270584924,1,0.20374955236911774,0.5995997190475464,0.6486785411834717,33.447265625,72.44873046875,-37.90283203125
3.644426107406616,-1270584907,0,-0.2364124059677124,0.2218257486820221,0.9458504915237427,-14.58740234375,30.33447265625,-10.43701171875
3.645012140274048,-1270584888,0,-0.2095569372177124,0.2154780924320221,0.9844247102737427,-12.63427734375,28.4423828125,5.0048828125
3.650607109069824,-1270584905,1,0.22474564611911774,0.5961817502975464,0.6415984630584717,24.35302734375,66.71142578125,-33.8134765625
3.6507163047790527,-1270584886,1,0.21156205236911774,0.5903223752975464,0.6498992443084717,16.05224609375,64.3310546875,-35.21728515625
3.665476083755493,-1270584869,0,-0.1482776403427124,0.2787105143070221,0.9817391633987427,-11.41357421875,27.52685546875,22.216796875
3.6918840408325195,-1270584867,1,0.20106400549411774,0.5974024534225464,0.6806609630584717,16.9677734375,60.05859375,-33.203125
3.6918931007385254,-1270584848,1,0.20130814611911774,0.6205958127975464,0.6987273693084717,9.521484375,48.40087890625,-24.71923828125
3.696049928665161,-1270584850,0,-0.1560901403427124,0.3368159830570221,1.0002938508987427,-21.05712890625,29.11376953125,18.85986328125
3.7107582092285156,-1270584829,1,0.23475541174411774,0.6364649534225464,0.7060515880584717,-7.32421875,31.31103515625,-20.8740234375
3.7432100772857666,-1270584810,1,0.24989213049411774,0.5829981565475464,0.6889617443084717,-17.39501953125,20.81298828125,-17.822265625
3.7432172298431396,-1270584791,1,0.22767533361911774,0.5632227659225464,0.6892058849334717,-20.08056640625,14.58740234375,-20.751953125
3.7556049823760986,-1270584814,0,-0.1670764684677124,0.2789546549320221,1.0325204133987427,-46.875,5.9814453125,-5.9814453125
3.7556920051574707,-1270584795,0,-0.1236194297671318,0.2169429361820221,1.0786629915237427,-37.7197265625,-23.01025390625,6.65283203125
3.756953239440918,-1270584776,0,-0.0806506797671318,0.1895991861820221,1.1165047883987427,-12.75634765625,-52.18505859375,21.66748046875
3.77078914642334,-1270584772,1,0.22401322424411774,0.5546778440475464,0.6796844005584717,-20.01953125,5.0048828125,-27.77099609375
3.7924039363861084,-1270584757,0,-0.015220992267131805,0.2115718424320221,1.1589852571487427,6.89697265625,-64.5751953125,13.85498046875
3.7924129962921143,-1270584738,0,-0.035240523517131805,0.2176753580570221,1.1724129915237427,8.6669921875,-61.21826171875,-3.41796875
3.8008921146392822,-1270584736,1,0.24696244299411774,0.5505274534225464,0.6831023693084717,-32.65380859375,-8.9111328125,-28.564453125
3.8158252239227295,-1270584719,0,-0.056969039142131805,0.1881343424320221,1.1616708040237427,1.220703125,-59.814453125,-11.16943359375
3.8400182723999023,-1270584717,1,0.26600542664527893,0.5090235471725464,0.6757781505584717,-40.771484375,-16.6015625,-27.2216796875
3.8400261402130127,-1270584698,1,0.26185503602027893,0.4650782346725464,0.6630828380584717,-48.27880859375,-20.8740234375,-34.5458984375
3.8456220626831055,-1270584700,0,-0.061851851642131805,0.1590816080570221,1.1533700227737427,-5.7373046875,-55.96923828125,-2.25830078125
3.845733165740967,-1270584681,0,-0.014488570392131805,0.1561519205570221,1.1548348665237427,-8.30078125,-45.83740234375,-1.15966796875
3.8605310916900635,-1270584679,1,0.25257769227027893,0.4455469846725464,0.6621062755584717,-51.025390625,-28.564453125,-43.15185546875
3.87551212310791,-1270584662,0,-0.006676070392131805,0.1769038736820221,1.1233407258987427,-9.82666015625,-34.423828125,-12.5732421875
3.8948709964752197,-1270584660,1,0.23963822424411774,0.4484766721725464,0.6762664318084717,-52.91748046875,-35.70556640625,-49.1943359375
3.8948779106140137,-1270584641,1,0.24574173986911774,0.4548243284225464,0.6896941661834717,-58.837890625,-37.9638671875,-50.59814453125
3.9057819843292236,-1270584643,0,0.0018688514828681946,0.1129390299320221,1.0857430696487427,-9.94873046875,-29.96826171875,-31.18896484375
3.9059131145477295,-1270584624,0,-0.025719039142131805,0.0770503580570221,1.0903817415237427,-15.93017578125,-33.63037109375,-40.95458984375
3.9206032752990723,-1270584622,1,0.27625933289527893,0.4211329221725464,0.6848113536834717,-61.03515625,-40.283203125,-42.236328125
3.941436290740967,-1270584605,0,-0.0691760703921318,0.051171451807022095,1.0486336946487427,-23.86474609375,-39.9169921875,-44.921875
3.9505889415740967,-1270584603,1,0.31727495789527893,0.3366602659225464,0.6799285411834717,-65.49072265625,-39.0625,-33.447265625
3.950698137283325,-1270584584,1,0.32777300477027893,0.3044337034225464,0.7326629161834717,-71.77734375,-40.6494140625,-35.2783203125
3.965442180633545,-1270584586,0,-0.0823596641421318,0.018700748682022095,1.0093270540237427,-30.8837890625,-63.04931640625,-46.08154296875
3.9923388957977295,-1270584565,1,0.32606402039527893,0.2783106565475464,0.8044402599334717,-82.09228515625,-41.9921875,-50.10986328125
3.9992661476135254,-1270584550,0,0.021155960857868195,0.038964420557022095,1.1096688508987427,-49.01123046875,-119.5068359375,-52.91748046875
3.999274969100952,-1270584531,0,0.050208695232868195,-0.012305110692977905,1.2056161165237427,-60.48583984375,-118.83544921875,-72.93701171875
4.010672092437744,-1270584546,1,0.29994097352027893,0.2700098752975464,0.8876922130584717,-83.80126953125,-39.12353515625,-66.162109375
4.0107421875,-1270584527,1,0.30531206727027893,0.2673243284225464,0.9199187755584717,-78.67431640625,-48.88916015625,-64.208984375
4.0258471965789795,-1270584512,0,0.008704788982868195,-0.033789485692977905,1.2944833040237427,-64.0869140625,-102.84423828125,-89.29443359375
4.04467511177063,-1270584508,1,0.30970659852027893,0.2460840791463852,0.9536101818084717,-82.6416015625,-56.396484375,-57.0068359375
4.055711030960083,-1270584493,0,0.0018688514828681946,-0.0037601888179779053,1.3293954133987427,-64.39208984375,-95.5810546875,-99.7314453125
4.055812120437622,-1270584474,0,0.009681351482868195,-0.046240657567977905,1.3340340852737427,-68.05419921875,-96.49658203125,-108.82568359375
4.070757150650024,-1270584472,1,0.15248002111911774,0.2612208127975464,1.1391570568084717,-105.1025390625,-71.044921875,-82.82470703125
4.092055082321167,-1270584455,0,-0.0015491172671318054,-0.0645512044429779,1.3757821321487427,-65.91796875,-105.16357421875,-113.037109375
4.1007421016693115,-1270584453,1,0.054823774844408035,0.3642481565475464,1.2907683849334717,-101.62353515625,-89.05029296875,-89.4775390625
4.100851058959961,-1270584434,1,0.08119095861911774,0.4191797971725464,1.2990691661834717,-78.43017578125,-121.9482421875,-54.6875
4.115650177001953,-1270584436,0,-0.0716174766421318,-0.051855891942977905,1.4653817415237427,-55.35888671875,-124.81689453125,-111.02294921875
4.115769147872925,-1270584417,0,-0.0855334922671318,-0.027441829442977905,1.5044442415237427,-39.306640625,-141.90673828125,-110.41259765625
4.140130043029785,-1270584415,1,0.14442338049411774,0.3513087034225464,1.2973601818084717,-69.7021484375,-135.19287109375,-31.79931640625
4.1473469734191895,-1270584398,0,-0.0679553672671318,0.029198795557022095,1.5674325227737427,-14.16015625,-156.67724609375,-111.38916015625
4.147359132766724,-1270584379,0,-0.047935836017131805,0.048974186182022095,1.6311532258987427,4.150390625,-159.0576171875,-118.10302734375
4.160778999328613,-1270584396,1,0.14222611486911774,0.3024805784225464,1.3610808849334717,-76.47705078125,-132.4462890625,-44.86083984375
4.160795211791992,-1270584377,1,0.041151899844408035,0.3598536252975464,1.5388152599334717,-72.509765625,-125.42724609375,-86.0595703125
4.1755170822143555,-1270584360,0,-0.0977405235171318,0.040185123682022095,1.6221200227737427,11.8408203125,-151.55029296875,-117.7978515625
4.193643093109131,-1270584358,1,-0.12046919763088226,0.4902247190475464,1.6489226818084717,-46.0205078125,-131.9580078125,-98.93798828125
4.193650960922241,-1270584339,1,-0.18394576013088226,0.5297755002975464,1.5822722911834717,-14.5263671875,-133.6669921875,-83.92333984375
4.205689191818237,-1270584341,0,-0.1358264684677124,0.0704585611820221,1.5803719758987427,26.123046875,-137.451171875,-105.04150390625
4.205804109573364,-1270584322,0,-0.1485217809677124,0.0963374674320221,1.4907723665237427,49.13330078125,-112.73193359375,-90.02685546875
4.220489025115967,-1270584320,1,-0.19444380700588226,0.4982813596725464,1.4775359630584717,-1.3427734375,-132.080078125,-69.64111328125
4.264920234680176,-1270584286,0,-0.1575549840927124,0.1246577799320221,1.2991219758987427,68.115234375,-85.02197265625,-83.49609375
4.265746355056763,-1270584267,0,-0.1558459997177124,0.1134273111820221,1.1653329133987427,76.11083984375,-82.1533203125,-76.171875
4.289083242416382,-1270584301,1,-0.17906294763088226,0.4506739377975464,1.3544890880584717,7.99560546875,-136.3525390625,-52.1240234375
4.289129972457886,-1270584282,1,-0.10533247888088226,0.4064844846725464,1.2270476818084717,5.43212890625,-139.70947265625,-31.92138671875
4.289135217666626,-1270584263,1,-0.020371537655591965,0.3234766721725464,1.0964324474334717,-0.67138671875,-142.08984375,-9.82666015625
4.295773029327393,-1270584248,0,-0.1560901403427124,0.1048823893070221,1.0291024446487427,85.8154296875,-81.54296875,-67.32177734375
4.295866250991821,-1270584229,0,-0.1812366247177124,0.1087886393070221,0.9148446321487427,94.8486328125,-88.623046875,-56.7626953125
4.310898065567017,-1270584244,1,0.036269087344408035,0.2548731565475464,1.0046355724334717,-7.080078125,-141.66259765625,0.54931640625
4.325911045074463,-1270584210,0,-0.1673206090927124,0.1371089518070221,0.8337899446487427,94.66552734375,-97.412109375,-48.76708984375
4.345765113830566,-1270584208,1,0.13905228674411774,0.1335352510213852,0.8256804943084717,-22.8271484375,-133.97216796875,7.26318359375
4.345775127410889,-1270584189,1,0.17640580236911774,0.1428125947713852,0.7570769786834717,-25.5126953125,-123.4130859375,11.29150390625
4.355772256851196,-1270584191,0,-0.0923694297671318,0.1903316080570221,0.7571297883987427,91.73583984375,-102.4169921875,-31.79931640625
4.355931282043457,-1270584172,0,-0.050377242267131805,0.1983882486820221,0.6941415071487427,77.880859375,-101.62353515625,-26.7333984375
4.372252941131592,-1270584170,1,0.25038042664527893,0.09813486039638519,0.6818816661834717,-26.55029296875,-114.501953125,24.4140625
4.392428159713745,-1270584153,0,0.017982132732868195,0.2701655924320221,0.6267586946487427,67.32177734375,-100.76904296875,-18.98193359375
4.400764226913452,-1270584151,1,0.34950152039527893,0.04076181724667549,0.6215789318084717,-29.84619140625,-107.2998046875,34.60693359375
4.400796890258789,-1270584132,1,0.41712847352027893,-0.012216698378324509,0.5935027599334717,-33.8134765625,-95.8251953125,32.958984375
4.415518045425415,-1270584134,0,0.0853649452328682,0.2513667643070221,0.6169930696487427,56.5185546875,-92.83447265625,-23.13232421875
4.439687252044678,-1270584113,1,0.47450152039527893,-0.0017186515033245087,0.5798308849334717,-37.841796875,-77.1484375,17.7001953125
4.446001291275024,-1270584115,0,0.1200329139828682,0.2423335611820221,0.6091805696487427,53.89404296875,-80.4443359375,-20.93505859375
4.446213245391846,-1270584096,0,0.1439586877822876,0.2259761393070221,0.5500985383987427,55.96923828125,-68.9697265625,-14.09912109375
4.446230173110962,-1270584077,0,0.1725231409072876,0.2696773111820221,0.5317879915237427,62.01171875,-69.88525390625,2.74658203125
4.4606709480285645,-1270584094,1,0.5077046155929565,0.02831064537167549,0.6259734630584717,-37.65869140625,-61.21826171875,5.79833984375
4.460764169692993,-1270584075,1,0.5619038343429565,0.04564462974667549,0.6457488536834717,-32.470703125,-52.67333984375,11.474609375
4.475528001785278,-1270584058,0,0.2499157190322876,0.2899409830570221,0.5171395540237427,58.53271484375,-75.13427734375,4.82177734375
4.494564056396484,-1270584056,1,0.6444233655929565,0.02318369224667549,0.6623504161834717,-27.83203125,-55.7861328125,22.94921875
4.505594253540039,-1270584022,0,0.3392711877822876,0.3321773111820221,0.4973641335964203,37.53662109375,-50.78125,-3.173828125
4.5208330154418945,-1270584037,1,0.6690815687179565,0.006337989121675491,0.6997039318084717,-30.94482421875,-55.908203125,26.55029296875
4.520864009857178,-1270584018,1,0.6817768812179565,0.007314551621675491,0.7150847911834717,-36.62109375,-57.6171875,15.7470703125
4.5411601066589355,-1270584003,0,0.3524547815322876,0.2938472330570221,0.5134774446487427,23.193359375,-39.97802734375,8.11767578125
4.550798177719116,-1270583999,1,0.6851948499679565,0.02806650474667549,0.7172820568084717,-36.80419921875,-63.1103515625,14.7705078125
4.5509192943573,-1270583980,1,0.7054585218429565,0.03050791099667549,0.6999480724334717,-34.72900390625,-68.66455078125,31.18896484375
4.56569504737854,-1270583984,0,0.3866344690322876,0.2967769205570221,0.5347176790237427,12.939453125,-38.57421875,18.98193359375
4.565827131271362,-1270583965,0,0.4361950159072876,0.2992183268070221,0.5657235383987427,12.5732421875,-38.330078125,32.470703125
4.594787120819092,-1270583946,0,0.4916149377822876,0.3080073893070221,0.5906258821487427,15.68603515625,-36.0107421875,43.51806640625
4.610850095748901,-1270583944,1,0.7425678968429565,-0.03809560462832451,0.7026336193084717,-27.52685546875,-53.1005859375,38.75732421875
4.610956192016602,-1270583925,1,0.7174214124679565,-0.01587880775332451,0.7241179943084717,-23.86474609375,-42.05322265625,21.05712890625
4.625738143920898,-1270583927,0,0.4994274377822876,0.3199702799320221,0.6138192415237427,15.44189453125,-28.4423828125,46.44775390625
4.625837087631226,-1270583908,0,0.5253063440322876,0.3104487955570221,0.6035653352737427,11.41357421875,-16.4794921875,46.08154296875
4.645653963088989,-1270583906,1,0.6717671155929565,0.04662119224667549,0.7114226818084717,-18.37158203125,-41.68701171875,16.05224609375
4.65563702583313,-1270583889,0,0.4647594690322876,0.2701655924320221,0.6062508821487427,1.953125,-7.87353515625,51.57470703125
4.655738115310669,-1270583870,0,0.4488903284072876,0.2037593424320221,0.6816903352737427,-3.0517578125,-15.9912109375,56.33544921875
4.6706109046936035,-1270583887,1,0.6549214124679565,0.04857431724667549,0.6855437755584717,-12.8173828125,-42.1142578125,31.92138671875
4.691939115524292,-1270583851,0,0.4894176721572876,0.2621089518070221,0.7114754915237427,2.01416015625,-26.79443359375,59.08203125
4.700700998306274,-1270583868,1,0.6671284437179565,0.02342783287167549,0.6774871349334717,-9.765625,-39.4287109375,48.76708984375
4.700798988342285,-1270583849,1,0.6934956312179565,-0.009287010878324509,0.6826140880584717,-10.6201171875,-34.912109375,55.60302734375
4.718441009521484,-1270583832,0,0.5560680627822876,0.2938472330570221,0.7090340852737427,2.685546875,-21.66748046875,63.232421875
4.71845006942749,-1270583813,0,0.5702282190322876,0.2743159830570221,0.6760751008987427,-1.708984375,2.8076171875,72.8759765625
4.740200042724609,-1270583830,1,0.6949604749679565,-0.05030263587832451,0.6884734630584717,-6.40869140625,-25.81787109375,50.29296875
4.740208148956299,-1270583811,1,0.6681050062179565,-0.04004872962832451,0.6848113536834717,-3.47900390625,-16.6015625,44.00634765625
4.745821952819824,-1270583794,0,0.4591442346572876,0.2816402018070221,0.6565438508987427,-4.638671875,19.53125,80.01708984375
4.7622389793396,-1270583792,1,0.6641987562179565,-0.02881826087832451,0.6874969005584717,2.50244140625,-7.9345703125,50.048828125
4.762346029281616,-1270583773,1,0.6519917249679565,-0.02613271400332451,0.7253386974334717,7.8125,3.0517578125,57.92236328125
4.775589227676392,-1270583758,0,0.5055309534072876,0.2364741861820221,0.7542001008987427,-8.6669921875,24.90234375,77.69775390625
4.793125152587891,-1270583754,1,0.6583393812179565,-0.0024510733783245087,0.7692840099334717,6.65283203125,11.474609375,64.453125
4.805627107620239,-1270583739,0,0.5609508752822876,0.2704097330570221,0.7563973665237427,-10.80322265625,37.53662109375,87.158203125
4.8057122230529785,-1270583720,0,0.4982067346572876,0.2867671549320221,0.7187997102737427,-14.34326171875,54.50439453125,85.9375
4.820839881896973,-1270583735,1,0.6634663343429565,0.0012110359966754913,0.7868621349334717,5.615234375,11.71875,72.8759765625
4.820894002914429,-1270583716,1,0.6558979749679565,-0.008066307753324509,0.7829558849334717,6.4697265625,11.3525390625,80.50537109375
4.8421361446380615,-1270583701,0,0.4103161096572876,0.2435542643070221,0.6699715852737427,-12.51220703125,62.92724609375,82.45849609375
4.850523233413696,-1270583680,1,0.6368550062179565,0.011464942246675491,0.8063933849334717,18.00537109375,24.658203125,93.017578125
4.865682125091553,-1270583682,0,0.3651500940322876,0.1827632486820221,0.6533700227737427,-12.39013671875,58.65478515625,77.94189453125
4.865754127502441,-1270583663,0,0.4122692346572876,0.1957027018070221,0.7227059602737427,-13.7939453125,53.28369140625,80.9326171875
4.890332937240601,-1270583661,1,0.6558979749679565,0.014150489121675491,0.8339812755584717,24.59716796875,37.29248046875,98.2666015625
4.896170139312744,-1270583644,0,0.4701305627822876,0.2293941080570221,0.8215829133987427,-20.751953125,61.21826171875,87.58544921875
4.910851240158081,-1270583642,1,0.6351460218429565,0.014150489121675491,0.8876922130584717,32.28759765625,48.2177734375,106.0791015625
4.910968065261841,-1270583623,1,0.6353901624679565,-0.011728417128324509,0.8925750255584717,41.6259765625,43.3349609375,121.4599609375
4.926034212112427,-1270583625,0,0.5199352502822876,0.3038569986820221,0.8311043977737427,-20.81298828125,84.228515625,97.65625
4.926141023635864,-1270583606,0,0.5506969690322876,0.3839351236820221,0.8218270540237427,-18.1884765625,103.271484375,91.4306640625
4.946068048477173,-1270583604,1,0.6732319593429565,-0.05738271400332451,0.8889129161834717,54.0771484375,41.32080078125,141.78466796875
4.955612897872925,-1270583587,0,0.5900036096572876,0.3702632486820221,0.8423348665237427,-18.00537109375,114.19677734375,65.36865234375
4.9556872844696045,-1270583568,0,0.6349254846572876,0.2176753580570221,0.9758797883987427,-27.099609375,83.55712890625,40.283203125
4.970625162124634,-1270583585,1,0.7054585218429565,-0.08399404585361481,0.9035613536834717,65.00244140625,53.64990234375,148.49853515625
4.970754146575928,-1270583566,1,0.7257221937179565,-0.07984365522861481,0.9448211193084717,76.7822265625,75.927734375,142.51708984375
4.99391508102417,-1270583549,0,0.6857067346572876,0.1976558268070221,1.1868172883987427,-21.728515625,34.66796875,37.9638671875
5.000749111175537,-1270583547,1,0.7440327405929565,-0.07300771772861481,0.9968230724334717,80.26123046875,88.623046875,151.30615234375
5.000897169113159,-1270583528,1,0.8028706312179565,-0.10499013960361481,1.0266082286834717,85.14404296875,85.26611328125,174.62158203125
5.015548944473267,-1270583530,0,0.7208629846572876,0.2210933268070221,1.3145028352737427,5.18798828125,24.0478515625,56.33544921875
5.040286064147949,-1270583509,1,0.9173725843429565,-0.2043553739786148,1.0251433849334717,96.0693359375,82.51953125,189.39208984375
5.045741081237793,-1270583494,0,0.9559704065322876,0.2582027018070221,1.3264657258987427,45.59326171875,30.029296875,43.212890625
5.060741186141968,-1270583490,1,1.0272358655929565,-0.3039647340774536,0.9875457286834717,107.36083984375,92.7734375,179.3212890625
5.064298152923584,-1270583471,1,1.0963276624679565,-0.3823338747024536,0.9929168224334717,131.34765625,121.58203125,149.4140625
5.075619220733643,-1270583475,0,1.1512829065322876,0.1944819986820221,1.2063485383987427,54.74853515625,34.11865234375,44.37255859375
5.075715065002441,-1270583456,0,1.2845836877822876,0.1485835611820221,1.2427254915237427,57.373046875,32.65380859375,82.82470703125
5.094862222671509,-1270583452,1,1.1446675062179565,-0.3877049684524536,1.0344207286834717,141.05224609375,134.94873046875,134.1552734375
5.1073291301727295,-1270583437,0,1.3851696252822876,0.2230464518070221,1.3081551790237427,57.4951171875,13.5498046875,92.1630859375
5.107337951660156,-1270583418,0,1.5399547815322876,0.2391597330570221,1.2842293977737427,45.7763671875,9.09423828125,62.31689453125
5.12090802192688,-1270583416,1,1.3563374280929565,-0.5761815309524536,1.1962859630584717,121.27685546875,123.291015625,124.8779296875
5.140803098678589,-1270583399,0,1.7089000940322876,0.1258784830570221,1.2571297883987427,37.59765625,11.3525390625,49.560546875
5.150640249252319,-1270583397,1,1.5162495374679565,-0.7185155153274536,1.3122527599334717,120.2392578125,97.35107421875,97.900390625
5.150797128677368,-1270583378,1,1.5855854749679565,-0.8327733278274536,1.3832976818084717,126.8310546875,66.46728515625,63.04931640625
5.1659650802612305,-1270583380,0,1.7018200159072876,0.051171451807022095,1.1919442415237427,40.83251953125,27.40478515625,58.2275390625
5.166022300720215,-1270583361,0,1.7352672815322876,0.018944889307022095,1.0239754915237427,54.5654296875,41.015625,43.5791015625
5.1897993087768555,-1270583359,1,1.6383198499679565,-0.9421483278274536,1.3774383068084717,142.27294921875,23.74267578125,18.12744140625
5.197226047515869,-1270583342,0,1.6112438440322876,-0.0630863606929779,0.8943368196487427,63.17138671875,44.921875,2.01416015625
5.210903167724609,-1270583340,1,1.5892475843429565,-1.1198827028274536,1.4047820568084717,159.60693359375,11.1083984375,-12.0849609375
5.210999011993408,-1270583321,1,1.5216206312179565,-1.1953221559524536,1.4587371349334717,172.54638671875,-4.5166015625,-34.5458984375
5.225643157958984,-1270583323,0,1.5306774377822876,-0.2054203450679779,0.8232918977737427,82.70263671875,27.89306640625,-30.8837890625
5.2257080078125,-1270583304,0,1.5109020471572876,-0.2144535481929779,0.7869149446487427,103.33251953125,16.29638671875,-44.677734375
5.244528293609619,-1270583302,1,1.4244526624679565,-1.2463475465774536,1.4516570568084717,177.6123046875,-36.0107421875,-52.8564453125
5.2555320262908936,-1270583285,0,1.4491344690322876,-0.2352055013179779,0.7397958040237427,108.5205078125,19.59228515625,-52.001953125
5.270612001419067,-1270583283,1,1.2232807874679565,-1.3215428590774536,1.3498504161834717,185.6689453125,-80.9326171875,-89.05029296875
5.270718097686768,-1270583264,1,0.9505757093429565,-1.3286229372024536,1.2556121349334717,198.8525390625,-94.3603515625,-136.474609375
5.294059991836548,-1270583266,0,1.3407360315322876,-0.1929691731929779,0.6570321321487427,100.4638671875,30.6396484375,-77.08740234375
5.314774990081787,-1270583230,0,0.9230114221572876,-0.5064457654953003,0.6526376008987427,98.69384765625,26.123046875,-122.25341796875
5.315653085708618,-1270583211,0,0.7462536096572876,-0.4625004231929779,0.6882821321487427,136.04736328125,18.37158203125,-110.595703125
5.3400421142578125,-1270583245,1,0.6756733655929565,-1.2409764528274536,1.2419402599334717,240.29541015625,-78.30810546875,-182.2509765625
5.340817213058472,-1270583226,1,0.44642534852027893,-1.1347752809524536,1.2145965099334717,273.3154296875,-75.25634765625,-205.38330078125
5.340824127197266,-1270583207,1,0.18543900549411774,-0.9926854372024536,1.0959441661834717,278.6865234375,-105.40771484375,-220.0927734375
5.345543146133423,-1270583192,0,0.5931774377822876,-0.4280765950679779,0.6272469758987427,169.3115234375,5.06591796875,-107.5439453125
5.360534191131592,-1270583188,1,-0.037217240780591965,-0.8874608278274536,0.8850066661834717,255.92041015625,-147.8271484375,-222.7783203125
5.375776052474976,-1270583173,0,0.4518200159072876,-0.3904789388179779,0.5723153352737427,185.302734375,-12.939453125,-116.3330078125
5.375877141952515,-1270583154,0,0.2855602502822876,-0.3516605794429779,0.5286141633987427,194.091796875,-38.6962890625,-135.07080078125
5.393049240112305,-1270583152,1,-0.33360394835472107,-0.6460057497024536,0.5820281505584717,195.3125,-189.697265625,-226.07421875
5.405439138412476,-1270583135,0,0.1417614221572876,-0.2676762044429779,0.4644051492214203,199.89013671875,-67.81005859375,-138.3056640625
5.42073130607605,-1270583133,1,-0.44322308897972107,-0.5105077028274536,0.49364927411079407,180.84716796875,-197.265625,-229.67529296875
5.420849323272705,-1270583114,1,-0.48960980772972107,-0.4040623903274536,0.41576841473579407,173.64501953125,-200.62255859375,-235.41259765625
5.443143129348755,-1270583116,0,0.024085648357868195,-0.1456058919429779,0.3655281960964203,205.38330078125,-103.33251953125,-137.939453125
5.451991081237793,-1270583095,1,-0.6617289781570435,-0.2468358427286148,0.36181333661079407,167.17529296875,-210.5712890625,-247.1923828125
5.465714931488037,-1270583097,0,-0.056480757892131805,-0.017187923192977905,0.2622567117214203,199.64599609375,-140.380859375,-141.11328125
5.465841293334961,-1270583078,0,-0.1609729528427124,0.011620670557022095,0.1687508523464203,181.0302734375,-195.37353515625,-148.62060546875
5.466905117034912,-1270583059,0,-0.2681506872177124,0.050683170557022095,0.10942468792200089,174.4384765625,-237.9150390625,-131.40869140625
5.490966081619263,-1270583076,1,-0.7464457750320435,-0.1318456083536148,0.29638364911079407,150.81787109375,-231.14013671875,-251.03759765625
5.490972995758057,-1270583057,1,-0.7967387437820435,-0.03638662025332451,0.19750668108463287,132.8125,-250.42724609375,-242.85888671875
5.497384071350098,-1270583040,0,-0.3887561559677124,0.1905757486820221,0.044483281672000885,170.59326171875,-259.70458984375,-114.013671875
5.5250632762908936,-1270583021,0,-0.7615588903427124,0.1952144205570221,0.1414071023464203,149.23095703125,-248.6572265625,-114.8681640625
5.525978088378906,-1270583002,0,-0.6441272497177124,0.3719722330570221,-0.1959952414035797,112.9150390625,-275.7568359375,-113.8916015625
5.545777320861816,-1270583038,1,-0.8255473375320435,0.009755957871675491,0.13232113420963287,108.45947265625,-256.53076171875,-229.98046875
5.545786142349243,-1270583019,1,-1.0320903062820435,0.07835946977138519,-0.021243315190076828,86.0595703125,-193.7255859375,-259.46044921875
5.545791149139404,-1270583000,1,-0.9644633531570435,0.10985361039638519,-0.24902652204036713,55.7861328125,-186.767578125,-232.91015625
5.5697021484375,-1270582981,1,-1.0071879625320435,0.2795313596725464,-0.17212222516536713,14.70947265625,-140.380859375,-179.01611328125
5.570572137832642,-1270582962,1,-1.1043559312820435,0.4465235471725464,-0.08008120954036713,-60.546875,-112.73193359375,-116.943359375
5.591655969619751,-1270582966,0,-0.5327991247177124,0.3536616861820221,0.07255945354700089,-12.3291015625,-244.32373046875,-143.06640625
5.59166407585144,-1270582947,0,-0.6192249059677124,0.3553706705570221,0.09013757854700089,-61.95068359375,-235.41259765625,-137.39013671875
5.60063624382019,-1270582943,1,-1.0723735094070435,0.4506739377975464,-0.011965971440076828,-100.89111328125,-124.69482421875,-71.71630859375
5.615797996520996,-1270582928,0,-0.5940784215927124,0.3783198893070221,0.1348153054714203,-75.13427734375,-239.19677734375,-121.39892578125
5.615870952606201,-1270582909,0,-0.4849475622177124,0.4349605143070221,0.2107430398464203,-89.599609375,-249.81689453125,-99.365234375
5.64046311378479,-1270582924,1,-1.0845805406570435,0.4609278440475464,0.04955746605992317,-129.7607421875,-115.478515625,-40.10009765625
5.645535945892334,-1270582890,0,-0.3582385778427124,0.5050288438796997,0.3970223367214203,-124.51171875,-260.986328125,-97.65625
5.6608052253723145,-1270582888,1,-1.0364848375320435,0.5309962034225464,0.21142269670963287,-176.57470703125,-63.53759765625,-16.9677734375
5.660948991775513,-1270582869,1,-1.0635844469070435,0.5485743284225464,0.41308286786079407,-213.2568359375,-45.8984375,10.7421875
5.675678968429565,-1270582871,0,-0.3255237340927124,0.5531245470046997,0.6299325227737427,-195.068359375,-278.076171875,-83.3740234375
5.675795078277588,-1270582852,0,-0.1719592809677124,0.5641108751296997,0.8613778352737427,-264.0380859375,-297.9736328125,-61.279296875
5.692958116531372,-1270582850,1,-1.0049906969070435,0.6310938596725464,0.7387664318084717,-214.90478515625,-40.6494140625,30.8837890625
5.705588102340698,-1270582833,0,0.010169632732868195,0.5436030626296997,1.1372567415237427,-316.0400390625,-296.20361328125,-30.21240234375
5.720686197280884,-1270582831,1,-0.9141703844070435,0.6359766721725464,0.8290984630584717,-227.47802734375,-49.74365234375,44.3115234375
5.720798015594482,-1270582812,1,-0.8055278062820435,0.6164454221725464,0.9404265880584717,-258.48388671875,-80.38330078125,68.17626953125
5.741777181625366,-1270582814,0,0.057288773357868195,0.4811030924320221,1.3879891633987427,-323.66943359375,-257.38525390625,-3.47900390625
5.741785049438477,-1270582795,0,0.1268688440322876,0.3939448893070221,1.6597176790237427,-291.44287109375,-224.42626953125,40.95458984375
5.750564098358154,-1270582793,1,-0.6856547594070435,0.7641505002975464,0.9816863536834717,-293.76220703125,-92.529296875,108.7646484375
5.765860080718994,-1270582776,0,0.2042614221572876,0.3763667643070221,1.8281747102737427,-254.94384765625,-192.93212890625,98.44970703125
5.789827108383179,-1270582774,1,-0.6522074937820435,0.7997950315475464,1.2568328380584717,-302.67333984375,-78.125,135.986328125
5.789834976196289,-1270582755,1,-0.6641703844070435,0.8723047971725464,1.4653289318084717,-299.86572265625,-77.0263671875,192.68798828125
5.795550107955933,-1270582757,0,0.3885875940322876,0.4105464518070221,2.069873809814453,-228.69873046875,-129.33349609375,180.60302734375
5.795659065246582,-1270582738,0,0.6720348596572876,0.4320308268070221,2.045703887939453,-234.7412109375,-48.2177734375,242.73681640625
5.810882091522217,-1270582736,1,-0.36924847960472107,0.6996973752975464,1.6311004161834717,-289.0625,-102.294921875,270.3857421875
5.843601226806641,-1270582717,1,0.0023335404694080353,0.4738672971725464,1.6865203380584717,-229.18701171875,-76.0498046875,310.48583984375
5.8436479568481445,-1270582698,1,0.27870073914527893,0.3871973752975464,1.8813445568084717,-175.4150390625,-33.87451171875,285.7666015625
5.855762958526611,-1270582702,0,0.9247204065322876,0.0780269205570221,1.6775399446487427,-283.203125,37.04833984375,364.501953125
5.855831146240234,-1270582683,0,1.1818004846572876,-0.1902836263179779,1.6069833040237427,-266.6015625,8.36181640625,460.5712890625
5.870703220367432,-1270582679,1,0.45301714539527893,0.2831934690475464,1.9155242443084717,-138.18359375,-23.8037109375,268.12744140625
5.870809078216553,-1270582660,1,0.6986225843429565,0.2521876096725464,1.7429168224334717,-101.98974609375,-24.96337890625,260.68115234375
5.894911050796509,-1270582664,0,1.4806286096572876,-0.3514164388179779,1.6206551790237427,-231.5673828125,-19.83642578125,525.45166015625
5.914908170700073,-1270582645,0,1.7545543909072876,-0.5484379529953003,1.6714364290237427,-175.10986328125,-0.9765625,601.6845703125
5.915734052658081,-1270582626,0,2.144691228866577,-0.7073734998703003,1.6997567415237427,-136.3525390625,40.10009765625,698.1201171875
5.915842056274414,-1270582607,0,2.475501775741577,-0.8682621717453003,1.7266122102737427,-104.8583984375,77.63671875,765.19775390625
5.939507007598877,-1270582624,1,1.0155171155929565,0.1733301728963852,1.4587371349334717,-45.95947265625,24.7802734375,261.962890625
5.939515113830566,-1270582605,1,1.2181538343429565,0.1933497041463852,1.3493621349334717,-35.09521484375,43.51806640625,261.90185546875
5.945564270019531,-1270582588,0,2.583167791366577,-0.9578617811203003,1.5828133821487427,-38.9404296875,130.37109375,776.611328125
5.960541009902954,-1270582586,1,1.4561909437179565,0.1525782197713852,1.2014129161834717,-3.41796875,65.0634765625,262.3291015625
5.975643157958984,-1270582569,0,2.271156072616577,-0.7002934217453003,1.1318856477737427,75.439453125,135.55908203125,671.81396484375
5.975736141204834,-1270582550,0,1.7992321252822876,-0.2349613606929779,0.6169930696487427,185.6689453125,87.09716796875,496.09375
5.994976997375488,-1270582567,1,1.4959858655929565,0.1630762666463852,1.0239226818084717,42.48046875,106.3232421875,252.01416015625
5.994986057281494,-1270582548,1,1.6305073499679565,-0.4526463747024536,0.9577605724334717,72.8759765625,133.544921875,221.435546875
6.005537033081055,-1270582531,0,1.6354137659072876,-0.014258235692977905,0.6187020540237427,240.53955078125,30.94482421875,358.21533203125
6.020650148391724,-1270582529,1,1.3922260999679565,0.03905283287167549,0.8674285411834717,207.09228515625,84.47265625,179.13818359375
6.020771026611328,-1270582510,1,1.3526753187179565,0.005361426621675491,1.0307586193084717,368.95751953125,144.53125,47.2412109375
6.042762994766235,-1270582512,0,1.9542614221572876,0.1788569986820221,0.3813973367214203,298.2177734375,-57.2509765625,288.4521484375
6.042772054672241,-1270582493,0,1.3541637659072876,0.2035152018070221,0.8591805696487427,283.3251953125,-13.5498046875,127.99072265625
6.050799131393433,-1270582491,1,0.22108353674411774,-0.1391698271036148,0.6584441661834717,410.21728515625,250.67138671875,36.80419921875
6.065692901611328,-1270582474,0,1.0255504846572876,-0.1568363606929779,0.6172372102737427,271.05712890625,46.630859375,-5.615234375
6.090574026107788,-1270582472,1,0.49745073914527893,-0.09571279585361481,1.0034148693084717,410.15625,171.81396484375,27.16064453125
6.090580940246582,-1270582453,1,0.23963822424411774,-0.0014745108783245087,0.7236297130584717,324.0966796875,25.390625,-24.0478515625
6.095767021179199,-1270582438,0,0.4510875940322876,-0.3326176106929779,0.4763680398464203,275.93994140625,-14.6484375,-82.45849609375
6.110894203186035,-1270582434,1,0.26039019227027893,0.05760752037167549,0.6503875255584717,212.21923828125,-74.462890625,-42.54150390625
6.125877141952515,-1270582419,0,0.2164684534072876,-0.0979984700679779,0.4343758523464203,271.1181640625,-107.84912109375,-135.3759765625
6.125977039337158,-1270582400,0,0.0721813514828682,0.0836421549320221,0.6223641633987427,284.72900390625,-222.22900390625,-216.61376953125
6.144567012786865,-1270582415,1,0.25550737977027893,0.3510645627975464,0.5522429943084717,185.11962890625,-113.8916015625,-140.625
6.144575119018555,-1270582396,1,-0.5198832750320435,-9.667128324508667e-06,0.40136411786079407,128.11279296875,-95.27587890625,-8.544921875
6.155620098114014,-1270582381,0,0.0734020546078682,0.1444331705570221,0.8005868196487427,335.205078125,-312.98828125,-279.47998046875
6.17063307762146,-1270582360,1,-0.41001996397972107,0.3920801877975464,0.25414732098579407,189.5751953125,-27.7099609375,-154.60205078125
6.192668914794922,-1270582362,0,-0.0747913047671318,0.2066890299320221,0.9900399446487427,373.59619140625,-377.13623046875,-294.73876953125
6.195197105407715,-1270582343,0,0.023597367107868195,0.3548823893070221,0.9971200227737427,389.404296875,-393.85986328125,-264.2822265625
6.20068097114563,-1270582341,1,-0.5508891344070435,0.5429590940475464,0.28637388348579407,114.8681640625,-83.0078125,-121.4599609375
6.215997934341431,-1270582324,0,0.060462601482868195,0.7003413438796997,0.8354989290237427,324.52392578125,-412.9638671875,-286.07177734375
6.232290029525757,-1270582322,1,-0.6273051500320435,0.6518458127975464,0.42553403973579407,23.4375,-158.75244140625,-73.42529296875
6.232298135757446,-1270582303,1,-0.6097270250320435,0.6640528440475464,0.40771177411079407,5.18798828125,-196.533203125,-54.26025390625
6.247854232788086,-1270582305,0,0.0651012733578682,0.6749507188796997,0.6948739290237427,220.27587890625,-423.33984375,-312.43896484375
6.247862100601196,-1270582286,0,0.053626663982868195,0.5094233751296997,0.6323739290237427,159.1796875,-432.31201171875,-311.6455078125
6.260611057281494,-1270582284,1,-0.5958110094070435,0.7829493284225464,0.32665708661079407,10.8642578125,-175.1708984375,-50.59814453125
6.276329040527344,-1270582267,0,-0.037193648517131805,0.4151851236820221,0.5364266633987427,87.2802734375,-431.15234375,-280.029296875
6.2763378620147705,-1270582248,0,-0.020592086017131805,0.3172847330570221,0.5417977571487427,50.537109375,-415.58837890625,-251.03759765625
6.294635057449341,-1270582265,1,-0.5689555406570435,0.8879297971725464,0.29247739911079407,6.2255859375,-138.73291015625,-5.37109375
6.294645071029663,-1270582246,1,-0.27549847960472107,0.7609766721725464,0.38549497723579407,-43.45703125,-147.4609375,23.3154296875
6.30585503578186,-1270582229,0,-0.029869429767131805,0.2345210611820221,0.5549813508987427,17.63916015625,-399.0478515625,-209.1064453125
6.320710182189941,-1270582227,1,-0.08165083825588226,0.5273340940475464,0.32104185223579407,-101.1962890625,-166.9921875,28.3203125
6.32082724571228,-1270582208,1,0.07728470861911774,0.3498438596725464,0.21630550920963287,-139.6484375,-175.59814453125,15.19775390625
6.342144966125488,-1270582210,0,0.041907913982868195,0.2520991861820221,0.5688973665237427,-13.3056640625,-383.60595703125,-176.20849609375
6.364466905593872,-1270582174,0,0.1024547889828682,0.2469722330570221,0.7131844758987427,-169.37255859375,-276.85546875,-61.34033203125
6.389008283615112,-1270582189,1,0.10755814611911774,0.09715829789638519,0.12182308733463287,-152.9541015625,-124.45068359375,7.01904296875
6.389016151428223,-1270582170,1,0.14637650549411774,0.07982431352138519,0.18505550920963287,-158.447265625,-68.4814453125,39.85595703125
6.38978910446167,-1270582151,1,0.09998978674411774,-0.01978505775332451,0.27245786786079407,-199.3408203125,-74.52392578125,58.41064453125
6.39560604095459,-1270582155,0,-0.015465132892131805,0.1495601236820221,0.8843270540237427,-226.318359375,-212.58544921875,5.126953125
6.395716190338135,-1270582136,0,-0.1104358360171318,0.1576167643070221,1.1023446321487427,-204.4677734375,-162.7197265625,75.86669921875
6.410867929458618,-1270582132,1,0.034804243594408035,0.08275400102138519,0.5205047130584717,-261.71875,-93.75,74.951171875
6.425914287567139,-1270582117,0,-0.004722945392131805,0.2337886393070221,1.1689950227737427,-141.2353515625,-128.84521484375,160.2783203125
6.425970077514648,-1270582098,0,0.1317516565322876,0.3426753580570221,1.2524911165237427,-137.02392578125,-100.03662109375,232.97119140625
6.443231105804443,-1270582096,1,-0.17930708825588226,0.4724024534225464,1.1264617443084717,-302.978515625,-93.1396484375,131.8359375
6.455657005310059,-1270582079,0,0.2950817346572876,0.4925777018070221,1.3569833040237427,-169.73876953125,-24.23095703125,322.20458984375
6.470664024353027,-1270582077,1,-0.052598100155591965,0.5222071409225464,1.3430144786834717,-310.6689453125,-102.1728515625,186.09619140625
6.4707770347595215,-1270582058,1,0.27699175477027893,0.5427149534225464,1.5109832286834717,-309.14306640625,-118.5302734375,252.25830078125
6.492431163787842,-1270582060,0,0.4347301721572876,0.6610347032546997,1.2688485383987427,-184.99755859375,52.91748046875,403.86962890625
6.492439031600952,-1270582041,0,0.5946422815322876,0.6415034532546997,0.9290047883987427,-205.13916015625,121.826171875,516.357421875
6.500646114349365,-1270582039,1,0.9061421155929565,0.1774805635213852,1.6408660411834717,-296.875,-142.15087890625,289.36767578125
6.515485048294067,-1270582022,0,0.7718883752822876,0.4730464518070221,0.9653817415237427,-288.0859375,183.7158203125,631.9580078125
6.540873050689697,-1270582020,1,1.2457417249679565,-0.1589452177286148,1.7248504161834717,-266.66259765625,-136.5966796875,292.236328125
6.5408830642700195,-1270582001,1,1.8783100843429565,-0.3510838747024536,1.9182097911834717,-127.38037109375,-57.0068359375,304.8095703125
6.5455851554870605,-1270582003,0,1.3890758752822876,0.4598628580570221,1.2290536165237427,-430.2978515625,280.029296875,739.990234375
6.545675039291382,-1270581984,0,2.183509588241577,0.2013179361820221,1.9360848665237427,-429.62646484375,367.5537109375,689.8193359375
6.578118085861206,-1270581965,0,1.9603649377822876,0.049706608057022095,1.7388192415237427,-149.23095703125,251.15966796875,408.935546875
6.596219301223755,-1270581982,1,2.301650047302246,-0.6508885622024536,1.8986785411834717,41.259765625,97.5341796875,149.47509765625
6.596229076385498,-1270581963,1,2.039443016052246,-0.7595311403274536,1.6003386974334717,108.82568359375,79.77294921875,83.251953125
6.605818271636963,-1270581946,0,1.5585094690322876,-0.0879887044429779,1.3145028352737427,126.0986328125,13.36669921875,134.1552734375
6.621261119842529,-1270581944,1,1.8177632093429565,-0.7194920778274536,1.0549285411834717,125.244140625,31.06689453125,50.10986328125
6.621272087097168,-1270581925,1,1.3519428968429565,-0.8906346559524536,0.7851531505584717,170.71533203125,100.64697265625,8.72802734375
6.621875047683716,-1270581906,1,1.3233784437179565,-1.2085057497024536,1.1176726818084717,372.00927734375,223.5107421875,-66.650390625
6.641634225845337,-1270581910,0,1.2096325159072876,-0.4292972981929779,1.4888192415237427,241.8212890625,-64.27001953125,10.19287109375
6.641643047332764,-1270581891,0,1.0216442346572876,-0.3733890950679779,1.3367196321487427,181.09130859375,181.94580078125,2.38037109375
6.650482892990112,-1270581887,1,1.1466206312179565,-1.0798436403274536,1.4631316661834717,556.5185546875,212.40234375,-212.40234375
6.665493011474609,-1270581872,0,0.5536266565322876,-0.5691899061203003,1.0757333040237427,137.14599609375,239.44091796875,-30.3955078125
6.6898722648620605,-1270581868,1,0.29798784852027893,-0.6345311403274536,0.8669402599334717,515.13671875,168.45703125,-254.21142578125
6.69578218460083,-1270581853,0,0.1886364221572876,-0.7176274061203003,0.7788583040237427,178.40576171875,171.2646484375,-58.59375
6.695903062820435,-1270581834,0,0.0814586952328682,-0.4961918294429779,0.6958504915237427,263.18359375,67.87109375,-93.68896484375
6.710883140563965,-1270581832,1,0.21156205236911774,-0.4499608278274536,0.09985043108463287,239.8681640625,-29.1748046875,-203.91845703125
6.725921154022217,-1270581815,0,-0.008385054767131805,-0.3406742513179779,0.5391122102737427,337.646484375,-24.658203125,-126.3427734375
6.743843078613281,-1270581813,1,0.13246048986911774,-0.3813573122024536,0.03564145043492317,228.515625,-47.119140625,-308.77685546875
6.743851184844971,-1270581794,1,-0.7662211656570435,0.1830957978963852,-0.05664370581507683,268.1884765625,60.302734375,-322.69287109375
6.755676984786987,-1270581796,0,-0.1253284215927124,-0.2859867513179779,0.4902840554714203,402.77099609375,-104.3701171875,-141.6015625
6.755772113800049,-1270581777,0,-0.1568225622177124,-0.2146976888179779,0.3499031960964203,460.14404296875,-173.4619140625,-155.517578125
6.770588159561157,-1270581775,1,-1.4571391344070435,0.8972071409225464,0.15234066545963287,267.15087890625,67.87109375,-143.12744140625
6.792402267456055,-1270581758,0,-0.3767932653427124,-0.0755375325679779,0.1948738992214203,448.66943359375,-299.37744140625,-187.43896484375
6.7924110889434814,-1270581739,0,-0.3997424840927124,0.054101139307022095,0.08354578167200089,403.9306640625,-405.2734375,-144.34814453125
6.800700902938843,-1270581756,1,-1.1544047594070435,0.7233790159225464,0.39672544598579407,227.72216796875,-80.26123046875,52.67333984375
6.800776958465576,-1270581737,1,-1.6839457750320435,2.169667959213257,-0.37646791338920593,155.8837890625,-169.7998046875,145.99609375
6.815526247024536,-1270581720,0,-0.3106311559677124,0.0985347330570221,0.3562508523464203,327.45361328125,-455.078125,-112.9150390625
6.8403661251068115,-1270581718,1,0.009413618594408035,0.6877344846725464,-0.39721986651420593,103.94287109375,-130.92041015625,80.26123046875
6.840373992919922,-1270581699,1,-0.19957076013088226,0.5390528440475464,-0.26318666338920593,144.83642578125,16.66259765625,-80.810546875
6.845585107803345,-1270581701,0,-0.2271350622177124,0.2669917643070221,0.4534188210964203,279.541015625,-464.78271484375,-146.3623046875
6.845669269561768,-1270581682,0,-0.2010120153427124,0.2696773111820221,0.3091317117214203,229.98046875,-443.115234375,-195.068359375
6.860483169555664,-1270581680,1,-0.44517621397972107,0.6125391721725464,-0.43359681963920593,80.99365234375,3.90625,-117.7978515625
6.89501690864563,-1270581661,1,-0.5860453844070435,0.6567286252975464,-0.5056183338165283,-54.13818359375,-61.1572265625,-67.87109375
6.896085023880005,-1270581642,1,-0.37925824522972107,0.4462794065475464,-0.34204408526420593,-220.947265625,-152.34375,-7.50732421875
6.905774116516113,-1270581646,0,-0.0974963828921318,0.2813960611820221,0.3145028054714203,73.486328125,-395.263671875,-139.5263671875
6.90584921836853,-1270581627,0,0.006507523357868195,0.4090816080570221,0.3984871804714203,-31.982421875,-307.7392578125,-85.14404296875
6.920506238937378,-1270581623,1,-0.047715287655591965,0.09203134477138519,-0.11328433454036713,-283.14208984375,-148.193359375,-54.01611328125
6.942444086074829,-1270581608,0,0.019202835857868195,0.5567866563796997,0.4299813210964203,-133.23974609375,-206.787109375,-28.62548828125
6.9430742263793945,-1270581589,0,-0.025719039142131805,0.4732905924320221,0.5542489290237427,-241.14990234375,-99.42626953125,64.88037109375
6.95059609413147,-1270581604,1,-0.14073286950588226,0.1887110322713852,0.34521177411079407,-260.1318359375,-83.43505859375,-123.4130859375
6.967206239700317,-1270581570,0,0.0694958046078682,0.5614253282546997,0.7739754915237427,-265.869140625,-31.8603515625,157.16552734375
6.991098165512085,-1270581568,1,-0.41490277647972107,0.3244532346725464,0.8640105724334717,-253.41796875,-131.34765625,40.22216796875
6.991107225418091,-1270581549,1,-0.16880904138088226,0.04540048912167549,0.9086883068084717,-262.63427734375,-148.5595703125,64.697265625
6.995629072189331,-1270581551,0,0.2977672815322876,0.6776362657546997,0.9133797883987427,-228.08837890625,1.8310546875,247.314453125
6.9957311153411865,-1270581532,0,0.5563122034072876,0.8517085313796997,0.9028817415237427,-203.61328125,36.56005859375,301.8798828125
7.010695934295654,-1270581530,1,-0.23130904138088226,0.2995508909225464,1.0483367443084717,-289.97802734375,-147.94921875,97.71728515625
7.025757074356079,-1270581513,0,0.9481579065322876,1.0831538438796997,0.8408700227737427,-239.68505859375,94.482421875,330.4443359375
7.043705224990845,-1270581511,1,-0.34190472960472107,0.5417383909225464,1.3762176036834717,-276.4892578125,-173.7060546875,143.6767578125
7.043715238571167,-1270581492,1,-0.12486372888088226,0.4138087034225464,1.2475554943084717,-241.02783203125,-142.9443359375,241.14990234375
7.0556321144104,-1270581494,0,1.2067028284072876,1.1693354845046997,0.8508797883987427,-290.771484375,136.23046875,339.84375
7.055765151977539,-1270581475,0,1.2762829065322876,1.1324702501296997,0.7622567415237427,-268.5546875,128.90625,376.708984375
7.070566177368164,-1270581473,1,0.20179642736911774,0.2255762666463852,1.5512664318084717,-225.830078125,-114.68505859375,292.236328125
7.091833114624023,-1270581456,0,1.5516735315322876,1.2403804063796997,1.0715829133987427,-227.84423828125,135.31494140625,433.59375
7.100708246231079,-1270581454,1,0.39442339539527893,0.4101465940475464,1.4790008068084717,-233.09326171875,-151.67236328125,354.8583984375
7.100841045379639,-1270581435,1,1.0409077405929565,0.05125986412167549,1.2026336193084717,-275.7568359375,-231.4453125,434.50927734375
7.115683078765869,-1270581437,0,1.8006969690322876,1.1651850938796997,1.2456551790237427,-222.412109375,220.703125,472.7783203125
7.115793228149414,-1270581418,0,2.167152166366577,0.8900386095046997,1.2551766633987427,-238.76953125,280.8837890625,476.25732421875
7.141221284866333,-1270581416,1,1.5794819593429565,-0.3359471559524536,1.1447722911834717,-270.32470703125,-265.56396484375,465.9423828125
7.14659309387207,-1270581382,0,1.8236461877822876,0.7892085313796997,1.1484872102737427,-186.34033203125,269.22607421875,321.59423828125
7.1609179973602295,-1270581397,1,2.436659812927246,-1.0295506715774536,1.1120574474334717,-126.5869140625,-145.8740234375,351.25732421875
7.161010026931763,-1270581378,1,2.477187156677246,-1.3300877809524536,1.1174285411834717,20.6298828125,-41.80908203125,200.68359375
7.175559997558594,-1270581363,0,1.5782848596572876,0.1800777018070221,0.9487801790237427,-106.689453125,218.20068359375,233.2763671875
7.194730997085571,-1270581359,1,2.282118797302246,-1.2961522340774536,0.7490203380584717,88.8671875,-46.20361328125,90.75927734375
7.194740056991577,-1270581340,1,1.8446186780929565,-1.0786229372024536,0.46630552411079407,59.14306640625,-81.60400390625,46.875
7.205615282058716,-1270581344,0,1.5104137659072876,-0.051123470067977905,1.0435067415237427,17.9443359375,179.99267578125,151.06201171875
7.205714225769043,-1270581325,0,1.1869274377822876,-0.2176273763179779,0.8674813508987427,102.5390625,126.15966796875,-4.57763671875
7.24191427230835,-1270581306,0,0.3942028284072876,-0.5970219373703003,0.3081551492214203,192.2607421875,-3.2958984375,-66.2841796875
7.2507030963897705,-1270581304,1,1.3114155530929565,-1.2343846559524536,0.43041685223579407,191.7724609375,16.90673828125,-95.947265625
7.250808238983154,-1270581285,1,0.9359272718429565,-1.1186619997024536,0.22460629045963287,278.1982421875,63.65966796875,-185.36376953125
7.265624046325684,-1270581287,0,0.1219860389828682,-0.8287113904953003,1.4404793977737427,197.20458984375,60.60791015625,-7.2021484375
7.265685081481934,-1270581268,0,0.1420055627822876,-0.9886234998703003,0.8931161165237427,209.77783203125,144.4091796875,3.47900390625
7.2900941371917725,-1270581266,1,0.6964253187179565,-0.8706151247024536,0.41454771161079407,253.0517578125,42.96875,-220.15380859375
7.295665979385376,-1270581249,0,-0.2644885778427124,-0.8335942029953003,0.6433602571487427,207.45849609375,100.76904296875,-39.0625
7.295807123184204,-1270581230,0,-0.4151233434677124,-0.4922855794429779,0.6475106477737427,283.63037109375,21.78955078125,-78.43017578125
7.313526153564453,-1270581247,1,0.37904253602027893,-0.4514256715774536,0.26781919598579407,141.78466796875,1.52587890625,-223.6328125
7.313536167144775,-1270581228,1,-0.11900435388088226,-0.07422842085361481,0.44653013348579407,133.6669921875,21.240234375,-288.75732421875
7.325874090194702,-1270581211,0,-0.4195178747177124,-0.2134769856929779,0.4871102273464203,336.48681640625,-42.724609375,-93.8720703125
7.343340158462524,-1270581209,1,-0.36412152647972107,0.1850489228963852,0.5307586193084717,173.9501953125,31.73828125,-289.97802734375
7.343348026275635,-1270581190,1,-0.6671000719070435,0.6186426877975464,0.34057310223579407,221.98486328125,24.90234375,-217.6513671875
7.356919050216675,-1270581192,0,-0.4444202184677124,-0.1351078450679779,0.4761238992214203,385.68115234375,-119.20166015625,-120.849609375
7.356931209564209,-1270581173,0,-0.3846057653427124,-0.1639164388179779,0.2720223367214203,460.5712890625,-203.91845703125,-126.0986328125
7.37061619758606,-1270581171,1,-0.40342816710472107,0.7641505002975464,0.26708677411079407,213.134765625,20.751953125,-189.63623046875
7.391666889190674,-1270581154,0,-0.4934924840927124,-0.1041019856929779,0.3569832742214203,505.06591796875,-325.1953125,-129.638671875
7.414654970169067,-1270581118,0,-0.4080432653427124,0.5411616563796997,-0.3229483664035797,355.712890625,-316.5283203125,-58.7158203125
7.440732955932617,-1270581152,1,-0.44957074522972107,0.8378809690475464,0.28466489911079407,164.73388671875,-10.498046875,-181.57958984375
7.4407432079315186,-1270581133,1,-0.33531293272972107,0.5568751096725464,0.5402801036834717,121.39892578125,-19.1650390625,-174.9267578125
7.44168496131897,-1270581114,1,-0.49327191710472107,0.7797755002975464,0.49413755536079407,92.28515625,-17.39501953125,-154.47998046875
7.447874069213867,-1270581099,0,-0.0862659141421318,0.6214839220046997,-0.018993280827999115,194.9462890625,-330.50537109375,-62.3779296875
7.447883129119873,-1270581080,0,0.0839001014828682,0.6095210313796997,0.09575281292200089,100.9521484375,-319.64111328125,-115.53955078125
7.460710287094116,-1270581095,1,-0.46592816710472107,0.5876368284225464,0.39501646161079407,46.875,-2.25830078125,-80.2001953125
7.4608330726623535,-1270581076,1,-0.051377397030591965,0.4416407346725464,0.39770200848579407,6.8359375,-27.89306640625,-51.8798828125
7.4755699634552,-1270581061,0,0.058509476482868195,0.5763179063796997,0.07182703167200089,2.9296875,-265.44189453125,-132.32421875
7.496170997619629,-1270581040,1,-0.07530318200588226,0.2729395627975464,0.25146177411079407,-79.58984375,15.5029296875,-83.67919921875
7.505691289901733,-1270581042,0,0.056800492107868195,0.5226069688796997,0.057911016047000885,-87.158203125,-189.27001953125,-108.2763671875
7.505771160125732,-1270581023,0,0.0975719764828682,0.6424800157546997,0.1738778054714203,-181.0302734375,-140.44189453125,-68.29833984375
7.520441055297852,-1270581021,1,0.15248002111911774,0.2990626096725464,0.30614927411079407,-137.14599609375,46.44775390625,-5.0048828125
7.543874025344849,-1270581004,0,0.2833629846572876,0.7340327501296997,0.4939461648464203,-295.47119140625,-83.0078125,-7.26318359375
7.5506391525268555,-1270581002,1,0.31483355164527893,-0.08643545210361481,0.39379575848579407,-173.9501953125,59.08203125,10.1318359375
7.550725221633911,-1270580983,1,0.23719681799411774,-0.2609959840774536,0.42089536786079407,-244.56787109375,43.212890625,2.44140625
7.565646171569824,-1270580985,0,0.4711071252822876,0.5904780626296997,1.0034676790237427,-337.40234375,-43.51806640625,56.33544921875
7.565723180770874,-1270580966,0,0.5719372034072876,0.6268550157546997,1.2239266633987427,-280.1513671875,-36.07177734375,107.72705078125
7.5922181606292725,-1270580964,1,0.17933548986911774,-0.1931249052286148,0.6508758068084717,-305.419921875,18.06640625,15.31982421875
7.5966081619262695,-1270580947,0,0.7443004846572876,0.7542964220046997,1.2319833040237427,-218.93310546875,-29.35791015625,136.16943359375
7.59661602973938,-1270580928,0,0.9547497034072876,0.9481440782546997,1.0322762727737427,-192.0166015625,-21.30126953125,152.7099609375
7.610635042190552,-1270580945,1,0.038222212344408035,-0.1843358427286148,0.9374969005584717,-280.09033203125,27.03857421875,44.12841796875
7.610760927200317,-1270580926,1,0.11073197424411774,-0.10059560835361481,1.1245086193084717,-244.07958984375,59.2041015625,74.03564453125
7.625881195068359,-1270580909,0,0.9081188440322876,0.9955073595046997,0.7910653352737427,-199.03564453125,-31.1279296875,158.203125
7.644135236740112,-1270580907,1,0.25526323914527893,-0.03248037025332451,1.3486297130584717,-249.69482421875,47.66845703125,103.69873046875
7.644144296646118,-1270580888,1,0.6959370374679565,0.09276376664638519,1.7355926036834717,-265.07568359375,-2.50244140625,101.806640625
7.655797004699707,-1270580890,0,0.6886364221572876,1.2472163438796997,0.6904793977737427,-173.095703125,-60.9130859375,161.7431640625
7.670906066894531,-1270580869,1,1.4713276624679565,0.09715829789638519,2.4819304943084717,-215.2099609375,-17.39501953125,85.87646484375
7.691943883895874,-1270580854,0,0.3136364221572876,0.4730464518070221,0.2837410867214203,-223.388671875,-52.734375,348.7548828125
7.701920032501221,-1270580850,1,0.9178608655929565,0.3017481565475464,2.3925750255584717,-93.75,-29.11376953125,168.15185546875
7.701927900314331,-1270580831,1,1.3495014905929565,0.4191797971725464,2.2541472911834717,-43.51806640625,52.91748046875,205.01708984375
7.715605974197388,-1270580835,0,0.8568493127822876,0.3087398111820221,0.7729989290237427,-275.81787109375,59.02099609375,538.63525390625
7.715736150741577,-1270580816,0,1.4806286096572876,0.1456538736820221,1.0710946321487427,-335.02197265625,149.658203125,649.84130859375
7.740326166152954,-1270580812,1,1.7916401624679565,0.5551661252975464,2.5434539318084717,41.07666015625,70.37353515625,72.44873046875
7.748605966567993,-1270580797,0,2.534095525741577,0.028954654932022095,1.7251473665237427,-151.9775390625,134.3994140625,559.14306640625
7.748615980148315,-1270580778,0,2.208411931991577,0.015038639307022095,1.6936532258987427,27.40478515625,177.42919921875,333.8623046875
7.760619163513184,-1270580776,1,0.9134663343429565,0.2502344846725464,1.7458465099334717,101.07421875,27.89306640625,43.701171875
7.775530099868774,-1270580759,0,1.7284313440322876,0.019189029932022095,1.4692879915237427,178.466796875,-49.25537109375,34.66796875
7.795983076095581,-1270580757,1,1.4867085218429565,-0.2519627809524536,0.5468719005584717,59.87548828125,85.693359375,-30.76171875
7.7959911823272705,-1270580738,1,0.7882221937179565,-0.3635350465774536,0.9064910411834717,138.73291015625,121.09375,-52.55126953125
7.805660247802734,-1270580740,0,1.5380016565322876,-0.2767094075679779,1.0969735383987427,227.11181640625,-195.73974609375,-53.22265625
7.805779933929443,-1270580721,0,1.7433239221572876,-0.2408207356929779,1.7017098665237427,210.0830078125,103.515625,-7.38525390625
7.820450067520142,-1270580719,1,0.44032183289527893,-0.2392674833536148,1.2995574474334717,258.85009765625,92.8955078125,-53.955078125
7.845427989959717,-1270580702,0,0.7338024377822876,-0.7010258436203003,0.9116708040237427,170.83740234375,214.17236328125,-47.2412109375
7.850656986236572,-1270580700,1,0.38612261414527893,0.015127051621675491,0.7121551036834717,267.15087890625,112.12158203125,-52.55126953125
7.850779294967651,-1270580681,1,0.41248980164527893,-0.02173818275332451,0.9970672130584717,270.6298828125,130.18798828125,-49.072265625
7.865699052810669,-1270580683,0,0.8280407190322876,-0.0982426106929779,1.3303719758987427,232.666015625,-8.6669921875,-128.5400390625
7.865752220153809,-1270580664,0,0.2684704065322876,-0.6973637342453003,1.1384774446487427,318.29833984375,56.21337890625,-176.33056640625
7.8916239738464355,-1270580662,1,0.07997025549411774,-0.03199208900332451,0.8188445568084717,271.05712890625,87.40234375,-23.37646484375
7.895963191986084,-1270580645,0,0.2574840784072876,-0.4947269856929779,0.4353524148464203,399.96337890625,-61.34033203125,-148.01025390625
7.910703182220459,-1270580643,1,0.08119095861911774,0.1733301728963852,0.6809051036834717,279.4189453125,78.4912109375,-24.10888671875
7.910794973373413,-1270580624,1,-0.18882857263088226,0.4562891721725464,0.42358091473579407,281.79931640625,18.00537109375,29.052734375
7.943166017532349,-1270580605,1,-0.049668412655591965,0.2477930635213852,0.27660825848579407,299.37744140625,37.17041015625,24.84130859375
7.9560630321502686,-1270580626,0,0.1717907190322876,-0.5362309217453003,-0.09467687457799911,469.970703125,-189.02587890625,-140.869140625
7.95618200302124,-1270580590,0,0.2198864221572876,0.0846187174320221,0.022022344172000885,394.1650390625,-305.0537109375,-216.49169921875
7.95627498626709,-1270580571,0,-0.4512561559677124,-0.031348079442977905,-0.004833124577999115,276.79443359375,-301.1474609375,-172.30224609375
7.970695972442627,-1270580586,1,-0.004990678280591965,0.1913965791463852,0.16674496233463287,214.29443359375,14.2822265625,-0.8544921875
7.970793008804321,-1270580567,1,-1.2122660875320435,0.7504786252975464,0.14989925920963287,128.96728515625,10.31494140625,91.9189453125
7.992571115493774,-1270580552,0,0.3985973596572876,0.3316890299320221,-0.003612421452999115,146.6064453125,-220.52001953125,-88.623046875
8.000970125198364,-1270580548,1,0.12831009924411774,0.01976572349667549,0.31762388348579407,165.83251953125,16.845703125,-38.6962890625
8.015748262405396,-1270580533,0,0.0668102577328682,0.3736812174320221,-0.11640539020299911,0.42724609375,-175.35400390625,-166.07666015625
8.01584792137146,-1270580514,0,0.045570023357868195,0.2672359049320221,0.08647546917200089,-122.6806640625,-169.61669921875,-233.3984375
8.040923118591309,-1270580512,1,-0.21275435388088226,0.1350000947713852,-0.03149722144007683,114.6240234375,-9.765625,-88.56201171875
8.04640007019043,-1270580495,0,-0.1453479528427124,0.1087886393070221,0.2676278054714203,-113.6474609375,-163.87939453125,-200.50048828125
8.060688257217407,-1270580493,1,-0.28868207335472107,0.1826075166463852,-0.29663392901420593,3.84521484375,-78.67431640625,-93.017578125
8.060778141021729,-1270580474,1,-0.40806683897972107,0.1813868135213852,0.05346371605992317,-75.01220703125,-106.99462890625,-119.0185546875
8.075496912002563,-1270580476,0,-0.2974475622177124,0.1341792643070221,0.3926278054714203,-84.3505859375,-159.3017578125,-116.943359375
8.07560920715332,-1270580457,0,-0.2676624059677124,0.2081538736820221,0.5190926790237427,-84.8388671875,-188.90380859375,-57.12890625
8.097224950790405,-1270580455,1,-0.5281840562820435,0.08861337602138519,0.09106136858463287,-142.2119140625,-131.9580078125,-108.88671875
8.105743169784546,-1270580438,0,0.0763317421078682,0.2335444986820221,0.5620614290237427,-111.51123046875,-165.283203125,-13.427734375
8.105830192565918,-1270580419,0,-0.1582874059677124,0.3421870768070221,0.7207528352737427,-111.38916015625,-119.93408203125,33.87451171875
8.120630025863647,-1270580436,1,-0.43126019835472107,0.08250986039638519,0.49438169598579407,-187.255859375,-146.30126953125,-129.39453125
8.12073802947998,-1270580417,1,-0.31919965147972107,-0.013681542128324509,0.8525359630584717,-190.3076171875,-134.09423828125,-127.74658203125
8.144270181655884,-1270580400,0,0.3304821252822876,0.4505855143070221,0.6064950227737427,-105.46875,-102.1728515625,57.31201171875
8.15061616897583,-1270580398,1,-0.45298871397972107,-0.07618154585361481,0.5534636974334717,-186.21826171875,-97.900390625,-121.58203125
8.165703296661377,-1270580381,0,0.3314586877822876,0.4986812174320221,0.6909676790237427,-132.080078125,-88.623046875,65.4296875
8.165767908096313,-1270580362,0,0.4515758752822876,0.6139155626296997,0.8555184602737427,-128.47900390625,-37.65869140625,126.03759765625
8.191055059432983,-1270580379,1,-0.5933696031570435,0.3239649534225464,0.8571746349334717,-187.1337890625,-85.44921875,-78.43017578125
8.191070079803467,-1270580360,1,-0.33238324522972107,0.02000986412167549,0.8220183849334717,-195.25146484375,-71.2890625,-32.04345703125
8.210067987442017,-1270580341,1,-0.37291058897972107,0.1572168916463852,0.8649871349334717,-217.34619140625,-54.931640625,-19.775390625
8.210926055908203,-1270580322,1,-0.32042035460472107,0.1291407197713852,1.0727508068084717,-270.08056640625,-76.5380859375,9.82666015625
8.225776195526123,-1270580326,0,0.6227184534072876,0.7301265001296997,0.6877938508987427,-73.30322265625,-48.52294921875,232.0556640625
8.225796222686768,-1270580307,0,0.7272106409072876,0.5665522813796997,0.7144051790237427,-65.49072265625,-32.470703125,261.04736328125
8.244786024093628,-1270580303,1,-0.25328168272972107,0.1874903291463852,1.4077117443084717,-305.72509765625,-100.2197265625,20.08056640625
8.255783319473267,-1270580288,0,0.9305797815322876,0.7191401720046997,0.5688973665237427,-86.181640625,37.353515625,286.865234375
8.255855083465576,-1270580269,0,0.9488903284072876,0.7816401720046997,0.4631844460964203,-135.80322265625,76.47705078125,285.0341796875
8.270525932312012,-1270580284,1,-0.060654740780591965,0.1628321260213852,1.5712859630584717,-271.91162109375,-83.0078125,33.75244140625
8.292179107666016,-1270580250,0,1.1241832971572876,0.6705561876296997,0.6384774446487427,-191.2841796875,131.04248046875,330.87158203125
8.300700187683105,-1270580248,1,0.34168902039527893,0.1686915010213852,1.9130828380584717,-174.31640625,-29.72412109375,84.53369140625
8.30079698562622,-1270580229,1,0.35609331727027893,0.2104395478963852,1.9094207286834717,-154.11376953125,-6.591796875,86.9140625
8.315622091293335,-1270580231,0,1.2738415002822876,0.3177730143070221,0.6860848665237427,-198.486328125,160.46142578125,378.84521484375
8.315736055374146,-1270580212,0,1.5082165002822876,0.3475581705570221,1.0601083040237427,-171.5087890625,198.30322265625,394.775390625
8.33979606628418,-1270580210,1,0.33900347352027893,0.3818262815475464,2.0400359630584717,-146.240234375,6.103515625,111.2060546875
8.345546960830688,-1270580193,0,1.7860485315322876,0.3631831705570221,1.2258797883987427,-122.4365234375,205.4443359375,389.09912109375
8.360720157623291,-1270580191,1,0.5995014905929565,0.4374903440475464,2.1567351818084717,-99.79248046875,-26.4892578125,109.19189453125
8.360794067382812,-1270580172,1,0.5548237562179565,0.4623926877975464,2.0351531505584717,-49.62158203125,-18.12744140625,103.82080078125
8.375555038452148,-1270580174,0,1.9730602502822876,0.1566402018070221,1.4871102571487427,-51.8798828125,177.490234375,353.1494140625
8.375675201416016,-1270580155,0,1.9298473596572876,-0.013281673192977905,1.8657723665237427,96.923828125,115.6005859375,180.72509765625
8.394155025482178,-1270580153,1,1.7545307874679565,1.3303126096725464,1.1257293224334717,-77.33154296875,-43.27392578125,173.15673828125
8.405639171600342,-1270580136,0,1.1525036096572876,0.1207515299320221,0.8950692415237427,201.84326171875,-100.7080078125,183.4716796875
8.421524047851562,-1270580134,1,0.25623980164527893,-0.06104482337832451,1.9067351818084717,-106.0791015625,150.2685546875,109.375
8.421561241149902,-1270580115,1,0.6141499280929565,0.3593653440475464,1.7268035411834717,75.3173828125,59.6923828125,154.052734375
8.46503210067749,-1270580117,0,1.8133922815322876,0.2743159830570221,0.8894540071487427,266.9677734375,-89.111328125,101.806640625
8.466060161590576,-1270580098,0,2.442054510116577,0.3573237955570221,1.2153817415237427,274.59716796875,-134.8876953125,-69.76318359375
8.466162919998169,-1270580062,0,1.5267711877822876,-0.1248539388179779,0.6575204133987427,235.29052734375,-40.46630859375,-211.36474609375
8.481019258499146,-1270580096,1,0.7281635999679565,0.4467676877975464,2.2187469005584717,241.5771484375,-11.41357421875,190.97900390625
8.48281216621399,-1270580077,1,0.41883745789527893,0.05345712974667549,1.5476043224334717,256.16455078125,87.46337890625,134.1552734375
8.494147062301636,-1270580058,1,0.5626362562179565,-0.07349599897861481,1.4807097911834717,274.2919921875,80.4443359375,90.2099609375
8.498178005218506,-1270580043,0,1.1078258752822876,-0.1780765950679779,0.4478035867214203,255.126953125,-76.0498046875,-242.24853515625
8.511070966720581,-1270580039,1,0.5272358655929565,-0.2055760771036148,0.9897429943084717,313.53759765625,62.8662109375,63.78173828125
8.511198997497559,-1270580020,1,0.35365191102027893,-0.08521474897861481,0.8815886974334717,347.65625,33.38623046875,60.9130859375
8.525691270828247,-1270580024,0,1.2118297815322876,-0.1922367513179779,0.4478035867214203,250.48828125,-87.58544921875,-265.9912109375
8.525891065597534,-1270580005,0,0.8575817346572876,-0.1172855794429779,0.4431649148464203,274.658203125,-150.146484375,-279.9072265625
8.554929256439209,-1270579986,0,0.7093883752822876,-0.2593754231929779,0.1992684304714203,251.0986328125,-190.5517578125,-287.17041015625
8.570794105529785,-1270579984,1,0.33216753602027893,0.004140723496675491,0.6022918224334717,330.13916015625,-9.21630859375,50.23193359375
8.570856094360352,-1270579965,1,0.11219681799411774,0.11473642289638519,0.24267269670963287,287.353515625,-17.39501953125,37.9638671875
8.591794967651367,-1270579967,0,0.4476696252822876,-0.1910160481929779,0.1292000710964203,188.3544921875,-226.6845703125,-292.90771484375
8.591809034347534,-1270579948,0,0.1796032190322876,0.0028316080570220947,0.3643074929714203,145.93505859375,-269.775390625,-297.8515625
8.614830255508423,-1270579929,0,-0.031822554767131805,-0.2212894856929779,-0.2204093039035797,101.50146484375,-256.89697265625,-250.6103515625
8.615697145462036,-1270579910,0,0.048255570232868195,0.037499576807022095,0.2153817117214203,18.73779296875,-244.93408203125,-193.54248046875
8.639217138290405,-1270579946,1,0.40931597352027893,-0.1491795927286148,0.6381804943084717,198.54736328125,-34.3017578125,46.44775390625
8.639226198196411,-1270579927,1,-0.041367631405591965,-0.05616201087832451,0.21093441545963287,240.78369140625,2.685546875,-37.4755859375
8.639230966567993,-1270579908,1,-0.22667036950588226,0.11791025102138519,0.13671566545963287,201.84326171875,13.61083984375,-47.36328125
8.645482063293457,-1270579891,0,-0.015953414142131805,0.054589420557022095,0.2170906960964203,-13.36669921875,-202.33154296875,-198.2421875
8.661185026168823,-1270579889,1,-0.20176802575588226,0.1601465791463852,0.07055355608463287,159.3017578125,-4.45556640625,-75.98876953125
8.661309957504272,-1270579870,1,-0.20835982263088226,0.1804102510213852,-0.07739566266536713,110.595703125,-26.30615234375,-112.36572265625
8.675841093063354,-1270579872,0,-0.0789416953921318,0.0628902018070221,0.2566414773464203,-53.52783203125,-161.1328125,-173.2177734375
8.67591404914856,-1270579853,0,-0.1897815465927124,0.1417476236820221,0.2793465554714203,-105.65185546875,-94.8486328125,-107.177734375
8.69362998008728,-1270579851,1,-0.38243207335472107,0.08519540727138519,-0.06860660016536713,38.75732421875,-56.640625,-144.775390625
8.70560908317566,-1270579834,0,-0.2564319372177124,0.046776920557022095,0.4248543679714203,-148.74267578125,-46.08154296875,-27.9541015625
8.720809936523438,-1270579832,1,-0.43443402647972107,0.1347559541463852,-0.05224917456507683,-26.18408203125,-73.91357421875,-160.21728515625
8.720921039581299,-1270579813,1,-0.5923930406570435,-0.0017186515033245087,0.31737974286079407,-59.9365234375,-91.36962890625,-173.2177734375
8.7427499294281,-1270579798,0,0.2103649377822876,0.1698237955570221,0.7285653352737427,-147.03369140625,-111.14501953125,56.7626953125
8.750445127487183,-1270579794,1,-0.43834027647972107,0.2158106416463852,0.5161101818084717,-88.19580078125,-144.10400390625,-152.64892578125
8.76563310623169,-1270579779,0,1.1351696252822876,0.2538081705570221,0.7375985383987427,-118.2861328125,-130.06591796875,80.87158203125
8.7657630443573,-1270579760,0,0.7840954065322876,0.3102046549320221,0.8821297883987427,-127.685546875,-120.60546875,82.51953125
8.79136610031128,-1270579775,1,-0.8472758531570435,0.3559473752975464,0.27807310223579407,-149.59716796875,-103.82080078125,-103.33251953125
8.791377305984497,-1270579756,1,-0.8880473375320435,0.1393946260213852,0.40063169598579407,-180.6640625,-106.3232421875,-104.8583984375
8.79651403427124,-1270579741,0,0.2862926721572876,0.4979487955570221,0.9858895540237427,-142.39501953125,-66.83349609375,114.990234375
8.810734033584595,-1270579720,1,-0.9651957750320435,0.2404688447713852,0.8066375255584717,-189.8193359375,-65.5517578125,-89.111328125
8.827095031738281,-1270579722,0,0.2709118127822876,0.5728999376296997,1.1201668977737427,-150.146484375,-42.66357421875,163.39111328125
8.827105045318604,-1270579703,0,0.4791637659072876,0.7120600938796997,1.1082040071487427,-132.87353515625,-8.23974609375,193.78662109375
8.844321012496948,-1270579701,1,-0.9275981187820435,0.2863672971725464,0.9594695568084717,-213.80615234375,-82.275390625,-34.24072265625
8.855477094650269,-1270579684,0,0.8060680627822876,0.8045893907546997,0.9556161165237427,-97.10693359375,37.2314453125,214.78271484375
8.871002197265625,-1270579682,1,-0.8336039781570435,0.3032130002975464,1.1206023693084717,-249.08447265625,-100.64697265625,50.9033203125
8.871011018753052,-1270579663,1,-0.34288129210472107,0.1423243135213852,1.2805144786834717,-276.55029296875,-153.1982421875,127.86865234375
8.892389297485352,-1270579665,0,0.9693981409072876,0.8509761095046997,0.9341317415237427,-82.09228515625,65.00244140625,225.64697265625
8.893038034439087,-1270579646,0,0.9090954065322876,0.7625972032546997,1.0183602571487427,-66.10107421875,91.00341796875,270.56884765625
8.900845050811768,-1270579644,1,-0.19761763513088226,0.1852930635213852,1.5532195568084717,-305.72509765625,-162.29248046875,167.66357421875
8.91572093963623,-1270579627,0,1.0455700159072876,0.5274897813796997,0.9482918977737427,-51.513671875,114.501953125,317.32177734375
8.915841102600098,-1270579608,0,1.1000133752822876,0.7171870470046997,0.7019540071487427,-66.40625,135.43701171875,373.35205078125
8.94060492515564,-1270579625,1,0.25477495789527893,0.2048243135213852,1.8083465099334717,-277.28271484375,-171.32568359375,131.591796875
8.940613269805908,-1270579606,1,0.21034134924411774,0.3178614377975464,1.8579070568084717,-224.79248046875,-109.06982421875,132.2021484375
8.947335958480835,-1270579589,0,1.2621227502822876,0.6395503282546997,0.5894051790237427,-113.28125,198.73046875,375.54931640625
8.960632085800171,-1270579587,1,0.47621050477027893,0.3998926877975464,1.9013640880584717,-146.728515625,-55.35888671875,168.212890625
