sync_time,timestamp_ms,device_id,ax,ay,az,gx,gy,gz
0.032025814056396484,-1268820501,0,0.7603636384010315,0.098324254155159,0.9926130771636963,1.708984375,21.66748046875,-36.7431640625
0.03260493278503418,-1268820482,0,0.7281370759010315,0.117611363530159,1.0438826084136963,6.7138671875,26.18408203125,-34.97314453125
0.03420710563659668,-1268820523,1,0.4415324330329895,-0.005880679935216904,1.0479755401611328,12.20703125,17.9443359375,-26.42822265625
0.034214019775390625,-1268820504,1,0.4539836049079895,-0.0005095861852169037,1.0799579620361328,13.5498046875,25.146484375,-26.611328125
0.034822940826416016,-1268820485,1,0.4249308705329895,0.0016876794397830963,1.1063251495361328,14.7705078125,29.60205078125,-25.57373046875
0.05651688575744629,-1268820463,0,0.7215452790260315,0.114681676030159,1.0729353427886963,9.1552734375,26.7333984375,-33.3251953125
0.0638427734375,-1268820466,1,0.4002726674079895,0.012674007564783096,1.1204853057861328,16.357421875,30.09033203125,-22.03369140625
0.06395912170410156,-1268820447,1,0.3902629017829895,0.007547054439783096,1.1170673370361328,18.12744140625,29.96826171875,-18.98193359375
0.08659887313842773,-1268820444,0,0.7232542634010315,0.142269566655159,1.0878279209136963,11.1083984375,27.03857421875,-31.55517578125
0.08673310279846191,-1268820425,0,0.7051878571510315,0.140804722905159,1.0343611240386963,11.77978515625,26.79443359375,-26.18408203125
0.09413313865661621,-1268820428,1,0.3785441517829895,0.009011898189783096,1.0931415557861328,19.22607421875,26.06201171875,-13.3056640625
0.11656999588012695,-1268820406,0,0.6841917634010315,0.145931676030159,1.0228865146636963,16.2353515625,24.47509765625,-19.775390625
0.11663103103637695,-1268820387,0,0.6885862946510315,0.151302769780159,1.0023787021636963,14.83154296875,22.64404296875,-16.4794921875
0.13099288940429688,-1268820409,1,0.3707316517829895,0.018045101314783096,1.0621356964111328,21.728515625,24.71923828125,-7.62939453125
0.13099908828735352,-1268820390,1,0.3927043080329895,0.053201351314783096,1.0284442901611328,19.8974609375,24.2919921875,-5.615234375
0.1471109390258789,-1268820368,0,0.7083616852760315,0.121761754155159,0.9645369052886963,12.20703125,27.587890625,-17.51708984375
0.1540238857269287,-1268820371,1,0.4188273549079895,0.058328304439783096,1.0313739776611328,17.15087890625,26.3671875,-4.08935546875
0.15404200553894043,-1268820352,1,0.4395793080329895,0.0690704882144928,1.0279560089111328,16.54052734375,38.0859375,-8.36181640625
0.18213796615600586,-1268820349,0,0.7418089509010315,0.126644566655159,0.9052107334136963,9.8876953125,40.0390625,-23.8037109375
0.2054579257965088,-1268820313,0,0.7601194977760315,0.189632847905159,0.8764021396636963,20.81298828125,77.63671875,-26.91650390625
0.21390604972839355,-1268820316,1,0.4334757924079895,0.1210724413394928,1.0489521026611328,20.81298828125,76.47705078125,-4.39453125
0.21393895149230957,-1268820297,1,0.3834269642829895,0.1283966600894928,1.0755634307861328,24.169921875,102.23388671875,7.26318359375
0.23697686195373535,-1268820294,0,0.7274046540260315,0.2653164565563202,0.9274275302886963,31.92138671875,99.7314453125,-20.5078125
0.23709392547607422,-1268820275,0,0.6727171540260315,0.3588223159313202,1.0106794834136963,45.7763671875,108.45947265625,-3.2958984375
0.24406695365905762,-1268820278,1,0.3182414174079895,0.1437775194644928,1.0841083526611328,28.4423828125,108.09326171875,26.55029296875
0.2676370143890381,-1268820256,0,0.6038694977760315,0.3676113784313202,1.0429060459136963,47.607421875,104.4921875,17.7001953125
0.26764488220214844,-1268820237,0,0.5787230134010315,0.3803066909313202,0.9887068271636963,30.94482421875,95.15380859375,30.76171875
0.28223490715026855,-1268820259,1,0.2613566517829895,0.1816193163394928,1.0623798370361328,22.94921875,102.72216796875,43.8232421875
0.2822427749633789,-1268820240,1,0.2762492299079895,0.1850372850894928,0.9620380401611328,1.5869140625,86.669921875,49.072265625
0.29641294479370117,-1268820218,0,0.5904417634010315,0.3844570815563202,0.8766462802886963,-5.55419921875,95.15380859375,39.48974609375
0.30388903617858887,-1268820221,1,0.2882121205329895,0.2116486132144928,0.8878192901611328,-26.06201171875,79.4677734375,50.23193359375
0.3039979934692383,-1268820202,1,0.3485148549079895,0.1310822069644928,0.9239521026611328,-49.01123046875,88.8671875,51.26953125
0.33151793479919434,-1268820199,0,0.6771116852760315,0.2968105971813202,0.7609236240386963,-29.84619140625,106.4453125,45.0439453125
0.3315260410308838,-1268820180,0,0.6153441071510315,0.092709019780159,0.7196638584136963,-33.5693359375,140.31982421875,56.15234375
0.3338289260864258,-1268820183,1,0.3668254017829895,0.025857601314783096,0.8631610870361328,-46.9970703125,111.99951171875,69.51904296875
0.35644006729125977,-1268820161,0,0.6505003571510315,0.033138711005449295,0.6183454990386963,-24.7802734375,181.33544921875,51.3916015625
0.3638129234313965,-1268820164,1,0.4678996205329895,-0.006613101810216904,0.8492450714111328,-38.51318359375,152.83203125,72.265625
0.36388683319091797,-1268820145,1,0.2996867299079895,0.044900570064783096,0.8551044464111328,-41.32080078125,197.57080078125,66.0400390625
0.3866078853607178,-1268820142,0,0.5276976227760315,0.054378945380449295,0.6129744052886963,-14.83154296875,225.4638671875,39.6728515625
0.38669490814208984,-1268820123,0,0.3882933557033539,0.065121129155159,0.6718122959136963,-6.9580078125,243.65234375,33.447265625
0.3938441276550293,-1268820126,1,0.2728312611579895,0.012429866939783096,0.7596454620361328,-53.955078125,225.4638671875,58.2275390625
0.4164900779724121,-1268820104,0,0.3526488244533539,0.038265664130449295,0.7799665927886963,-9.6435546875,277.34375,25.634765625
0.4313018321990967,-1268820107,1,0.1583293080329895,-0.1062224805355072,0.8751239776611328,-53.5888671875,246.03271484375,56.94580078125
0.4313089847564697,-1268820088,1,-0.045283976942300797,-0.1443084180355072,0.9095478057861328,-16.41845703125,263.671875,66.7724609375
0.44643402099609375,-1268820085,0,0.1421995908021927,0.012386757880449295,0.9620954990386963,13.18359375,287.65869140625,33.99658203125
0.4537699222564697,-1268820052,1,-0.3055378794670105,0.0680939257144928,1.1866474151611328,23.92578125,105.5908203125,40.71044921875
0.4819788932800293,-1268820049,0,0.08018787205219269,0.071224644780159,1.1991560459136963,24.23095703125,125.0,11.5966796875
0.48198604583740234,-1268820030,0,-0.2091187685728073,0.7550625205039978,1.5741560459136963,19.1650390625,-68.90869140625,34.24072265625
0.4874298572540283,-1268820033,1,-0.5677449107170105,0.4665314257144928,1.2349872589111328,13.61083984375,19.4091796875,26.42822265625
0.506537914276123,-1268820011,0,-0.0013550929725170135,0.2892422378063202,0.9115583896636963,-16.41845703125,56.2744140625,7.62939453125
0.5143120288848877,-1268820014,1,-0.2742878794670105,0.0033966638147830963,0.8197040557861328,-4.150390625,7.9345703125,17.4560546875
0.5144209861755371,-1268819995,1,-0.1551472544670105,0.044412288814783096,0.9649677276611328,54.62646484375,134.6435546875,35.888671875
0.5386960506439209,-1268819992,0,-0.1541871279478073,0.126644566655159,0.9545271396636963,-29.23583984375,61.58447265625,-1.77001953125
0.5387039184570312,-1268819973,0,-0.4769410192966461,0.3605313003063202,0.8480818271636963,39.9169921875,-25.87890625,7.2021484375
0.544226884841919,-1268819976,1,-0.9595906138420105,0.1716095507144928,0.8145771026611328,106.75048828125,273.62060546875,54.50439453125
0.5666718482971191,-1268819954,0,-0.3138550817966461,0.2819180190563202,1.1366560459136963,94.23828125,-22.27783203125,12.939453125
0.5830018520355225,-1268819957,1,-1.0650594234466553,0.2123810350894928,0.8375263214111328,78.369140625,253.41796875,32.40966796875
0.5830090045928955,-1268819938,1,-1.1968953609466553,-0.3593963086605072,1.3118915557861328,112.060546875,114.19677734375,-45.83740234375
0.5967409610748291,-1268819935,0,-0.6200074553489685,0.3827480971813202,1.2526228427886963,14.34326171875,-76.59912109375,-21.3623046875
0.59682297706604,-1268819916,0,-0.053357046097517014,-0.3167147934436798,1.5106794834136963,-20.08056640625,43.5791015625,-0.1220703125
0.6037368774414062,-1268819919,1,-0.5382038950920105,0.6335236430168152,0.2972431182861328,64.27001953125,76.47705078125,-74.951171875
0.6327381134033203,-1268819897,0,-0.2435425966978073,0.159359410405159,1.2731306552886963,-18.12744140625,89.66064453125,61.34033203125
0.6327450275421143,-1268819878,0,-0.2835816442966461,0.168880894780159,1.2946150302886963,-4.150390625,84.77783203125,69.15283203125
0.6351480484008789,-1268819900,1,-1.0899617671966553,0.1623322069644928,0.8824481964111328,36.80419921875,83.92333984375,-86.5478515625
0.6356229782104492,-1268819881,1,-0.7108113169670105,0.2829376757144928,0.8321552276611328,-8.056640625,-44.49462890625,-83.740234375
0.6575100421905518,-1268819859,0,-0.2757691442966461,0.161312535405159,1.2689802646636963,1.5869140625,130.37109375,17.333984375
0.6639590263366699,-1268819862,1,-0.4698445200920105,0.2214142382144928,0.8238544464111328,-35.82763671875,-57.861328125,-60.302734375
0.6640629768371582,-1268819843,1,-0.6414753794670105,-0.1269744336605072,0.6947040557861328,-52.06298828125,37.90283203125,-29.78515625
0.6868298053741455,-1268819840,0,-0.2096070498228073,0.117367222905159,1.1347029209136963,2.38037109375,138.3056640625,-56.7626953125
0.6868958473205566,-1268819821,0,-0.2896851599216461,0.2565273940563202,1.0768415927886963,-3.41796875,30.517578125,-46.32568359375
0.6939678192138672,-1268819824,1,-0.4031941294670105,-0.3708709180355072,0.7803974151611328,-1.89208984375,12.0849609375,-61.95068359375
0.716386079788208,-1268819785,0,-0.4630250036716461,-0.010074179619550705,0.9171736240386963,37.7197265625,-244.32373046875,-60.546875
0.7304887771606445,-1268819788,1,-1.5447957515716553,1.0175567865371704,0.6597919464111328,17.08984375,-50.78125,-81.23779296875
0.746412992477417,-1268819766,0,-0.6988648772239685,0.3307461440563202,1.0387556552886963,47.7294921875,-410.33935546875,15.5029296875
0.753809928894043,-1268819769,1,-0.6260945200920105,-0.1272185742855072,0.5172138214111328,-77.7587890625,-168.212890625,22.94921875
0.7808761596679688,-1268819747,0,0.7715941071510315,0.4196133315563202,0.6119978427886963,-17.2119140625,-301.6357421875,-9.765625
0.7808830738067627,-1268819728,0,0.7379027009010315,0.5490078330039978,0.8580915927886963,-52.30712890625,-15.07568359375,-107.91015625
0.7872869968414307,-1268819750,1,-0.4813191294670105,-0.1411345899105072,0.6988544464111328,-63.17138671875,-108.7646484375,-10.80322265625
0.7872970104217529,-1268819731,1,-0.4224812388420105,-0.3357146680355072,0.8067646026611328,-28.38134765625,-93.07861328125,-11.29150390625
0.8065600395202637,-1268819709,0,0.3228636682033539,0.4635586440563202,0.9015486240386963,-72.93701171875,38.39111328125,-99.06005859375
0.813953161239624,-1268819712,1,-0.4378620982170105,-0.2036345899105072,0.8021259307861328,19.71435546875,-114.6240234375,-38.6962890625
0.8140318393707275,-1268819693,1,-0.4556843638420105,-0.1377166211605072,0.8121356964111328,9.1552734375,-173.03466796875,-34.60693359375
0.837026834487915,-1268819690,0,0.10338123142719269,0.4425625503063202,0.7645857334136963,-99.609375,63.90380859375,-69.27490234375
0.8371431827545166,-1268819671,0,-0.2940796911716461,0.2899746596813202,0.8493025302886963,-113.22021484375,110.53466796875,-56.82373046875
0.8441040515899658,-1268819674,1,-0.2528035044670105,0.4333283007144928,0.9022235870361328,11.23046875,-179.99267578125,-26.55029296875
0.8667929172515869,-1268819652,0,-0.2157105654478073,0.4459805190563202,0.9762556552886963,-93.3837890625,105.224609375,-59.6923828125
0.8833060264587402,-1268819655,1,-0.1426960825920105,0.1486603319644928,0.8177509307861328,19.4091796875,-95.21484375,-1.52587890625
0.8833129405975342,-1268819636,1,-0.3179890513420105,-0.055197086185216904,0.7132587432861328,50.1708984375,-105.04150390625,38.14697265625
0.8965990543365479,-1268819633,0,-0.2030152529478073,0.4154629409313202,1.0170271396636963,-72.265625,67.7490234375,-34.72900390625
0.8967387676239014,-1268819614,0,-0.09461681544780731,0.178646519780159,0.9584333896636963,-41.07666015625,29.541015625,-12.39013671875
0.9038259983062744,-1268819617,1,-0.2127644419670105,-0.1440642774105072,0.9173603057861328,51.6357421875,-111.4501953125,30.8837890625
0.9326169490814209,-1268819595,0,-0.1390504091978073,-0.001285117119550705,0.9467146396636963,7.26318359375,-20.5078125,-20.751953125
0.9326260089874268,-1268819576,0,-0.1534547060728073,0.038753945380449295,1.0673201084136963,66.89453125,-55.419921875,-47.607421875
0.9349009990692139,-1268819598,1,-0.010616008192300797,-0.0717986524105072,0.8839130401611328,37.90283203125,-117.00439453125,-29.72412109375
0.9349119663238525,-1268819579,1,-0.0770222544670105,-0.0017302893102169037,0.8450946807861328,51.7578125,-113.46435546875,-54.38232421875
0.9565420150756836,-1268819557,0,-0.0052613429725170135,0.102718785405159,1.1525251865386963,118.65234375,-83.3740234375,-56.884765625
0.964137077331543,-1268819560,1,0.0814250111579895,0.0646759569644928,0.7413349151611328,67.07763671875,-71.96044921875,-40.771484375
0.9864678382873535,-1268819521,0,0.033557016402482986,0.165462926030159,1.1515486240386963,148.74267578125,-67.32177734375,-89.111328125
0.9937620162963867,-1268819524,1,0.009159382432699203,0.0636993944644928,0.8990497589111328,131.2255859375,64.75830078125,7.4462890625
1.0164198875427246,-1268819502,0,-0.07313244044780731,0.210140660405159,1.2245466709136963,120.54443359375,-55.17578125,-83.1298828125
1.0301220417022705,-1268819505,1,0.1595500111579895,0.1157013475894928,0.7918720245361328,159.1796875,104.1259765625,42.8466796875
1.0301330089569092,-1268819486,1,-0.2857624888420105,0.3681427538394928,0.8226337432861328,153.4423828125,71.71630859375,53.77197265625
1.0464987754821777,-1268819483,0,-0.08436290919780731,0.236751988530159,1.1217634677886963,110.83984375,-54.13818359375,-81.787109375
1.0466370582580566,-1268819464,0,0.062121469527482986,0.181820347905159,0.9374372959136963,112.3046875,-46.81396484375,-102.72216796875
1.0537800788879395,-1268819467,1,-0.2550007700920105,0.7070099711418152,0.8375263214111328,105.04150390625,-7.32421875,86.0595703125
1.0815229415893555,-1268819445,0,0.1419554501771927,0.2721523940563202,0.8934919834136963,104.43115234375,-36.7431640625,-120.4833984375
1.0815298557281494,-1268819426,0,0.049426157027482986,0.5888027548789978,0.8324568271636963,85.0830078125,-46.69189453125,-81.11572265625
1.0841701030731201,-1268819448,1,-0.1951863169670105,0.6061798930168152,0.8839130401611328,62.56103515625,-97.83935546875,157.2265625
1.0842509269714355,-1268819429,1,-0.2781941294670105,0.3136993944644928,1.0115985870361328,83.251953125,-143.98193359375,177.06298828125
1.106645107269287,-1268819407,0,-0.011608999222517014,0.6427578330039978,0.7245466709136963,58.349609375,-28.99169921875,-11.65771484375
1.113926887512207,-1268819410,1,-0.2593953013420105,0.4003693163394928,0.9190692901611328,123.779296875,-128.60107421875,94.3603515625
1.1140329837799072,-1268819391,1,-0.2867390513420105,0.5656525492668152,0.7596454620361328,122.1923828125,-106.50634765625,14.7705078125
1.1380858421325684,-1268819388,0,-0.020398061722517014,0.6068691611289978,0.7965681552886963,33.26416015625,-2.74658203125,28.25927734375
1.1380929946899414,-1268819369,0,-0.0011109523475170135,0.6088222861289978,0.8759138584136963,18.798828125,-10.92529296875,47.79052734375
1.144110918045044,-1268819372,1,-0.1231648325920105,0.7914826273918152,0.6888446807861328,120.1171875,-91.796875,-11.474609375
1.1668779850006104,-1268819350,0,0.4031859338283539,0.8888515830039978,0.9118025302886963,19.1650390625,-25.81787109375,68.17626953125
1.1826379299163818,-1268819353,1,-0.3839070200920105,0.8044220805168152,0.6927509307861328,90.14892578125,-3.23486328125,18.06640625
1.1826460361480713,-1268819334,1,-0.2506062388420105,1.0392853021621704,1.0203876495361328,48.27880859375,6.103515625,-2.74658203125
1.1966450214385986,-1268819331,0,0.1509886533021927,0.9310879111289978,0.8146345615386963,34.423828125,-33.26416015625,67.44384765625
1.1967580318450928,-1268819312,0,0.2598753869533539,0.9130215048789978,0.7640974521636963,33.69140625,-23.13232421875,25.0244140625
1.20371413230896,-1268819315,1,-0.1234089732170105,1.0312286615371704,0.9276142120361328,-16.78466796875,-50.29296875,37.04833984375
1.2344989776611328,-1268819293,0,0.10704334080219269,0.8590664267539978,0.8878767490386963,-12.939453125,13.427734375,-16.78466796875
1.2369749546051025,-1268819296,1,-0.038448039442300797,0.7797638773918152,0.8033466339111328,-58.65478515625,-97.412109375,74.03564453125
1.2564280033111572,-1268819257,0,0.11925037205219269,0.6942715048789978,1.0980818271636963,-44.73876953125,4.33349609375,2.5634765625
1.2638139724731445,-1268819260,1,0.1353800892829895,0.6215607523918152,0.8206806182861328,26.18408203125,-35.46142578125,38.330078125
1.2865948677062988,-1268819238,0,0.1683226376771927,0.6920742392539978,1.0939314365386963,-36.31591796875,32.1044921875,42.17529296875
1.2867650985717773,-1268819219,0,0.1685667783021927,0.7247890830039978,0.9706404209136963,-38.4521484375,47.4853515625,50.537109375
1.2940711975097656,-1268819241,1,0.1356242299079895,0.5864045023918152,0.8834247589111328,46.44775390625,-1.953125,33.0810546875
1.2941510677337646,-1268819222,1,0.0950968861579895,0.6950470805168152,0.9771747589111328,28.25927734375,4.69970703125,13.3056640625
1.3164238929748535,-1268819200,0,0.1783324033021927,0.6681484580039978,0.8842146396636963,-25.7568359375,27.64892578125,37.41455078125
1.330475091934204,-1268819203,1,0.1131632924079895,0.7155548930168152,0.8460712432861328,-17.4560546875,-12.02392578125,12.39013671875
1.3304829597473145,-1268819184,1,0.1185343861579895,0.5966584086418152,0.6512470245361328,-29.541015625,-22.0947265625,26.9775390625
1.3493030071258545,-1268819181,0,0.1829710751771927,0.6478847861289978,0.8427107334136963,10.8642578125,6.04248046875,16.05224609375
1.3493120670318604,-1268819162,0,0.1692992001771927,0.6532558798789978,0.8134138584136963,44.49462890625,-8.6669921875,3.96728515625
1.3538339138031006,-1268819165,1,0.0914347767829895,0.5038849711418152,0.5443134307861328,-10.31494140625,-14.70947265625,13.427734375
1.385148048400879,-1268819143,0,0.1514769345521927,0.7194179892539978,0.7626326084136963,60.85205078125,-14.34326171875,-7.2021484375
1.3851940631866455,-1268819146,1,0.1261027455329895,0.5361115336418152,0.5784931182861328,8.60595703125,-8.23974609375,-7.38525390625
1.3852009773254395,-1268819127,1,0.1532023549079895,0.6913849711418152,0.6160907745361328,34.7900390625,-3.11279296875,-9.09423828125
1.406524896621704,-1268819124,0,0.08555896580219269,0.7811855673789978,0.7924177646636963,55.0537109375,-7.8125,-0.91552734375
1.406620979309082,-1268819105,0,0.1441527158021927,0.7401699423789978,0.7975447177886963,37.59765625,-13.36669921875,-3.23486328125
1.4135010242462158,-1268819108,1,0.1156046986579895,0.6515900492668152,0.5914325714111328,50.10986328125,-0.732421875,-12.39013671875
1.466883897781372,-1268819086,0,0.11021716892719269,0.7301601767539978,0.7826521396636963,30.57861328125,-16.90673828125,-5.31005859375
1.4670040607452393,-1268819067,0,0.2908812463283539,0.6854824423789978,0.7233259677886963,31.005859375,-25.7568359375,-0.42724609375
1.4785079956054688,-1268819048,0,0.3211546838283539,0.6818203330039978,0.7030622959136963,48.33984375,-42.29736328125,18.06640625
1.4798979759216309,-1268819089,1,0.1605265736579895,0.5920197367668152,0.6026630401611328,65.49072265625,10.1318359375,-28.25927734375
1.479905128479004,-1268819070,1,-0.1063191294670105,0.7751252055168152,0.7147235870361328,73.3642578125,22.52197265625,-50.1708984375
1.479909896850586,-1268819051,1,-0.0006062425673007965,0.7284943461418152,0.7315692901611328,37.90283203125,-32.89794921875,-50.35400390625
1.4799151420593262,-1268819032,1,-0.024776164442300797,0.7839142680168152,0.6558856964111328,33.935546875,-57.373046875,-27.40478515625
1.4965360164642334,-1268819029,0,0.3968382775783539,0.9205898642539978,0.7694685459136963,42.8466796875,-14.404296875,-1.28173828125
1.533254861831665,-1268818993,0,0.2889281213283539,0.7914394736289978,0.7765486240386963,3.47900390625,15.0146484375,-33.50830078125
1.5356879234313965,-1268818996,1,0.1424601674079895,0.7573029398918152,0.6573505401611328,-15.68603515625,-87.09716796875,15.5029296875
1.535693883895874,-1268818977,1,0.2933390736579895,0.5868927836418152,0.7769794464111328,-30.21240234375,-84.53369140625,4.57763671875
1.556668996810913,-1268818974,0,0.1712523251771927,0.7250332236289978,0.8524763584136963,-0.54931640625,14.2822265625,-30.517578125
1.556779146194458,-1268818955,0,0.1746702939271927,0.6493496298789978,0.8702986240386963,11.5966796875,10.19287109375,-17.08984375
1.5655298233032227,-1268818958,1,0.2442668080329895,0.5842072367668152,0.8043231964111328,-43.9453125,-48.27880859375,-30.94482421875
1.5866730213165283,-1268818936,0,0.2317992001771927,0.7157558798789978,0.8351423740386963,32.65380859375,16.2353515625,7.14111328125
1.5867950916290283,-1268818917,0,0.2632933557033539,0.8410000205039978,0.7391951084136963,32.958984375,29.6630859375,11.8408203125
1.593878984451294,-1268818939,1,0.2032511830329895,0.7836701273918152,0.6026630401611328,-82.275390625,-40.58837890625,-30.33447265625
1.5939741134643555,-1268818920,1,0.1253703236579895,0.6349884867668152,0.7379169464111328,-112.97607421875,-37.109375,-34.48486328125
1.616481065750122,-1268818898,0,0.2393675595521927,0.8471035361289978,0.6320173740386963,16.2353515625,32.2265625,1.40380859375
1.6303260326385498,-1268818901,1,0.1287882924079895,0.4802033007144928,0.7008075714111328,-101.01318359375,-90.39306640625,-24.0478515625
1.6303350925445557,-1268818882,1,0.1629679799079895,0.4804474413394928,0.7708759307861328,-60.72998046875,-46.56982421875,1.52587890625
1.6465699672698975,-1268818879,0,0.1829710751771927,0.7926601767539978,0.6229841709136963,0.1220703125,22.15576171875,0.0
1.6466479301452637,-1268818860,0,0.1255980283021927,0.7218593955039978,0.7277204990386963,-6.16455078125,15.2587890625,4.21142578125
1.653883934020996,-1268818863,1,0.1280558705329895,0.4924103319644928,0.7259540557861328,-17.578125,-44.189453125,19.6533203125
1.680891990661621,-1268818841,0,0.3084593713283539,0.7897304892539978,0.7023298740386963,-9.6435546875,7.32421875,18.61572265625
1.6838688850402832,-1268818844,1,0.3140910267829895,0.6767365336418152,0.7803974151611328,-3.96728515625,-73.91357421875,32.3486328125
1.6839680671691895,-1268818825,1,0.3680461049079895,0.5585724711418152,0.8475360870361328,-0.3662109375,-66.650390625,34.912109375
1.706529140472412,-1268818822,0,0.3296996057033539,0.9501308798789978,0.6664412021636963,-43.3349609375,30.3955078125,16.29638671875
1.7066199779510498,-1268818803,0,0.12291248142719269,0.7504238486289978,0.7736189365386963,-64.8193359375,53.64990234375,-19.53125
1.7137339115142822,-1268818806,1,0.2171671986579895,0.4838654100894928,0.7659931182861328,20.69091796875,-51.26953125,35.09521484375
1.7398500442504883,-1268818784,0,0.049426157027482986,0.5580410361289978,0.8578474521636963,-24.47509765625,-2.0751953125,-11.1083984375
1.7398591041564941,-1268818765,0,0.2464476376771927,0.6845058798789978,0.8710310459136963,12.20703125,13.427734375,-22.216796875
1.7444689273834229,-1268818787,1,0.1947062611579895,0.4836212694644928,0.7772235870361328,41.44287109375,0.54931640625,24.4140625
1.7445969581604004,-1268818768,1,0.2410929799079895,0.5993439555168152,0.7491474151611328,30.45654296875,1.03759765625,45.71533203125
1.780980110168457,-1268818732,1,0.2337687611579895,0.5583283305168152,0.8302021026611328,-7.50732421875,-18.4326171875,55.48095703125
1.7965610027313232,-1268818729,0,0.056750375777482986,0.7284511923789978,0.8148787021636963,-5.615234375,44.0673828125,-43.9453125
1.7966668605804443,-1268818710,0,0.015978891402482986,0.6762050986289978,0.8412458896636963,-8.544921875,30.94482421875,-21.484375
1.8038318157196045,-1268818713,1,0.3057902455329895,0.4509064257144928,0.8123798370361328,6.9580078125,12.39013671875,35.82763671875
1.8337249755859375,-1268818691,0,-0.06263439357280731,0.7174648642539978,0.7514021396636963,5.2490234375,0.6103515625,-12.26806640625
1.8352468013763428,-1268818694,1,0.053837116807699203,0.6926056742668152,0.8038349151611328,23.681640625,30.8837890625,18.98193359375
1.8352539539337158,-1268818675,1,0.1956828236579895,0.6584259867668152,0.8170185089111328,9.521484375,28.13720703125,16.78466796875
1.8566279411315918,-1268818672,0,0.0027952976524829865,0.6532558798789978,0.8598005771636963,0.9765625,-8.6669921875,-14.95361328125
1.856748104095459,-1268818653,0,-0.009900014847517014,0.7286953330039978,0.8283064365386963,-0.67138671875,2.99072265625,-8.056640625
1.863767147064209,-1268818656,1,0.1661418080329895,0.6530548930168152,0.8614521026611328,-9.1552734375,23.681640625,0.79345703125
1.8866581916809082,-1268818634,0,-0.043591421097517014,0.7797207236289978,0.8131697177886963,-11.5966796875,5.859375,-16.05224609375
1.8867499828338623,-1268818615,0,-0.0015992335975170135,0.7958340048789978,0.8468611240386963,-34.5458984375,0.67138671875,-9.765625
1.8940060138702393,-1268818637,1,0.1470988392829895,0.5861603617668152,0.8690204620361328,-9.8876953125,38.51318359375,0.1220703125
1.8940329551696777,-1268818618,1,0.1297648549079895,0.6108185648918152,0.8221454620361328,6.2255859375,56.70166015625,-13.5498046875
1.9164140224456787,-1268818596,0,-0.019421499222517014,0.7953457236289978,0.8610212802886963,-41.9921875,-2.25830078125,-16.90673828125
1.93100905418396,-1268818599,1,0.0775187611579895,0.5805451273918152,0.8138446807861328,12.87841796875,57.43408203125,-4.5166015625
1.9465711116790771,-1268818577,0,-0.015026967972517014,0.7096523642539978,0.9196150302886963,-44.61669921875,-2.685546875,-17.88330078125
1.9466791152954102,-1268818558,0,-0.039685171097517014,0.6574062705039978,0.8395369052886963,-31.982421875,1.89208984375,-15.31982421875
1.9553191661834717,-1268818580,1,0.1053507924079895,0.5541779398918152,0.8397235870361328,16.11328125,63.65966796875,4.94384765625
1.955327033996582,-1268818561,1,0.1265910267829895,0.5182892680168152,0.8638935089111328,26.06201171875,76.904296875,-10.498046875
1.9811620712280273,-1268818539,0,-0.10755626857280731,0.6747402548789978,0.8478376865386963,-9.033203125,20.01953125,-14.0380859375
1.9838740825653076,-1268818542,1,0.2298625111579895,0.5212189555168152,0.7933368682861328,33.8134765625,86.97509765625,-23.13232421875
1.9839890003204346,-1268818523,1,0.009891804307699203,0.6135041117668152,0.8490009307861328,41.259765625,106.75048828125,-21.728515625
2.0065929889678955,-1268818520,0,0.022326547652482986,0.8119472861289978,0.9198591709136963,29.11376953125,14.46533203125,23.92578125
2.0067038536071777,-1268818501,0,0.048205453902482986,0.7963222861289978,0.7865583896636963,67.138671875,123.9013671875,51.1474609375
2.013890027999878,-1268818504,1,0.1593058705329895,0.5961701273918152,0.8992938995361328,32.3486328125,55.0537109375,-7.6904296875
2.036442995071411,-1268818465,0,-0.1947144716978073,0.8148769736289978,0.6444685459136963,34.912109375,31.494140625,5.0048828125
2.044188976287842,-1268818468,1,-0.0074421800673007965,0.6135041117668152,0.8177509307861328,39.36767578125,53.955078125,-26.67236328125
2.0665841102600098,-1268818446,0,-0.012585561722517014,0.8698086142539978,0.7716658115386963,22.8271484375,-17.9443359375,5.92041015625
2.080950975418091,-1268818449,1,0.0955851674079895,0.6349884867668152,0.8096942901611328,38.57421875,48.095703125,-24.2919921875
2.0965278148651123,-1268818427,0,0.1382933408021927,0.8707851767539978,0.7980329990386963,26.3671875,7.32421875,5.7373046875
2.096651077270508,-1268818408,0,0.10386951267719269,0.6830410361289978,0.6647322177886963,22.64404296875,51.57470703125,19.8974609375
2.1313350200653076,-1268818389,0,-0.10511486232280731,0.5382656455039978,0.6461775302886963,36.68212890625,35.46142578125,-52.79541015625
2.135174036026001,-1268818430,1,-0.2425495982170105,0.7162873148918152,0.7259540557861328,36.68212890625,53.22265625,-15.0146484375
2.135181188583374,-1268818411,1,-0.1592976450920105,0.7172638773918152,0.6431903839111328,43.02978515625,79.65087890625,-3.90625
2.1351850032806396,-1268818392,1,-0.018184367567300797,0.6259552836418152,0.6146259307861328,38.9404296875,66.40625,-9.21630859375
2.1352999210357666,-1268818373,1,-0.013057414442300797,0.6442658305168152,0.6068134307861328,30.2734375,62.43896484375,-24.7802734375
2.1567299365997314,-1268818370,0,-0.055554311722517014,0.5968593955039978,0.6124861240386963,49.86572265625,-31.3720703125,-40.6494140625
2.1568148136138916,-1268818351,0,-0.00037853047251701355,0.7103847861289978,0.7721540927886963,52.67333984375,-36.07177734375,9.3994140625
2.163712978363037,-1268818354,1,-0.056758586317300797,0.6830841898918152,0.6268329620361328,14.7705078125,34.423828125,-33.26416015625
2.1879870891571045,-1268818332,0,0.1312132626771927,0.8597988486289978,1.0072615146636963,60.6689453125,16.845703125,-21.66748046875
2.1941449642181396,-1268818335,1,-0.0806843638420105,0.6635529398918152,0.7413349151611328,-1.708984375,33.87451171875,-7.8125
2.1942059993743896,-1268818316,1,0.012577351182699203,0.6257111430168152,0.7271747589111328,0.91552734375,13.427734375,-12.02392578125
2.2165961265563965,-1268818313,0,0.07139880955219269,0.9701504111289978,0.8829939365386963,32.53173828125,63.90380859375,-11.41357421875
2.2166171073913574,-1268818294,0,0.06529529392719269,0.9171718955039978,0.7877790927886963,3.84521484375,69.76318359375,24.5361328125
2.2316040992736816,-1268818297,1,-0.1180378794670105,0.6667267680168152,0.7843036651611328,3.47900390625,4.69970703125,-16.9677734375
2.246863842010498,-1268818275,0,0.1629515439271927,0.7208828330039978,0.7465193271636963,-22.216796875,69.03076171875,50.72021484375
2.2469890117645264,-1268818256,0,0.1519652158021927,0.8041347861289978,0.8197615146636963,-12.63427734375,104.00390625,37.41455078125
2.257641077041626,-1268818278,1,-0.1011921763420105,0.6586701273918152,0.7401142120361328,-4.94384765625,-11.53564453125,-5.92041015625
2.2576520442962646,-1268818259,1,0.0628703236579895,0.6076447367668152,0.8292255401611328,-10.80322265625,-6.8359375,1.953125
2.2815701961517334,-1268818237,0,-0.2362183779478073,1.1051602363586426,0.7799665927886963,-26.9775390625,108.0322265625,45.22705078125
2.2838149070739746,-1268818240,1,0.036258991807699203,0.6274201273918152,0.7969989776611328,-4.0283203125,22.0947265625,-21.54541015625
2.306428909301758,-1268818201,0,-0.043835561722517014,0.7604336142539978,0.6857283115386963,-28.076171875,16.7236328125,39.48974609375
2.3137869834899902,-1268818204,1,-0.0804402232170105,0.6323029398918152,0.6934833526611328,-1.46484375,9.46044921875,-20.6298828125
2.336350917816162,-1268818182,0,0.1695433408021927,0.9430508017539978,0.8370954990386963,-26.79443359375,-10.8642578125,61.4013671875
2.3443379402160645,-1268818185,1,-0.1903035044670105,0.5971466898918152,0.5928974151611328,-1.77001953125,19.6533203125,-28.38134765625
2.3443448543548584,-1268818166,1,-0.1199910044670105,0.6650177836418152,0.5777606964111328,-14.83154296875,-3.2958984375,-13.0615234375
2.366553783416748,-1268818163,0,0.2266722470521927,0.9743008017539978,0.9269392490386963,-74.27978515625,23.4375,29.296875
2.3666229248046875,-1268818144,0,-0.1732300966978073,0.6879238486289978,0.6400740146636963,-115.72265625,56.57958984375,-10.6201171875
2.3805959224700928,-1268818147,1,0.008182819932699203,0.6371857523918152,0.6197528839111328,-59.63134765625,-38.02490234375,-6.2255859375
2.396601915359497,-1268818125,0,-0.2030152529478073,0.6046718955039978,0.4779646098613739,-96.6796875,44.86083984375,-20.5078125
2.3967370986938477,-1268818106,0,-0.07264415919780731,0.5761074423789978,0.7387068271636963,-63.41552734375,43.64013671875,1.0986328125
2.4039669036865234,-1268818128,1,-0.0894734263420105,0.5302521586418152,0.7098407745361328,-100.2197265625,-58.837890625,-5.2490234375
2.404045820236206,-1268818109,1,-0.1795613169670105,0.5480744242668152,0.8023700714111328,-105.95703125,-71.35009765625,-27.03857421875
2.4322361946105957,-1268818087,0,-0.023816030472517014,0.7377285361289978,0.7548201084136963,-53.03955078125,58.89892578125,38.2080078125
2.4356160163879395,-1268818090,1,-0.3277546763420105,0.7333771586418152,0.7801532745361328,-98.57177734375,-95.76416015625,-14.6484375
2.4356229305267334,-1268818071,1,0.0006144605576992035,0.6259552836418152,0.9141864776611328,-61.03515625,-67.32177734375,25.20751953125
2.456570863723755,-1268818068,0,0.00035389140248298645,0.8158535361289978,0.7223494052886963,-46.38671875,70.61767578125,15.9912109375
2.4566731452941895,-1268818049,0,-0.051403921097517014,0.7384609580039978,0.8961775302886963,-43.51806640625,40.6494140625,-9.6435546875
2.464589834213257,-1268818052,1,0.048954304307699203,0.5556427836418152,0.9346942901611328,-7.01904296875,-19.6533203125,9.82666015625
2.5170178413391113,-1268818030,0,-0.09754650294780731,0.7853359580039978,1.0783064365386963,-49.25537109375,51.20849609375,-13.73291015625
2.51702618598938,-1268818011,0,-0.3072632849216461,0.7860683798789978,1.0758650302886963,-56.2744140625,49.62158203125,-13.916015625
2.517033100128174,-1268817992,0,-0.07191173732280731,0.6613125205039978,1.1127302646636963,-46.2646484375,-49.25537109375,-0.91552734375
2.5307390689849854,-1268818033,1,-0.1285359263420105,0.5419709086418152,0.9344501495361328,10.31494140625,-11.41357421875,-12.63427734375
2.530750036239624,-1268818014,1,-0.031612101942300797,0.7651154398918152,0.9898700714111328,-21.97265625,-48.52294921875,20.5078125
2.530756950378418,-1268817995,1,0.026005085557699203,0.5588166117668152,1.0018329620361328,-20.6298828125,-35.94970703125,32.16552734375
2.5464799404144287,-1268817973,0,-0.07752697169780731,0.8085293173789978,1.0531599521636963,-44.49462890625,-99.06005859375,-9.82666015625
2.5537328720092773,-1268817976,1,0.0943644642829895,0.6049591898918152,0.9600849151611328,-8.11767578125,-25.20751953125,5.06591796875
2.5819239616394043,-1268817937,0,-0.1253785341978073,0.6498379111289978,1.1119978427886963,-80.6884765625,-163.02490234375,-28.01513671875
2.5839638710021973,-1268817940,1,-0.032832805067300797,0.5551545023918152,1.0360126495361328,8.7890625,7.6904296875,-36.62109375
2.5840609073638916,-1268817921,1,-0.0911824107170105,0.4928986132144928,0.9884052276611328,31.25,-2.3193359375,-37.65869140625
2.6066079139709473,-1268817918,0,-0.06336681544780731,0.5004238486289978,1.0919783115386963,-64.27001953125,-210.99853515625,12.0849609375
2.606656074523926,-1268817899,0,0.4942503869533539,0.3292813003063202,0.8458845615386963,5.43212890625,-200.74462890625,8.97216796875
2.613720178604126,-1268817902,1,0.059208210557699203,0.5192658305168152,0.9266376495361328,50.9033203125,-26.2451171875,-40.34423828125
2.6364858150482178,-1268817880,0,0.4212523400783539,0.5180019736289978,0.9515974521636963,50.10986328125,-54.3212890625,-37.353515625
2.6467268466949463,-1268817883,1,0.1212199330329895,0.5239045023918152,0.9117450714111328,67.19970703125,-17.578125,-31.6162109375
2.6467411518096924,-1268817864,1,0.059208210557699203,0.4994904100894928,0.8931903839111328,86.97509765625,-13.0615234375,-35.5224609375
2.666581153869629,-1268817861,0,0.2523070275783539,0.5409511923789978,0.9979841709136963,76.72119140625,-14.46533203125,-59.08203125
2.6666860580444336,-1268817842,0,0.2493773251771927,0.5380215048789978,0.9882185459136963,109.0087890625,-20.20263671875,-56.884765625
2.68068790435791,-1268817845,1,0.035038288682699203,0.4245392382144928,0.7594013214111328,126.89208984375,-16.11328125,-38.57421875
2.7032530307769775,-1268817826,1,0.056766804307699203,0.5175568461418152,0.8057880401611328,166.1376953125,3.84521484375,-27.64892578125
2.7040300369262695,-1268817807,1,0.1192668080329895,0.5356232523918152,0.7425556182861328,192.68798828125,26.55029296875,-5.2490234375
2.7297627925872803,-1268817823,0,0.060412485152482986,0.6701015830039978,0.8505232334136963,151.2451171875,-5.7373046875,-61.58447265625
2.7297720909118652,-1268817804,0,0.1497679501771927,0.7492031455039978,0.8544294834136963,169.98291015625,-31.494140625,-63.53759765625
2.7297780513763428,-1268817785,0,0.1739378720521927,0.7880215048789978,0.7870466709136963,174.4384765625,-27.52685546875,-74.15771484375
2.7341599464416504,-1268817788,1,0.0745890736579895,0.5956818461418152,0.6075458526611328,200.25634765625,48.15673828125,1.5869140625
2.756679058074951,-1268817766,0,0.08384998142719269,0.7457851767539978,0.7172224521636963,170.71533203125,1.89208984375,-65.85693359375
2.756760835647583,-1268817747,0,0.010363657027482986,0.8497890830039978,0.4889509379863739,188.1103515625,37.2314453125,-26.2451171875
2.7638769149780273,-1268817769,1,0.023075398057699203,0.9025666117668152,0.5911884307861328,144.22607421875,34.24072265625,1.220703125
2.763953924179077,-1268817750,1,-0.1180378794670105,0.8530060648918152,0.5186786651611328,104.00390625,34.97314453125,-9.27734375
2.78645396232605,-1268817728,0,0.027941782027482986,0.9398769736289978,0.4127790629863739,167.236328125,28.13720703125,-12.26806640625
2.7939260005950928,-1268817731,1,-0.1112019419670105,0.8605744242668152,0.4224872589111328,81.72607421875,33.02001953125,-10.009765625
2.7940289974212646,-1268817712,1,0.038944538682699203,0.7336212992668152,0.5054950714111328,74.3408203125,41.259765625,-9.6435546875
2.8164517879486084,-1268817709,0,0.08995349705219269,0.9774746298789978,0.4716169536113739,123.22998046875,7.87353515625,-13.73291015625
2.8454720973968506,-1268817673,0,0.031115610152482986,0.8947109580039978,0.4887067973613739,43.39599609375,-7.6904296875,-26.79443359375
2.8540711402893066,-1268817676,1,-0.0748249888420105,0.8849884867668152,0.5426044464111328,51.45263671875,12.87841796875,3.0517578125
2.8541550636291504,-1268817657,1,0.0064738355576992035,0.8505646586418152,0.4703388214111328,38.4521484375,17.9443359375,-4.94384765625
2.883619785308838,-1268817654,0,-0.012097280472517014,0.8243984580039978,0.4745466411113739,29.1748046875,-19.8974609375,-23.25439453125
2.8836281299591064,-1268817635,0,0.06700427830219269,0.8322109580039978,0.4074079692363739,38.9404296875,-26.9775390625,-19.83642578125
2.8854050636291504,-1268817638,1,-0.059199992567300797,0.8742462992668152,0.4996356964111328,28.9306640625,27.52685546875,-21.484375
2.9073758125305176,-1268817616,0,0.1490355283021927,0.8871425986289978,0.5304548740386963,41.68701171875,-11.53564453125,-23.25439453125
2.907383918762207,-1268817597,0,-0.011853139847517014,0.8685879111289978,0.4591657817363739,42.05322265625,12.26806640625,-12.939453125
2.9138779640197754,-1268817619,1,-0.0726277232170105,0.8434845805168152,0.4532489776611328,22.3388671875,32.53173828125,-21.17919921875
2.9139888286590576,-1268817600,1,-0.0660359263420105,0.8610627055168152,0.4832782745361328,14.6484375,22.94921875,-13.18359375
2.936439037322998,-1268817578,0,0.10509021580219269,0.9518398642539978,0.4811384379863739,42.17529296875,19.34814453125,-19.34814453125
2.9444711208343506,-1268817581,1,-0.0711628794670105,0.8022248148918152,0.4493427276611328,5.18798828125,13.00048828125,-2.685546875
2.9445579051971436,-1268817562,1,-0.046504680067300797,0.8351837992668152,0.4603290557861328,-6.591796875,2.44140625,2.25830078125
2.9670798778533936,-1268817559,0,0.042101938277482986,0.9550136923789978,0.4738142192363739,34.48486328125,21.728515625,-7.99560546875
2.9671921730041504,-1268817540,0,0.09971912205219269,1.0243496894836426,0.4523298442363739,29.78515625,24.2919921875,-2.0751953125
2.9803049564361572,-1268817543,1,-0.030635539442300797,0.7890412211418152,0.4276142120361328,-10.498046875,-2.25830078125,-1.46484375
2.9965178966522217,-1268817521,0,0.10753162205219269,1.0243496894836426,0.3661482036113739,20.8740234375,13.24462890625,5.55419921875
3.004112958908081,-1268817524,1,-0.1473347544670105,0.8427521586418152,0.4984149932861328,-11.65771484375,-1.64794921875,-8.36181640625
3.031751871109009,-1268817502,0,0.09752185642719269,1.0321621894836426,0.3180525004863739,3.11279296875,17.15087890625,-5.37109375
3.0323641300201416,-1268817483,0,0.07213123142719269,0.9970058798789978,0.3612653911113739,-9.3994140625,25.08544921875,-10.92529296875
3.0340261459350586,-1268817505,1,-0.0833699107170105,0.8740021586418152,0.4427509307861328,-17.7001953125,-10.92529296875,4.2724609375
3.0340800285339355,-1268817486,1,-0.059932414442300797,0.8359162211418152,0.4708271026611328,-21.78955078125,-8.30078125,5.79833984375
3.056589126586914,-1268817464,0,0.052355844527482986,0.9972500205039978,0.3488142192363739,-25.08544921875,25.87890625,-4.94384765625
3.056817054748535,-1268817445,0,0.056017953902482986,0.9589199423789978,0.3681013286113739,-40.58837890625,31.1279296875,-16.357421875
3.0640010833740234,-1268817467,1,-0.1151081919670105,0.8539826273918152,0.4740009307861328,-26.4892578125,-4.7607421875,4.57763671875
3.064095973968506,-1268817448,1,-0.1319538950920105,0.8366486430168152,0.4122333526611328,-42.41943359375,-10.68115234375,12.939453125
3.0929291248321533,-1268817412,1,-0.1361042857170105,0.8537384867668152,0.5518817901611328,-62.1337890625,-11.65771484375,23.01025390625
3.116623878479004,-1268817409,0,0.1277952939271927,0.9301113486289978,0.3309919536113739,-77.45361328125,44.3115234375,15.44189453125
3.1167330741882324,-1268817390,0,0.1360960751771927,0.9098476767539978,0.2870466411113739,-98.388671875,49.31640625,25.87890625
3.1329140663146973,-1268817393,1,-0.1102253794670105,0.7568146586418152,0.5264911651611328,-86.5478515625,-26.0009765625,35.46142578125
3.146476984024048,-1268817371,0,0.1595335751771927,0.8698086142539978,0.3327009379863739,-117.00439453125,55.17578125,15.0146484375
3.1540701389312744,-1268817374,1,-0.1102253794670105,0.6940705180168152,0.5006122589111328,-95.27587890625,-32.04345703125,34.60693359375
3.154146194458008,-1268817355,1,-0.0067097581923007965,0.6147248148918152,0.5008563995361328,-106.5673828125,-37.7197265625,25.87890625
3.1830689907073975,-1268817352,0,0.2252074033021927,0.7072109580039978,0.3107282817363739,-124.08447265625,60.60791015625,-3.662109375
3.1830759048461914,-1268817333,0,0.2845335900783539,0.8705410361289978,0.3895857036113739,-125.30517578125,67.3828125,3.5400390625
3.1853997707366943,-1268817336,1,0.034305866807699203,0.5761505961418152,0.6405048370361328,-122.74169921875,-53.77197265625,2.0751953125
3.209620952606201,-1268817314,0,0.4368773400783539,0.9633144736289978,0.5748884677886963,-155.57861328125,61.09619140625,-1.953125
3.2096290588378906,-1268817295,0,0.4171019494533539,0.9533047080039978,0.6788923740386963,-176.69677734375,77.2705078125,-39.9169921875
3.2143449783325195,-1268817317,1,-0.027949992567300797,0.5915314555168152,0.7652606964111328,-143.00537109375,-91.00341796875,-25.08544921875
3.214431047439575,-1268817298,1,0.059208210557699203,0.9435822367668152,0.5482196807861328,-158.69140625,-157.71484375,-10.986328125
3.2365031242370605,-1268817276,0,0.2989378869533539,0.7467617392539978,0.6791365146636963,-208.1298828125,84.28955078125,-55.908203125
3.244065999984741,-1268817279,1,0.0877726674079895,0.8788849711418152,0.5435810089111328,-197.93701171875,-153.564453125,89.17236328125
3.2666828632354736,-1268817257,0,-0.0018433742225170135,0.7511562705039978,0.6945173740386963,-202.392578125,47.18017578125,-40.10009765625
3.266785144805908,-1268817238,0,-0.027722280472517014,0.8029140830039978,0.7238142490386963,-173.76708984375,-1.5869140625,-29.23583984375
3.2803590297698975,-1268817260,1,0.3848918080329895,0.4824005663394928,0.7174091339111328,-193.84765625,-150.45166015625,126.28173828125
3.2803659439086914,-1268817241,1,0.4137004017829895,0.4452911913394928,0.7364521026611328,-175.78125,-166.93115234375,72.20458984375
3.2964138984680176,-1268817219,0,0.5005980134010315,0.6776699423789978,1.0639021396636963,-149.35302734375,0.67138671875,-24.71923828125
3.3045120239257812,-1268817222,1,0.5448039174079895,0.0744415819644928,0.8492450714111328,-151.9775390625,-181.09130859375,18.73779296875
3.304539918899536,-1268817203,1,0.4075968861579895,0.4994904100894928,0.6807880401611328,-63.3544921875,-116.455078125,-61.46240234375
3.3313958644866943,-1268817200,0,0.5372191071510315,0.192074254155159,1.4103376865386963,-124.08447265625,64.697265625,-59.87548828125
3.331402063369751,-1268817181,0,0.3746214807033539,1.3229336738586426,0.6852400302886963,-14.5263671875,51.7578125,17.88330078125
3.333745002746582,-1268817184,1,0.3441203236579895,0.7443634867668152,0.7044696807861328,-55.72509765625,-98.14453125,-17.88330078125
3.3564870357513428,-1268817145,0,0.009387094527482986,0.5790371298789978,1.1261579990386963,-77.0263671875,-88.80615234375,-51.69677734375
3.3638579845428467,-1268817148,1,0.5267375111579895,0.4694611132144928,0.7655048370361328,-97.65625,-88.134765625,18.24951171875
3.38655686378479,-1268817126,0,0.1456175595521927,0.5866054892539978,1.2304060459136963,-74.15771484375,-109.19189453125,-63.232421875
3.3937909603118896,-1268817129,1,0.5482218861579895,0.3071075975894928,0.9422626495361328,-106.93359375,-92.28515625,29.296875
3.416640043258667,-1268817107,0,0.057971078902482986,0.5726894736289978,1.1708357334136963,-67.87109375,-113.6474609375,-93.20068359375
3.416692018508911,-1268817088,0,0.07872302830219269,0.3517422378063202,1.2150251865386963,-74.21875,-139.34326171875,-119.9951171875
3.432460069656372,-1268817110,1,0.5218546986579895,0.4660431444644928,0.7393817901611328,-96.19140625,-136.16943359375,7.75146484375
3.432466983795166,-1268817091,1,0.6666300892829895,0.4174591600894928,0.9349384307861328,-114.07470703125,-183.77685546875,35.58349609375
3.446491003036499,-1268817069,0,0.040148813277482986,0.3915371596813202,1.2172224521636963,-85.0830078125,-156.31103515625,-90.087890625
3.4538471698760986,-1268817072,1,0.6275675892829895,0.2890411913394928,0.8631610870361328,-110.7177734375,-197.81494140625,28.076171875
3.4539270401000977,-1268817053,1,0.7379191517829895,0.3578888475894928,0.8751239776611328,-76.66015625,-156.06689453125,22.8271484375
3.4830710887908936,-1268817050,0,0.2010374814271927,0.3837246596813202,1.2709333896636963,-86.9140625,-166.93115234375,-77.69775390625
3.4830780029296875,-1268817031,0,0.1463499814271927,0.4039883315563202,1.3102400302886963,-81.35986328125,-236.9384765625,-79.89501953125
3.485272169113159,-1268817034,1,0.8866007924079895,0.2309357225894928,0.8968524932861328,-45.83740234375,-110.16845703125,10.80322265625
3.506514072418213,-1268817012,0,0.11412341892719269,0.4252285659313202,1.2992537021636963,-94.6044921875,-275.20751953125,-63.5986328125
3.5144851207733154,-1268817015,1,1.0015909671783447,0.1296173632144928,0.9490985870361328,-1.64794921875,-54.38232421875,-26.7333984375
3.514569044113159,-1268816996,1,0.8033488392829895,0.2790314257144928,0.9766864776611328,19.8974609375,-48.7060546875,-58.28857421875
3.565816879272461,-1268816993,0,0.2772093713283539,0.5822109580039978,1.3280622959136963,-116.5771484375,-211.12060546875,-77.94189453125
3.5668318271636963,-1268816974,0,0.2886839807033539,0.4738125503063202,1.4652693271636963,-115.41748046875,-130.92041015625,-61.34033203125
3.5668540000915527,-1268816955,0,0.3345824182033539,0.5314297080039978,1.4215681552886963,-97.2900390625,-77.5146484375,-58.837890625
3.577794075012207,-1268816936,0,0.1439085751771927,0.3700527846813202,1.4389021396636963,-65.673828125,-81.11572265625,-126.708984375
3.5792441368103027,-1268816977,1,0.8433879017829895,0.3249298632144928,1.0582294464111328,31.67724609375,-79.40673828125,-63.720703125
3.5792510509490967,-1268816958,1,0.8145793080329895,0.3051544725894928,1.0853290557861328,44.43359375,-64.3310546875,-95.8251953125
3.5792558193206787,-1268816939,1,0.7012980580329895,0.4025665819644928,1.1453876495361328,66.40625,-58.65478515625,-125.42724609375
3.598728895187378,-1268816917,0,0.1609984189271927,0.206966832280159,1.6166365146636963,-34.3017578125,-78.7353515625,-169.189453125
3.603945016860962,-1268816920,1,0.5802043080329895,0.4772736132144928,1.1571063995361328,78.9794921875,-72.08251953125,-132.75146484375
3.6329097747802734,-1268816881,0,0.054064828902482986,0.2645840346813202,1.5443708896636963,-17.7001953125,-55.5419921875,-101.07421875
3.6346709728240967,-1268816884,1,0.4654582142829895,0.5392853617668152,1.1248798370361328,93.6279296875,-125.9765625,-98.08349609375
3.656491994857788,-1268816862,0,0.010119516402482986,0.3378262221813202,1.5311872959136963,-10.07080078125,-60.48583984375,-96.5576171875
3.664005994796753,-1268816865,1,0.3983195424079895,0.4382111132144928,0.9774188995361328,99.18212890625,-143.4326171875,-80.13916015625
3.6640899181365967,-1268816846,1,0.3397257924079895,0.4279572069644928,0.9151630401611328,130.43212890625,-140.2587890625,-49.072265625
3.687005043029785,-1268816843,0,-0.1378297060728073,0.228451207280159,1.4891951084136963,13.7939453125,-69.2138671875,-141.66259765625
3.687011957168579,-1268816824,0,-0.1568726748228073,0.185238316655159,1.4393904209136963,36.43798828125,-74.52392578125,-147.03369140625
3.6941068172454834,-1268816827,1,0.2418254017829895,0.5700470805168152,0.8370380401611328,131.2255859375,-120.05615234375,-37.2314453125
3.7164669036865234,-1268816805,0,-0.2464722841978073,0.209896519780159,1.3075544834136963,45.8984375,-74.52392578125,-116.51611328125
3.716542959213257,-1268816786,0,-0.2557496130466461,0.240658238530159,1.2025740146636963,47.79052734375,-73.6083984375,-78.91845703125
3.731649160385132,-1268816808,1,0.2852824330329895,0.4714142382144928,0.6634540557861328,122.6806640625,-112.9150390625,-32.71484375
3.732296943664551,-1268816789,1,0.2122843861579895,0.5121857523918152,0.6507587432861328,117.3095703125,-99.79248046875,-20.44677734375
3.7463459968566895,-1268816767,0,-0.2447632998228073,0.2509121596813202,1.0912458896636963,40.83251953125,-67.32177734375,-52.001953125
3.754183053970337,-1268816770,1,0.1856730580329895,0.5097443461418152,0.6073017120361328,87.2802734375,-100.76904296875,-13.0615234375
3.754276990890503,-1268816751,1,0.1795695424079895,0.4599396288394928,0.5438251495361328,55.23681640625,-101.50146484375,-1.52587890625
3.7841579914093018,-1268816748,0,-0.2515992224216461,0.2694668471813202,1.0245954990386963,28.25927734375,-64.3310546875,-44.3115234375
3.7841689586639404,-1268816729,0,-0.2420777529478073,0.217464879155159,0.8744490146636963,18.9208984375,-62.19482421875,-55.72509765625
3.7859389781951904,-1268816732,1,0.2066691517829895,0.3801056444644928,0.4129657745361328,46.5087890625,-81.0546875,8.544921875
3.806504011154175,-1268816710,0,-0.2657593786716461,0.170589879155159,0.7916853427886963,12.02392578125,-61.34033203125,-51.94091796875
3.814582109451294,-1268816713,1,0.2061808705329895,0.3349396288394928,0.3648700714111328,43.39599609375,-52.42919921875,8.11767578125
3.8145878314971924,-1268816694,1,0.2193644642829895,0.3571564257144928,0.2938251495361328,25.81787109375,-24.96337890625,9.82666015625
3.836632013320923,-1268816691,0,-0.3289918005466461,0.150082066655159,0.7457869052886963,12.75634765625,-61.82861328125,-26.85546875
3.836682081222534,-1268816672,0,-0.3131226599216461,0.143246129155159,0.6766951084136963,10.8642578125,-46.9970703125,-5.859375
3.844120979309082,-1268816675,1,0.2220500111579895,0.3657013475894928,0.2205829620361328,3.60107421875,-4.94384765625,30.1513671875
3.8666980266571045,-1268816653,0,-0.2979859411716461,0.190121129155159,0.6242048740386963,1.953125,-38.0859375,15.68603515625
3.880063056945801,-1268816656,1,0.2064250111579895,0.3256622850894928,0.2486591339111328,-20.5078125,10.498046875,55.17578125
3.8963680267333984,-1268816617,0,-0.3018921911716461,0.224544957280159,0.5055525302886963,-14.09912109375,-24.2919921875,65.24658203125
3.903959035873413,-1268816620,1,0.3048136830329895,0.2431427538394928,0.1951923370361328,-46.20361328125,13.427734375,114.31884765625
3.9041190147399902,-1268816601,1,0.3687785267829895,0.1706329882144928,0.2569599151611328,-64.208984375,17.15087890625,131.4697265625
3.931643009185791,-1268816598,0,-0.2974976599216461,0.185238316655159,0.4743025004863739,-16.845703125,-23.49853515625,81.48193359375
3.9316508769989014,-1268816579,0,-0.2984742224216461,0.143001988530159,0.4515974223613739,-21.728515625,-16.90673828125,87.21923828125
3.9337069988250732,-1268816582,1,0.4102824330329895,0.1142365038394928,0.2474384307861328,-96.61865234375,11.41357421875,138.671875
3.956441879272461,-1268816560,0,-0.3053101599216461,0.132748082280159,0.4298689067363739,-31.43310546875,-19.10400390625,87.7685546875
3.963884115219116,-1268816563,1,0.3992961049079895,0.0785919725894928,0.2799091339111328,-146.3623046875,-1.3427734375,161.9873046875
3.963972806930542,-1268816544,1,0.4295695424079895,0.037820491939783096,0.2711200714111328,-188.4765625,-52.24609375,214.7216796875
3.9883930683135986,-1268816541,0,-0.3045777380466461,0.076839879155159,0.4381696879863739,-57.4951171875,-24.23095703125,95.76416015625
3.9884018898010254,-1268816522,0,-0.1912965029478073,-0.028140585869550705,0.4723493754863739,-76.96533203125,-24.47509765625,112.48779296875
3.9941468238830566,-1268816525,1,0.4720500111579895,-0.1152556836605072,0.1261005401611328,-196.8994140625,-116.8212890625,268.61572265625
4.01636004447937,-1268816503,0,-0.1707886904478073,-0.031070273369550705,0.4708845317363739,-81.6650390625,-29.052734375,138.427734375
4.031136989593506,-1268816506,1,0.8609660267829895,-0.1281951367855072,0.01013375073671341,-199.03564453125,-123.59619140625,334.65576171875
4.0311439037323,-1268816487,1,0.7205851674079895,-0.2068084180355072,0.2220478057861328,-139.16015625,-15.19775390625,315.0634765625
4.046434164047241,-1268816484,0,-0.1807984560728073,-0.070621058344841,0.5673201084136963,-78.55224609375,-37.59765625,151.85546875
4.046555042266846,-1268816465,0,-0.1468629091978073,-0.125552698969841,0.6964704990386963,-89.84375,-34.5458984375,177.30712890625
4.083806037902832,-1268816446,0,-0.044567983597517014,-0.202945277094841,0.7789900302886963,-104.00390625,2.86865234375,204.28466796875
4.083819150924683,-1268816427,0,0.00010975077748298645,-0.233462855219841,0.7960798740386963,-119.32373046875,23.62060546875,214.84375
4.085638046264648,-1268816468,1,0.5086711049079895,-0.4846404492855072,0.4005146026611328,-82.70263671875,-15.31982421875,334.716796875
4.085645914077759,-1268816449,1,0.8092082142829895,-0.6391814351081848,0.4207782745361328,-36.56005859375,-45.0439453125,347.47314453125
4.086071014404297,-1268816430,1,0.8028605580329895,-0.5581267476081848,0.2650165557861328,52.18505859375,-4.69970703125,370.30029296875
4.10634708404541,-1268816408,0,0.038195688277482986,-0.2622714340686798,0.8585798740386963,-103.57666015625,-3.96728515625,205.078125
4.115959882736206,-1268816411,1,1.0867960453033447,-0.6689665913581848,0.2135028839111328,-21.42333984375,-29.60205078125,264.83154296875
4.115969181060791,-1268816392,1,0.9642375111579895,-0.5395720601081848,0.3612079620361328,-7.50732421875,5.55419921875,197.509765625
4.136493921279907,-1268816389,0,0.1505003720521927,-0.3074374496936798,0.9794294834136963,-73.42529296875,-57.7392578125,187.8662109375
4.165719032287598,-1268816353,0,0.3045531213283539,-0.2818026840686798,1.2018415927886963,-47.36328125,-42.724609375,204.04052734375
4.17877197265625,-1268816356,1,0.8729289174079895,-0.6460173726081848,0.4681415557861328,77.392578125,27.7099609375,164.12353515625
4.178778886795044,-1268816337,1,1.1080362796783447,-0.5656951069831848,0.5897235870361328,137.8173828125,31.8603515625,114.013671875
4.204106092453003,-1268816318,1,1.1304972171783447,-0.5337126851081848,0.6927509307861328,166.07666015625,57.0068359375,106.689453125
4.230112075805664,-1268816334,0,0.4398070275783539,-0.3596835434436798,1.2848494052886963,-23.74267578125,-25.2685546875,192.32177734375
4.230118036270142,-1268816315,0,0.5801878571510315,-0.4629550278186798,1.4567244052886963,6.77490234375,-64.94140625,179.99267578125
4.230123043060303,-1268816296,0,0.6834593415260315,-0.4194979965686798,1.6039412021636963,31.005859375,-93.20068359375,189.8193359375
4.230126857757568,-1268816277,0,0.7086058259010315,-0.2864413559436798,1.7089216709136963,55.2978515625,-70.73974609375,201.7822265625
4.233920097351074,-1268816299,1,1.1627237796783447,-0.5539763569831848,0.8179950714111328,192.3828125,79.16259765625,130.4931640625
4.23393702507019,-1268816280,1,1.2388956546783447,-0.6291716694831848,0.8433856964111328,210.0830078125,81.11572265625,140.380859375
4.256365060806274,-1268816258,0,0.8760862946510315,-0.206607386469841,1.7130720615386963,69.7021484375,-9.1552734375,208.80126953125
4.263931035995483,-1268816261,1,1.3392374515533447,-0.5869353413581848,0.9151630401611328,207.58056640625,64.5751953125,128.2958984375
4.263998031616211,-1268816242,1,1.3416788578033447,-0.4775603711605072,1.0079364776611328,193.84765625,64.697265625,95.27587890625
4.28657603263855,-1268816239,0,1.0333129167556763,-0.169498011469841,1.7504255771636963,84.16748046875,24.0478515625,187.8662109375
4.286643981933594,-1268816220,0,1.0789672136306763,-0.2652011215686798,1.8370954990386963,105.52978515625,1.46484375,151.4892578125
4.293896913528442,-1268816223,1,1.2215616703033447,-0.3503631055355072,1.1502704620361328,195.25146484375,64.697265625,89.35546875
4.316471099853516,-1268816201,0,1.1480590105056763,-0.4011874496936798,2.0111677646636963,115.78369140625,-33.14208984375,108.88671875
4.330304145812988,-1268816204,1,1.2640421390533447,-0.3913787305355072,1.2115497589111328,215.576171875,87.34130859375,135.80322265625
4.330312013626099,-1268816185,1,1.3587687015533447,-0.4507049024105072,1.2252216339111328,224.06005859375,95.76416015625,127.01416015625
4.346567869186401,-1268816182,0,1.1663695573806763,-0.4426913559436798,2.0563337802886963,106.93359375,-2.86865234375,107.7880859375
4.346685886383057,-1268816163,0,1.3060179948806763,-0.4529452621936798,2.0119001865386963,105.65185546875,55.6640625,132.2021484375
4.353862047195435,-1268816166,1,1.3846476078033447,-0.4980681836605072,1.2877216339111328,219.29931640625,101.9287109375,89.90478515625
4.3836610317230225,-1268816144,0,1.6859008073806763,-0.4409823715686798,2.1212751865386963,117.5537109375,118.5302734375,111.9384765625
4.383667945861816,-1268816125,0,1.7671996355056763,-0.5562167763710022,2.2636091709136963,112.548828125,128.2958984375,43.88427734375
4.385210990905762,-1268816147,1,1.1627237796783447,-0.4851287305355072,1.4869403839111328,204.28466796875,87.21923828125,65.73486328125
4.385216951370239,-1268816128,1,1.2933390140533447,-0.6679900288581848,1.6483173370361328,195.00732421875,73.30322265625,98.81591796875
4.412914037704468,-1268816092,1,1.2076456546783447,-1.1223357915878296,1.8482685089111328,192.138671875,99.30419921875,31.92138671875
4.436765909194946,-1268816089,0,1.6517211198806763,-0.8120761513710022,2.1083357334136963,135.68115234375,138.7939453125,24.71923828125
4.43677282333374,-1268816070,0,1.6751586198806763,-0.7507968544960022,1.9484236240386963,177.79541015625,173.4619140625,56.45751953125
4.444030046463013,-1268816073,1,1.1004679203033447,-1.2365936040878296,2.103639602661133,218.81103515625,85.26611328125,-22.705078125
4.466639995574951,-1268816051,0,1.7650023698806763,-0.6858554482460022,1.7958357334136963,197.57080078125,204.2236328125,62.744140625
4.481389760971069,-1268816054,1,1.2833292484283447,-1.3032439947128296,2.156618118286133,228.271484375,53.89404296875,-21.8505859375
4.482038974761963,-1268816035,1,1.2738077640533447,-1.5122283697128296,2.039674758911133,237.85400390625,-7.38525390625,-20.01953125
4.496811151504517,-1268816032,0,1.7183715105056763,-0.6275058388710022,1.6166365146636963,196.6552734375,222.35107421875,32.65380859375
4.496882915496826,-1268816013,0,1.6607543230056763,-0.7161288857460022,1.4437849521636963,192.19970703125,224.9755859375,3.84521484375
4.507194995880127,-1268816016,1,1.0780069828033447,-1.6689666509628296,1.8023700714111328,245.66650390625,-95.03173828125,-82.1533203125
4.532162189483643,-1268815994,0,1.5926390886306763,-0.7642245888710022,1.3414900302886963,182.43408203125,221.0693359375,4.5166015625
4.532749176025391,-1268815975,0,1.4647094011306763,-0.7271152138710022,1.1986677646636963,172.119140625,220.76416015625,2.3193359375
4.5343968868255615,-1268815997,1,0.9259074330329895,-1.6609100103378296,1.4237079620361328,270.263671875,-125.06103515625,-160.5224609375
4.5344038009643555,-1268815978,1,0.7227824330329895,-1.5798553228378296,1.3424091339111328,301.94091796875,-103.8818359375,-192.44384765625
4.556444883346558,-1268815956,0,1.2623168230056763,-0.6736484169960022,1.0009138584136963,162.53662109375,220.947265625,-10.6201171875
4.56379508972168,-1268815959,1,0.4566691517829895,-1.4087127447128296,1.2833271026611328,323.18115234375,-81.54296875,-210.63232421875
4.593557119369507,-1268815940,1,0.3509562611579895,-1.2412322759628296,1.0787372589111328,330.4443359375,-113.95263671875,-204.1015625
4.59440803527832,-1268815921,1,0.2335246205329895,-1.1342986822128296,0.8211688995361328,307.31201171875,-163.63525390625,-195.37353515625
4.616542100906372,-1268815937,0,1.1497679948806763,-0.6353183388710022,0.7902204990386963,156.92138671875,212.58544921875,-22.27783203125
4.61664891242981,-1268815918,0,0.9092894196510315,-0.5803866982460022,0.5751326084136963,151.06201171875,182.80029296875,-25.146484375
4.630457878112793,-1268815902,1,0.1070597767829895,-1.0468963384628296,0.6082782745361328,271.6064453125,-189.697265625,-199.951171875
4.631067991256714,-1268815883,1,-0.014033976942300797,-0.9265349507331848,0.3275165557861328,227.9052734375,-197.69287109375,-208.55712890625
4.6471569538116455,-1268815899,0,0.7515745759010315,-0.5335116982460022,0.4674665629863739,151.18408203125,147.0947265625,-12.63427734375
4.647228002548218,-1268815880,0,0.6063109040260315,-0.3843417465686798,0.2975446879863739,151.9775390625,106.38427734375,-6.65283203125
4.6472718715667725,-1268815861,0,0.4393187463283539,-0.2778964340686798,0.1542341411113739,150.5126953125,60.791015625,-22.3388671875
4.65389084815979,-1268815864,1,-0.1402546763420105,-0.8056853413581848,0.11804390698671341,197.44873046875,-183.4716796875,-219.17724609375
4.681948900222778,-1268815825,0,0.1944456845521927,-0.228335902094841,0.0175153985619545,154.6630859375,-13.427734375,-27.03857421875
4.685442209243774,-1268815828,1,-0.2059285044670105,-0.5896208882331848,-0.02746390551328659,158.99658203125,-169.677734375,-211.48681640625
4.706387042999268,-1268815806,0,0.061389047652482986,-0.103091761469841,0.0287458673119545,157.77587890625,-38.87939453125,-19.04296875
4.71378493309021,-1268815809,1,-0.1395222544670105,-0.4912322461605072,-0.08361624926328659,153.25927734375,-169.00634765625,-226.98974609375
4.736531019210815,-1268815787,0,0.09166248142719269,0.016293007880449295,-0.0767228826880455,144.95849609375,-89.05029296875,-1.953125
4.736613988876343,-1268815768,0,0.011584360152482986,0.171078160405159,-0.0718400701880455,142.27294921875,-136.3525390625,-25.0244140625
4.744401931762695,-1268815790,1,-0.2413288950920105,-0.4089568555355072,-0.11950492113828659,170.22705078125,-131.7138671875,-261.65771484375
4.744454860687256,-1268815771,1,-0.3997761607170105,-0.3029998242855072,-0.11193656176328659,175.47607421875,-100.76904296875,-268.98193359375
4.76646089553833,-1268815749,0,-0.11146251857280731,0.249203160405159,-0.010804913938045502,149.0478515625,-175.6591796875,-45.0439453125
4.7823100090026855,-1268815752,1,-0.6199910044670105,-0.0800994336605072,-0.1402568817138672,163.63525390625,-78.30810546875,-261.77978515625
4.782317161560059,-1268815733,1,-0.7584187388420105,0.1078888475894928,-0.1661357879638672,137.939453125,-85.14404296875,-229.06494140625
4.7966148853302,-1268815730,0,-0.1666382998228073,0.229427769780159,0.0243513360619545,149.0478515625,-200.74462890625,-34.5458984375
4.7967209815979,-1268815711,0,-0.2354859560728073,0.3029141128063202,-0.0010392889380455017,145.69091796875,-245.91064453125,1.77001953125
4.8040430545806885,-1268815714,1,-0.7654988169670105,0.1977325975894928,-0.2039775848388672,112.36572265625,-103.759765625,-209.1064453125
4.830721139907837,-1268815692,0,-0.1956910341978073,0.4826016128063202,0.013120867311954498,147.3388671875,-318.115234375,6.4697265625
4.83399510383606,-1268815695,1,-0.8165242075920105,0.3022247850894928,-0.2615947723388672,95.52001953125,-105.16357421875,-210.75439453125
4.834045886993408,-1268815676,1,-0.8853718638420105,0.4518829882144928,-0.2547588348388672,70.86181640625,-96.98486328125,-208.80126953125
4.856577157974243,-1268815673,0,-0.1388062685728073,0.5485195517539978,0.1835310161113739,154.78515625,-363.09814453125,-11.41357421875
4.856693983078003,-1268815654,0,-0.08021251857280731,0.6222500205039978,0.2318708598613739,145.1416015625,-357.84912109375,-22.8271484375
4.8638081550598145,-1268815657,1,-0.9190632700920105,0.5470978617668152,-0.1539287567138672,53.1005859375,-99.42626953125,-183.349609375
4.886512994766235,-1268815635,0,-0.10804454982280731,0.6459316611289978,0.1681501567363739,118.83544921875,-341.1865234375,-47.05810546875
4.886636018753052,-1268815616,0,-0.1534547060728073,0.6910976767539978,0.1486189067363739,82.58056640625,-321.044921875,-82.8857421875
4.896557807922363,-1268815638,1,-0.8851277232170105,0.6557404398918152,-0.12292288988828659,38.57421875,-112.24365234375,-154.23583984375
4.896567106246948,-1268815619,1,-0.8267781138420105,0.6347443461418152,-0.1531963348388672,30.09033203125,-112.85400390625,-137.3291015625
4.916849851608276,-1268815597,0,-0.2970093786716461,0.6596035361289978,0.1586286723613739,17.333984375,-297.36328125,-112.48779296875
4.930418014526367,-1268815600,1,-0.8419148325920105,0.6518341898918152,-0.10510062426328659,13.916015625,-115.29541015625,-134.8876953125
4.9463958740234375,-1268815561,0,-0.4063843786716461,0.6010097861289978,0.3346540629863739,-126.953125,-211.48681640625,-150.81787109375
4.953805923461914,-1268815564,1,-0.8094441294670105,0.7106720805168152,-0.06481742113828659,-69.88525390625,-85.9375,-119.68994140625
4.98204493522644,-1268815542,0,-0.5240601897239685,0.4545254409313202,0.4120466411113739,-181.45751953125,-192.3828125,-186.767578125
4.987308025360107,-1268815545,1,-0.8653523325920105,0.6772248148918152,0.12439156323671341,-112.4267578125,-80.9326171875,-95.703125
4.987317085266113,-1268815526,1,-0.8858601450920105,0.6520783305168152,0.2620868682861328,-112.1826171875,-91.97998046875,-82.09228515625
5.006664991378784,-1268815523,0,-0.5914430022239685,0.2628750503063202,0.5753767490386963,-190.49072265625,-225.4638671875,-219.1162109375
5.006762981414795,-1268815504,0,-0.6920289397239685,0.129818394780159,0.7990095615386963,-201.66015625,-283.5693359375,-251.40380859375
5.013743877410889,-1268815507,1,-0.8558308482170105,0.6811310648918152,0.2620868682861328,-115.05126953125,-94.29931640625,-68.115234375
5.036568880081177,-1268815485,0,-0.6978883147239685,-0.041812460869550705,1.0097029209136963,-230.224609375,-336.9140625,-267.51708984375
5.036661148071289,-1268815466,0,-0.7306031584739685,-0.4143710434436798,1.4074079990386963,-252.74658203125,-409.0576171875,-249.93896484375
5.043874979019165,-1268815488,1,-0.9232136607170105,0.6489045023918152,0.3114032745361328,-145.1416015625,-92.041015625,-39.9169921875
5.043966054916382,-1268815469,1,-0.9593464732170105,0.6391388773918152,0.4715595245361328,-172.66845703125,-80.26123046875,-21.42333984375
5.0689520835876465,-1268815447,0,-0.7860230803489685,-0.7205234169960022,1.8556501865386963,-212.0361328125,-442.56591796875,-160.33935546875
5.082474946975708,-1268815450,1,-1.1187703609466553,0.6584259867668152,0.6046161651611328,-173.27880859375,-67.138671875,-30.1513671875
5.0824830532073975,-1268815431,1,-1.1771199703216553,0.6930939555168152,0.6324481964111328,-161.43798828125,-56.5185546875,-23.86474609375
5.096592903137207,-1268815428,0,-0.6429566740989685,-0.8665195107460022,2.4318220615386963,-112.48779296875,-432.80029296875,0.9765625
5.096695899963379,-1268815409,0,-0.1793336123228073,-0.5994296669960022,2.8229353427886963,-48.52294921875,-328.43017578125,134.3994140625
5.131536960601807,-1268815390,0,0.3167601525783539,-0.4531894028186798,2.8922712802886963,-151.0009765625,-110.83984375,266.66259765625
5.134318828582764,-1268815412,1,-1.1639363765716553,0.7199494242668152,0.6295185089111328,-161.07177734375,-50.84228515625,11.5966796875
5.134325981140137,-1268815393,1,-1.2032430171966553,0.7155548930168152,0.6744403839111328,-183.7158203125,-54.931640625,43.76220703125
5.135473012924194,-1268815374,1,-1.1295125484466553,0.6471955180168152,0.8404560089111328,-208.19091796875,-44.61669921875,55.23681640625
5.156495809555054,-1268815371,0,0.7025023102760315,-0.8960605263710022,2.6688826084136963,-313.232421875,15.44189453125,336.7919921875
5.15658712387085,-1268815352,0,1.1832152605056763,-1.1995272636413574,2.9901716709136963,-369.9951171875,7.50732421875,380.67626953125
5.163703918457031,-1268815355,1,-0.9798542857170105,0.7001740336418152,1.0408954620361328,-186.95068359375,-33.447265625,44.98291015625
5.186470985412598,-1268815333,0,1.7901488542556763,-1.3569979667663574,3.5109236240386963,-304.38232421875,-27.9541015625,411.07177734375
5.194473028182983,-1268815336,1,-0.9127156138420105,0.7797638773918152,1.0853290557861328,-161.9873046875,-20.20263671875,38.0859375
5.2163989543914795,-1268815297,0,2.8321409225463867,-1.5029940605163574,4.138120651245117,-138.48876953125,168.701171875,428.22265625
5.230703830718994,-1268815300,1,-2.1756551265716553,0.4445587694644928,0.9134540557861328,-238.6474609375,-31.18896484375,415.95458984375
5.230710983276367,-1268815281,1,-0.7242390513420105,0.1340118944644928,1.4058856964111328,-165.1611328125,31.6162109375,278.1982421875
5.24655294418335,-1268815278,0,2.6041135787963867,-1.8928866386413574,3.3082869052886963,-80.26123046875,318.05419921875,422.36328125
5.246664047241211,-1268815259,0,2.4512815475463867,-2.0535311698913574,2.6754744052886963,-3.0517578125,333.19091796875,508.056640625
5.25376296043396,-1268815262,1,-0.029414836317300797,0.2802521288394928,1.4263935089111328,-84.89990234375,108.0322265625,77.0263671875
5.281069040298462,-1268815240,0,2.6368284225463867,-1.7544589042663574,2.8573591709136963,16.9677734375,387.75634765625,601.5625
5.286383867263794,-1268815243,1,0.2056925892829895,0.5102326273918152,1.4161396026611328,-77.33154296875,176.20849609375,33.63037109375
5.286393880844116,-1268815224,1,0.5985148549079895,0.6305939555168152,1.2589130401611328,-125.6103515625,180.11474609375,8.23974609375
5.30658483505249,-1268815221,0,2.9874143600463867,-1.6743807792663574,2.9149763584136963,15.80810546875,481.93359375,626.28173828125
5.306673049926758,-1268815202,0,3.2625608444213867,-1.6077303886413574,2.7460310459136963,32.1044921875,562.68310546875,635.009765625
5.313677787780762,-1268815205,1,0.1417277455329895,0.2055450975894928,0.8136005401611328,-150.2685546875,247.61962890625,-22.216796875
5.33632493019104,-1268815183,0,3.0965452194213867,-1.4160799980163574,2.0880720615386963,78.2470703125,570.1904296875,630.06591796875
5.344372987747192,-1268815186,1,-0.2410847544670105,0.2673126757144928,0.6790790557861328,-179.5654296875,335.99853515625,-53.03955078125
5.344456911087036,-1268815167,1,-0.5181843638420105,0.0817658007144928,0.7196063995361328,-238.8916015625,342.46826171875,-40.95458984375
5.366375923156738,-1268815164,0,2.6614866256713867,-1.1624178886413574,1.4970076084136963,77.81982421875,522.3388671875,641.05224609375
5.366497993469238,-1268815145,0,2.4944944381713867,-0.8638339638710022,1.1163923740386963,47.7294921875,501.953125,637.20703125
5.383232116699219,-1268815148,1,-0.4359089732170105,0.1657501757144928,0.6627216339111328,-273.3154296875,287.841796875,9.1552734375
5.396813869476318,-1268815126,0,2.2740354537963867,-0.5286288857460022,0.5848982334136963,-11.23046875,461.3037109375,593.20068359375
5.396865129470825,-1268815107,0,1.9720336198806763,-0.3728671371936798,0.1876814067363739,-54.0771484375,363.6474609375,529.78515625
5.404294013977051,-1268815129,1,-0.7938191294670105,0.1081329882144928,0.4835224151611328,-302.001953125,233.7646484375,94.17724609375
5.404365062713623,-1268815110,1,-1.1710164546966553,0.1135040819644928,0.4747333526611328,-289.794921875,228.271484375,189.14794921875
5.433375120162964,-1268815088,0,1.7918578386306763,-0.2879061996936798,0.0475446954369545,-70.3125,267.02880859375,511.3525390625
5.435765981674194,-1268815091,1,-1.3262898921966553,0.029275570064783096,0.4815692901611328,-254.45556640625,255.06591796875,288.51318359375
5.435772895812988,-1268815072,1,-1.3817098140716553,0.031228695064783096,0.7706317901611328,-219.17724609375,260.92529296875,330.62744140625
5.458504915237427,-1268815069,0,1.6368285417556763,-0.191714808344841,0.0807478204369545,-62.01171875,164.24560546875,526.3671875
5.485395908355713,-1268815033,0,1.5247679948806763,0.2748379409313202,0.1351911723613739,2.74658203125,58.7158203125,519.6533203125
5.515746116638184,-1268815014,0,1.3968383073806763,0.6071133017539978,0.1781599223613739,-55.7861328125,48.4619140625,403.6865234375
5.516534090042114,-1268814995,0,1.2684203386306763,0.8334316611289978,0.5416853427886963,-97.412109375,17.822265625,249.51171875
5.52970290184021,-1268815036,1,-0.9361531138420105,0.4042755663394928,0.9801044464111328,-161.376953125,87.40234375,428.7109375
5.529711008071899,-1268815017,1,-0.8978230357170105,0.1611115038394928,0.4100360870361328,-135.43701171875,135.6201171875,444.4580078125
5.5297160148620605,-1268814998,1,-0.8873249888420105,0.1098419725894928,0.5303974151611328,-80.4443359375,235.53466796875,444.76318359375
5.529719829559326,-1268814979,1,-0.7054402232170105,0.1457306444644928,0.7572040557861328,-74.8291015625,210.693359375,481.62841796875
5.5464770793914795,-1268814976,0,1.0801879167556763,0.6842617392539978,0.9078962802886963,-36.80419921875,-18.1884765625,170.22705078125
5.546618938446045,-1268814957,0,0.7244749665260315,0.7379726767539978,0.9415876865386963,40.95458984375,21.3623046875,158.99658203125
5.55387282371521,-1268814960,1,-0.6221882700920105,0.1655060350894928,0.5643329620361328,-14.95361328125,211.9140625,458.740234375
5.5830159187316895,-1268814938,0,0.4803343713283539,0.6654629111289978,0.8627302646636963,0.18310546875,50.84228515625,200.01220703125
5.585368871688843,-1268814941,1,-0.5311238169670105,0.2399689257144928,0.4881610870361328,35.15625,227.783203125,410.15625
5.585376024246216,-1268814922,1,-0.5167195200920105,0.1049591600894928,0.1458759307861328,126.15966796875,302.6123046875,380.37109375
5.6066529750823975,-1268814919,0,0.3111449182033539,0.7728847861289978,0.7638533115386963,-96.435546875,73.18115234375,178.5888671875
5.606764078140259,-1268814900,0,0.2215452939271927,0.7057461142539978,0.7369978427886963,-135.986328125,41.015625,125.06103515625
5.6137778759002686,-1268814903,1,-0.6793171763420105,0.4443146288394928,0.2933368682861328,102.9052734375,411.07177734375,367.0654296875
5.6374311447143555,-1268814881,0,0.11900623142719269,0.5458340048789978,0.7787458896636963,-128.173828125,-14.58740234375,89.78271484375
5.64441704750061,-1268814884,1,-0.6007038950920105,0.4174591600894928,0.4774188995361328,51.69677734375,341.49169921875,398.98681640625
5.644486904144287,-1268814865,1,-0.3211628794670105,0.7421662211418152,0.5062274932861328,-109.9853515625,147.39990234375,426.08642578125
5.666460037231445,-1268814862,0,0.048937875777482986,0.4694180190563202,0.6771833896636963,-184.6923828125,3.47900390625,122.37548828125
5.666630983352661,-1268814843,0,0.4007445275783539,0.6134609580039978,0.7291853427886963,-267.08984375,55.6640625,170.95947265625
5.683375835418701,-1268814846,1,0.5306437611579895,-0.0029509924352169037,-0.03820609301328659,-259.94873046875,-44.5556640625,425.96435546875
5.696958065032959,-1268814824,0,0.4915648400783539,0.8273281455039978,0.7872908115386963,-258.4228515625,23.49853515625,164.9169921875
5.697027921676636,-1268814805,0,0.7625609040260315,0.8305019736289978,1.1613142490386963,-283.935546875,21.484375,95.27587890625
5.703840017318726,-1268814827,1,0.1678507924079895,0.4208771288394928,0.5645771026611328,-141.78466796875,188.29345703125,207.70263671875
5.703917026519775,-1268814808,1,-0.014522258192300797,0.6535431742668152,0.2264423370361328,-102.11181640625,141.78466796875,173.2177734375
5.735702037811279,-1268814772,1,0.0640910267829895,0.7231232523918152,0.3055438995361328,-222.71728515625,106.3232421875,203.61328125
5.75676703453064,-1268814769,0,0.6898069977760315,0.8715175986289978,1.4701521396636963,-317.32177734375,92.6513671875,2.9296875
5.756888151168823,-1268814750,0,0.5015745759010315,0.8395351767539978,1.6984236240386963,-268.98193359375,62.3779296875,-74.89013671875
5.7641119956970215,-1268814753,1,0.1942179799079895,0.6896759867668152,0.4657001495361328,-278.62548828125,100.5859375,171.20361328125
5.7865519523620605,-1268814731,0,0.3550902307033539,0.6752285361289978,1.9335310459136963,-248.47412109375,56.09130859375,-152.64892578125
5.794045925140381,-1268814734,1,0.2515910267829895,0.6642853617668152,0.6693134307861328,-350.28076171875,73.8525390625,137.39013671875
5.794111013412476,-1268814715,1,0.3858683705329895,0.3940216600894928,0.9447040557861328,-486.083984375,10.55908203125,97.0458984375
5.816671133041382,-1268814712,0,0.11339099705219269,0.3837246596813202,2.1366560459136963,-245.91064453125,91.85791015625,-243.59130859375
5.816745042800903,-1268814693,0,-0.06654064357280731,0.086361363530159,2.1854841709136963,-260.7421875,159.72900390625,-338.56201171875
5.829993963241577,-1268814696,1,0.4752238392829895,0.013162288814783096,1.5030536651611328,-629.8828125,-97.2900390625,41.93115234375
5.848259925842285,-1268814674,0,-0.4293335974216461,-0.7505527138710022,1.8961775302886963,-299.8046875,210.5712890625,-427.06298828125
5.848268032073975,-1268814655,0,-0.7625855803489685,-1.4976229667663574,2.3886091709136963,-215.2099609375,171.0205078125,-441.650390625
5.8541100025177,-1268814677,1,0.4566691517829895,-0.3847869336605072,2.308473587036133,-699.5849609375,-202.2705078125,8.11767578125
5.854203939437866,-1268814658,1,0.2301066517829895,-0.7780974507331848,3.179811477661133,-592.34619140625,-290.1611328125,-38.39111328125
5.881720781326294,-1268814636,0,-0.7743043303489685,-1.9199862480163574,1.8434431552886963,22.8271484375,62.744140625,-283.87451171875
5.88371205329895,-1268814639,1,0.0626261830329895,-0.7766326069831848,2.567506790161133,-243.10302734375,-302.67333984375,-59.75341796875
5.906658172607422,-1268814617,0,-0.4603394567966461,-1.8443026542663574,1.5123884677886963,178.89404296875,75.1953125,-163.330078125
5.906786918640137,-1268814598,0,-0.3824585974216461,-1.4546542167663574,1.0736677646636963,299.560546875,107.11669921875,-32.40966796875
5.914198160171509,-1268814620,1,0.1658976674079895,-0.4682830274105072,1.6607685089111328,42.48046875,-182.06787109375,-144.6533203125
5.914262056350708,-1268814601,1,0.0716593861579895,-0.0669158399105072,1.4044208526611328,91.49169921875,-168.76220703125,-193.66455078125
5.936517953872681,-1268814579,0,-0.06458751857280731,-0.9031406044960022,0.3568708598613739,283.99658203125,79.77294921875,52.734375
5.9440178871154785,-1268814582,1,-0.1287800669670105,0.016091976314783096,0.9976825714111328,45.83740234375,-229.00390625,-165.83251953125
5.944128036499023,-1268814563,1,-0.1087605357170105,-0.1479705274105072,0.3756122589111328,67.81005859375,-202.81982421875,-89.2333984375
5.966526985168457,-1268814560,0,-0.050671499222517014,-0.4578280746936798,0.4047224223613739,271.30126953125,41.07666015625,96.98486328125
5.966592073440552,-1268814541,0,0.09190662205219269,-0.199039027094841,0.2177107036113739,302.3681640625,-8.6669921875,106.26220703125
5.9813079833984375,-1268814544,1,0.2882121205329895,-0.3022674024105072,0.6849384307861328,200.74462890625,-61.34033203125,-109.68017578125
5.9963531494140625,-1268814505,0,0.1876097470521927,0.2936367690563202,0.2660505473613739,302.30712890625,-26.18408203125,154.9072265625
6.003766059875488,-1268814508,1,0.6170695424079895,0.4523712694644928,-0.1524639129638672,292.29736328125,95.88623046875,-123.6572265625
6.034693002700806,-1268814486,0,0.3946410119533539,0.7965664267539978,0.2252790629863739,201.5380859375,1.15966796875,83.67919921875
6.037786960601807,-1268814489,1,0.3765910267829895,-0.1884978711605072,-0.3660869598388672,281.67724609375,151.06201171875,-101.86767578125
6.056546926498413,-1268814467,0,0.09385974705219269,0.7426113486289978,0.3114607036113739,201.171875,-15.869140625,89.84375
6.056670904159546,-1268814448,0,0.1939574033021927,0.7350429892539978,0.2550642192363739,201.171875,-44.5556640625,94.1162109375
6.064432859420776,-1268814470,1,0.5277140736579895,0.1166779100894928,-0.6260967254638672,269.47021484375,242.67578125,-94.482421875
6.064440965652466,-1268814451,1,0.9049113392829895,-0.3205779492855072,-0.6475811004638672,246.9482421875,393.98193359375,-124.81689453125
6.0865559577941895,-1268814429,0,0.1846800595521927,0.8578457236289978,0.2313825786113739,154.47998046875,-40.283203125,110.7177734375
6.093887090682983,-1268814432,1,0.8634074330329895,0.0700470507144928,-0.2559795379638672,320.61767578125,506.2255859375,-128.23486328125
6.093981027603149,-1268814413,1,0.8868449330329895,0.2280060350894928,0.007204063236713409,304.74853515625,509.8876953125,-74.64599609375
6.116870880126953,-1268814410,0,0.1902952939271927,0.9266933798789978,0.2567732036113739,114.3798828125,-22.39990234375,120.2392578125
6.116971969604492,-1268814391,0,0.2068968564271927,0.8986172080039978,0.2570173442363739,62.6220703125,-4.57763671875,118.65234375
6.131237983703613,-1268814394,1,0.8560832142829895,0.4284454882144928,0.4442157745361328,212.5244140625,376.5869140625,6.40869140625
6.146402835845947,-1268814372,0,0.2191038876771927,0.7482265830039978,0.3898298442363739,27.28271484375,-14.2822265625,119.44580078125
6.181111097335815,-1268814353,0,0.2606078088283539,0.6510586142539978,0.5697615146636963,37.17041015625,-54.931640625,143.4326171875
6.181705951690674,-1268814334,0,0.3807249963283539,0.6698574423789978,0.6742537021636963,48.40087890625,-88.8671875,165.34423828125
6.183851003646851,-1268814375,1,0.8902629017829895,0.3444611132144928,0.5035419464111328,66.5283203125,228.02734375,173.7060546875
6.183867931365967,-1268814356,1,1.0543253421783447,0.047097835689783096,0.6768817901611328,-32.53173828125,191.650390625,264.892578125
6.184868812561035,-1268814337,1,1.0831339359283447,-0.1218474805355072,1.0738544464111328,-35.70556640625,211.24267578125,271.97265625
6.206614971160889,-1268814315,0,0.5623655915260315,0.7767910361289978,0.7365095615386963,41.68701171875,-106.01806640625,163.4521484375
6.2067248821258545,-1268814296,0,0.6116819977760315,0.8493008017539978,0.7936384677886963,13.12255859375,-91.85791015625,140.56396484375
6.213886976242065,-1268814318,1,0.9774211049079895,-0.0788787305355072,1.3621845245361328,-49.13330078125,223.0224609375,260.8642578125
6.214017152786255,-1268814299,1,0.8326457142829895,-0.1958220899105072,1.6287860870361328,-114.2578125,181.15234375,291.8701171875
6.238179922103882,-1268814277,0,0.6487913727760315,0.8095058798789978,0.7584822177886963,-26.18408203125,-49.13330078125,111.2060546875
6.244163990020752,-1268814280,1,0.7489054799079895,-0.5144255757331848,1.8223896026611328,-183.9599609375,121.2158203125,383.36181640625
6.266632080078125,-1268814241,0,0.7859984040260315,0.8153652548789978,0.5660994052886963,-62.68310546875,-92.1630859375,62.01171875
6.281867027282715,-1268814244,1,0.6265910267829895,-1.5615447759628296,2.334108352661133,-261.65771484375,180.17578125,306.09130859375
6.296422004699707,-1268814222,0,0.8145628571510315,0.7169765830039978,0.8200056552886963,-58.53271484375,-145.263671875,48.52294921875
6.303870916366577,-1268814225,1,0.2884562611579895,-1.8884490728378296,2.821168899536133,-307.861328125,255.92041015625,179.19921875
6.303965091705322,-1268814206,1,-0.008418742567300797,-2.26540207862854,3.399538040161133,-345.03173828125,259.27734375,36.43798828125
6.334015130996704,-1268814203,0,0.7867308259010315,0.6972011923789978,0.9269392490386963,-64.5751953125,-130.79833984375,56.09130859375
6.3357720375061035,-1268814187,1,-0.5743367075920105,-2.40627121925354,3.890260696411133,-326.47705078125,168.76220703125,-158.75244140625
6.356902837753296,-1268814184,0,0.7886839509010315,0.7567715048789978,0.9806501865386963,-76.66015625,-105.5908203125,62.92724609375
6.357018947601318,-1268814165,0,0.7640257477760315,0.6232265830039978,1.0643904209136963,-58.16650390625,-105.89599609375,56.7626953125
6.357108116149902,-1268814146,0,1.6849242448806763,0.3832363784313202,0.9638044834136963,-50.6591796875,-138.7939453125,113.83056640625
6.366786956787109,-1268814168,1,-1.2049520015716553,-2.26149582862854,3.945192337036133,-292.90771484375,5.7373046875,-307.2509765625
6.366795063018799,-1268814149,1,-1.9605672359466553,-2.03249192237854,3.925905227661133,-267.39501953125,-107.84912109375,-437.5
6.386468887329102,-1268814127,0,2.7664670944213867,0.9340175986289978,0.5260603427886963,42.6025390625,-348.32763671875,171.38671875
6.394188165664673,-1268814130,1,-2.4698445796966553,-2.14113450050354,4.364625930786133,-322.57080078125,-193.90869140625,-531.06689453125
6.394295930862427,-1268814111,1,-2.5145223140716553,-1.6855682134628296,3.845338821411133,-356.201171875,-333.55712890625,-673.828125
6.416539907455444,-1268814108,0,0.9808226227760315,0.4010586440563202,1.4608747959136963,50.59814453125,-262.0849609375,55.7861328125
6.416608095169067,-1268814089,0,0.2254515439271927,-0.075259730219841,1.2001326084136963,-77.2705078125,-81.72607421875,59.4482421875
6.4305830001831055,-1268814092,1,-2.9781453609466553,-1.6071990728378296,3.745729446411133,-269.34814453125,-341.12548828125,-771.42333984375
6.446440935134888,-1268814070,0,-0.2135132998228073,-0.5742831826210022,0.7008650302886963,-147.3388671875,-110.7177734375,135.1318359375
6.453886985778809,-1268814073,1,-3.0545613765716553,-1.3486541509628296,3.729860305786133,-259.09423828125,-375.244140625,-786.2548828125
6.45401406288147,-1268814054,1,-3.0462605953216553,-1.3340057134628296,3.580446243286133,-280.33447265625,-424.25537109375,-771.728515625
6.48225998878479,-1268814051,0,0.5233030915260315,-0.012027304619550705,0.4513532817363739,-189.697265625,-287.9638671875,152.40478515625
6.483397006988525,-1268814032,0,1.3856078386306763,0.176693394780159,0.6740095615386963,-302.24609375,-259.70458984375,-15.5029296875
6.483978986740112,-1268814035,1,-3.1915242671966553,-1.3838104009628296,2.981325149536133,-271.17919921875,-451.35498046875,-816.162109375
6.506741046905518,-1268814013,0,1.7159301042556763,0.164486363530159,0.6276228427886963,-386.41357421875,-120.05615234375,-191.0400390625
6.513848781585693,-1268814016,1,-3.2952840328216553,-1.1299041509628296,2.197145462036133,-257.4462890625,-425.29296875,-810.24169921875
6.540095090866089,-1268813977,0,1.3587523698806763,0.062435586005449295,0.7640974521636963,-386.16943359375,-26.06201171875,-384.58251953125
6.544053077697754,-1268813980,1,-2.9166219234466553,-0.1884978711605072,1.1329364776611328,-239.1357421875,-247.13134765625,-675.47607421875
6.544167995452881,-1268813961,1,-2.6844441890716553,0.3083283007144928,0.7681903839111328,-205.322265625,-155.70068359375,-606.62841796875
6.567164897918701,-1268813958,0,0.9981566071510315,0.213070347905159,0.5094587802886963,-313.4765625,-75.01220703125,-375.42724609375
6.567226886749268,-1268813939,0,0.8155394196510315,0.4152188003063202,0.9061872959136963,-207.3974609375,-149.35302734375,-382.50732421875
6.580793857574463,-1268813942,1,-2.5020711421966553,0.7494904398918152,0.5552997589111328,-157.16552734375,-82.58056640625,-545.34912109375
6.596386194229126,-1268813920,0,0.7276487946510315,0.231625035405159,0.4511091411113739,-140.2587890625,-222.5341796875,-410.21728515625
6.603907823562622,-1268813923,1,-2.1571004390716553,1.2670685052871704,0.6043720245361328,-117.67578125,-12.939453125,-433.65478515625
6.60403299331665,-1268813904,1,-1.7059285640716553,1.4474884271621704,0.7801532745361328,-86.5478515625,41.44287109375,-300.537109375
6.634106874465942,-1268813901,0,0.4661742150783539,0.077816441655159,0.3661482036113739,-86.97509765625,-312.56103515625,-396.3623046875
6.634119987487793,-1268813882,0,0.4927855432033539,0.3388027846813202,0.4327985942363739,-22.64404296875,-364.92919921875,-329.04052734375
6.635693788528442,-1268813885,1,-1.3341023921966553,1.6281524896621704,1.1026630401611328,-116.39404296875,48.64501953125,-140.56396484375
6.656583070755005,-1268813863,0,0.6597777009010315,0.4371914565563202,0.3517439067363739,-19.775390625,-330.810546875,-310.9130859375
6.663985967636108,-1268813866,1,-0.7452351450920105,1.5234161615371704,1.5172138214111328,-128.7841796875,-30.21240234375,-33.63037109375
6.66410493850708,-1268813847,1,-0.037959758192300797,1.3119903802871704,1.2843036651611328,-89.4775390625,-106.689453125,-55.96923828125
6.68818998336792,-1268813844,0,0.7962523102760315,0.5538906455039978,0.4374372661113739,-89.41650390625,-278.13720703125,-331.1767578125
6.688196897506714,-1268813825,0,0.8760862946510315,0.4652676284313202,0.5158064365386963,-145.751953125,-245.361328125,-358.82568359375
6.715772867202759,-1268813806,0,0.6785765290260315,0.2758145034313202,0.5719587802886963,-151.123046875,-249.6337890625,-380.859375
6.716527938842773,-1268813787,0,0.4717894494533539,0.3451504409313202,0.3988630473613739,-54.5654296875,-334.16748046875,-344.6044921875
6.730211973190308,-1268813828,1,0.3414347767829895,1.2668243646621704,1.0562763214111328,-98.5107421875,-157.5927734375,-71.83837890625
6.730220079421997,-1268813809,1,0.4556925892829895,1.0168243646621704,0.6864032745361328,-126.64794921875,-147.3388671875,-67.2607421875
6.730224847793579,-1268813790,1,0.5775187611579895,0.7673127055168152,0.5448017120361328,-139.09912109375,-102.84423828125,-71.77734375
6.746587038040161,-1268813768,0,0.5511351227760315,0.5812343955039978,0.4010603129863739,-3.7841796875,-406.06689453125,-319.88525390625
6.75700306892395,-1268813771,1,0.4569132924079895,0.7470490336418152,0.3570575714111328,-153.50341796875,-84.9609375,-71.2890625
6.757012128829956,-1268813752,1,0.1971476674079895,0.6540314555168152,0.4534931182861328,-167.66357421875,-85.51025390625,-71.35009765625
6.7827348709106445,-1268813749,0,0.7222777009010315,0.6532558798789978,0.5180037021636963,-57.31201171875,-386.90185546875,-337.40234375
6.805476903915405,-1268813713,0,0.2730589807033539,0.6674160361289978,0.8793318271636963,-191.7724609375,-269.95849609375,-272.52197265625
6.813892841339111,-1268813716,1,-0.0760456919670105,0.7795197367668152,0.5867938995361328,-200.98876953125,-83.06884765625,-10.7421875
6.813975095748901,-1268813697,1,0.1048625111579895,0.6374298930168152,0.5946063995361328,-229.79736328125,-66.0400390625,37.90283203125
6.836645841598511,-1268813694,0,-0.08973400294780731,0.5180019736289978,0.7333357334136963,-153.13720703125,-242.431640625,-155.6396484375
6.836707830429077,-1268813675,0,0.06944568455219269,0.7369961142539978,0.8549177646636963,-185.546875,-196.59423828125,-25.146484375
6.844171047210693,-1268813678,1,-0.018428508192300797,0.7612091898918152,0.9444599151611328,-231.4453125,-36.376953125,73.73046875
6.866465091705322,-1268813656,0,0.07969959080219269,0.6071133017539978,0.7343122959136963,-252.685546875,-145.99609375,60.72998046875
6.866538047790527,-1268813637,0,0.4463988244533539,0.6510586142539978,0.9276716709136963,-379.638671875,-75.13427734375,157.2265625
6.8801281452178955,-1268813659,1,0.1488078236579895,0.5932404398918152,1.1478290557861328,-224.91455078125,-54.01611328125,121.27685546875
6.8801350593566895,-1268813640,1,0.3997843861579895,0.4723908007144928,1.2838153839111328,-207.6416015625,-56.7626953125,162.65869140625
6.89634895324707,-1268813618,0,0.3721800744533539,0.2943691909313202,1.1119978427886963,-515.13671875,32.77587890625,238.037109375
6.9039130210876465,-1268813621,1,0.6116984486579895,0.2006622850894928,1.3699970245361328,-167.48046875,-17.822265625,197.265625
6.903990030288696,-1268813602,1,0.8944132924079895,-0.1465056836605072,1.3529071807861328,-134.033203125,8.72802734375,215.39306640625
6.932227849960327,-1268813599,0,0.5357542634010315,-0.014224570244550705,1.4337751865386963,-558.349609375,102.60009765625,315.49072265625
6.932237148284912,-1268813580,0,1.0032836198806763,-0.246402308344841,2.0082380771636963,-523.74267578125,150.93994140625,376.0986328125
6.933943748474121,-1268813583,1,1.0404093265533447,-0.4590056836605072,1.3531513214111328,-102.5390625,37.65869140625,202.94189453125
6.956610918045044,-1268813561,0,1.4849730730056763,-0.3438144028186798,2.4418318271636963,-450.5615234375,246.88720703125,372.49755859375
6.963989019393921,-1268813564,1,1.1412394046783447,-0.7029021382331848,1.4066181182861328,-16.11328125,95.21484375,182.0068359375
6.9641029834747314,-1268813545,1,1.0587198734283447,-0.9839079976081848,1.5350360870361328,70.1904296875,155.1513671875,147.216796875
6.986633062362671,-1268813542,0,1.0396605730056763,-0.193912073969841,1.7936384677886963,-317.7490234375,313.29345703125,240.234375
6.986711025238037,-1268813523,0,0.6043577790260315,-0.2778964340686798,0.9725935459136963,-145.6298828125,281.92138671875,169.189453125
6.993858098983765,-1268813526,1,0.8887980580329895,-1.0315154790878296,1.4932880401611328,161.07177734375,182.4951171875,76.59912109375
7.016423940658569,-1268813504,0,0.4351683557033539,-0.038394492119550705,0.5770857334136963,-31.31103515625,229.06494140625,169.5556640625
7.0164408683776855,-1268813485,0,0.4879027307033539,0.188412144780159,0.2843610942363739,29.1748046875,178.77197265625,129.69970703125
7.031815052032471,-1268813507,1,0.6866496205329895,-0.9048064351081848,1.3507099151611328,228.759765625,174.9267578125,18.310546875
7.031821966171265,-1268813488,1,0.3573039174079895,-0.8862517476081848,1.2459735870361328,301.81884765625,178.955078125,-29.72412109375
7.052909851074219,-1268813452,1,0.1658976674079895,-0.9316619038581848,0.9283466339111328,408.14208984375,145.6298828125,-137.0849609375
7.080102920532227,-1268813449,0,0.07847888767719269,0.3456387221813202,0.0834333673119545,85.75439453125,16.05224609375,-18.98193359375
7.0801098346710205,-1268813430,0,0.023058969527482986,-0.3372226059436798,-0.2214982807636261,73.66943359375,-86.85302734375,-14.892578125
7.083725214004517,-1268813433,1,-0.056026164442300797,-0.7282927632331848,0.6007099151611328,399.5361328125,95.458984375,-202.57568359375
7.106410026550293,-1268813411,0,-0.4578980505466461,0.111996129155159,0.1915876567363739,129.08935546875,-59.50927734375,-55.11474609375
7.113894939422607,-1268813414,1,-0.2137410044670105,-0.5388396382331848,0.3804950714111328,345.8251953125,33.63037109375,-215.75927734375
7.113997936248779,-1268813395,1,-0.2579304575920105,-0.4004119336605072,0.1646747589111328,291.44287109375,-17.88330078125,-207.3974609375
7.139025926589966,-1268813392,0,-0.7210816740989685,-0.3045077621936798,0.0336286798119545,166.44287109375,-102.35595703125,-39.85595703125
7.139034986495972,-1268813373,0,-0.9117555022239685,-0.134097620844841,0.1034528985619545,242.7978515625,-240.1123046875,-21.78955078125
7.144181966781616,-1268813376,1,-0.3294636607170105,-0.036642398685216904,-0.1370830535888672,224.4873046875,-96.37451171875,-212.646484375
7.166648864746094,-1268813354,0,-1.0465210676193237,-0.007632773369550705,0.2096540629863739,338.43994140625,-474.853515625,11.71875
7.166749000549316,-1268813335,0,-0.8866090178489685,0.3517422378063202,0.6754744052886963,415.22216796875,-650.5126953125,36.31591796875
7.180686950683594,-1268813357,1,-0.7591511607170105,-0.1028045117855072,-0.09826468676328659,83.06884765625,-132.8125,-123.779296875
7.180695056915283,-1268813338,1,-0.3939167857170105,0.0678497850894928,-0.08996390551328659,68.05419921875,-150.08544921875,-185.24169921875
7.196441888809204,-1268813316,0,-0.3016480505466461,0.7062343955039978,1.3075544834136963,412.78076171875,-619.5068359375,61.70654296875
7.203798055648804,-1268813319,1,-0.5474812388420105,0.1176544725894928,-0.02599906176328659,98.57177734375,-97.5341796875,-243.10302734375
7.232099771499634,-1268813297,0,-0.048718374222517014,1.2291836738586426,1.4921247959136963,234.06982421875,-394.71435546875,-29.1748046875
7.232111930847168,-1268813278,0,-0.1610230654478073,1.3463711738586426,1.2946150302886963,83.43505859375,-172.18017578125,-135.31494140625
7.237993955612183,-1268813300,1,-0.7415730357170105,0.4150177538394928,0.05212593823671341,99.30419921875,-47.7294921875,-251.64794921875
7.238002061843872,-1268813281,1,-0.8546101450920105,0.6198517680168152,0.2440204620361328,88.623046875,-50.96435546875,-219.23828125
7.256580829620361,-1268813259,0,-0.3885621130466461,1.3937344551086426,1.1078474521636963,-5.31005859375,-84.89990234375,-183.65478515625
7.263994932174683,-1268813262,1,-0.8990437388420105,0.6874787211418152,0.2630634307861328,43.02978515625,-63.232421875,-207.21435546875
7.26407790184021,-1268813243,1,-0.9300495982170105,0.7721955180168152,0.4010028839111328,-1.89208984375,-87.58544921875,-175.10986328125
7.286463022232056,-1268813240,0,-0.4979371130466461,1.3468594551086426,0.9430525302886963,-95.27587890625,-121.52099609375,-241.02783203125
7.286571025848389,-1268813221,0,-0.6307496428489685,1.0355801582336426,1.3065779209136963,-123.1689453125,-228.82080078125,-257.32421875
7.293820858001709,-1268813224,1,-0.9341999888420105,0.8630158305168152,0.4166278839111328,-29.78515625,-74.0966796875,-147.3388671875
7.318703889846802,-1268813185,0,-0.1385621279478073,1.2765469551086426,2.2621443271636963,-307.861328125,-126.3427734375,-140.68603515625
7.332909822463989,-1268813188,1,-1.2842977046966553,1.0190216302871704,0.4407978057861328,-0.30517578125,7.26318359375,-123.71826171875
7.346541881561279,-1268813166,0,-0.1563843935728073,0.6598476767539978,2.4303572177886963,-344.8486328125,-122.25341796875,-196.96044921875
7.3540449142456055,-1268813169,1,-1.4398152828216553,1.0873810052871704,0.4808368682861328,-24.7802734375,26.79443359375,-74.52392578125
7.3820719718933105,-1268813147,0,0.026965219527482986,0.162533238530159,2.7047712802886963,-239.990234375,-81.23779296875,-276.06201171875
7.382079124450684,-1268813128,0,0.6453734040260315,-0.150943323969841,3.2689802646636963,-263.7939453125,-128.0517578125,-110.9619140625
7.383899927139282,-1268813150,1,-1.4119832515716553,1.2057892084121704,0.5389423370361328,-115.72265625,2.197265625,1.40380859375
7.383987903594971,-1268813131,1,-1.1758992671966553,1.1496368646621704,0.5877704620361328,-163.330078125,8.1787109375,53.7109375
7.406468868255615,-1268813109,0,0.6751585602760315,-0.5188632607460022,3.2072126865386963,-364.68505859375,-37.841796875,70.49560546875
7.413920164108276,-1268813112,1,-2.1636922359466553,2.31345534324646,0.4381122589111328,-106.93359375,-8.30078125,245.2392578125
7.414032936096191,-1268813093,1,-1.6866414546966553,1.0951935052871704,0.3172626495361328,-269.775390625,71.8994140625,298.27880859375
7.4365949630737305,-1268813090,0,1.4092894792556763,-1.1292147636413574,3.4718611240386963,-356.87255859375,24.4140625,137.02392578125
7.436677932739258,-1268813071,0,1.9319945573806763,-1.4727206230163574,3.6183454990386963,-256.40869140625,47.119140625,198.79150390625
7.444134950637817,-1268813074,1,-1.2625691890716553,0.8888947367668152,0.9322528839111328,-125.6103515625,245.42236328125,212.46337890625
7.466825008392334,-1268813052,0,2.4673948287963867,-1.5039706230163574,3.6840193271636963,-98.14453125,152.28271484375,335.63232421875
7.4808878898620605,-1268813055,1,-0.5731160044670105,0.7961212992668152,1.5137958526611328,-55.419921875,262.5732421875,166.32080078125
7.480895042419434,-1268813036,1,0.017704304307699203,0.6852814555168152,1.5780048370361328,-114.501953125,212.7685546875,119.140625
7.4966840744018555,-1268813033,0,2.9903440475463867,-1.6069979667663574,3.5221540927886963,-74.8291015625,341.064453125,398.4375
7.496712923049927,-1268813014,0,3.3467893600463867,-1.7107577323913574,3.2040388584136963,-118.10302734375,468.505859375,441.7724609375
7.5038721561431885,-1268813017,1,0.3114054799079895,0.8874298930168152,1.6075458526611328,-100.76904296875,143.5546875,127.86865234375
7.532472848892212,-1268812995,0,3.6998167037963867,-1.6765780448913574,2.9066755771636963,-179.931640625,545.0439453125,498.4130859375
7.53311014175415,-1268812976,0,4.023303031921387,-1.6780428886413574,2.8524763584136963,-199.8291015625,583.984375,577.69775390625
7.534901142120361,-1268812998,1,0.7579386830329895,0.7209259867668152,1.3226337432861328,-86.181640625,107.2998046875,90.2099609375
7.534909009933472,-1268812979,1,0.3607218861579895,0.1845490038394928,0.7547626495361328,-76.7822265625,203.4912109375,52.978515625
7.556493043899536,-1268812957,0,4.096056938171387,-1.7266268730163574,2.5143415927886963,-150.32958984375,618.95751953125,662.90283203125
7.5637898445129395,-1268812960,1,-0.1282917857170105,0.3930450975894928,0.6807880401611328,-78.0029296875,258.7890625,31.43310546875
7.58635401725769,-1268812921,0,3.8531370162963867,-1.5361971855163574,1.6874372959136963,-94.6044921875,582.51953125,778.74755859375
7.593786001205444,-1268812924,1,-0.2823445200920105,-0.0945037305355072,0.06189156323671341,-203.2470703125,287.29248046875,-54.6875
7.616733074188232,-1268812902,0,3.5579710006713867,-1.4512362480163574,1.4926130771636963,-63.53759765625,539.0625,808.59375
7.634935140609741,-1268812905,1,-0.4852253794670105,0.3810822069644928,0.5286884307861328,-172.607421875,225.15869140625,54.13818359375
7.634943008422852,-1268812886,1,-0.3514363169670105,0.020974788814783096,0.3382587432861328,-241.8212890625,163.14697265625,124.6337890625
7.6465418338775635,-1268812883,0,3.0713987350463867,-1.0127596855163574,1.1703474521636963,18.5546875,411.07177734375,802.734375
7.646682977676392,-1268812864,0,2.7210569381713867,-0.4736972153186798,0.8117048740386963,42.29736328125,295.95947265625,724.12109375
7.653759956359863,-1268812867,1,-0.8821980357170105,-0.3723357617855072,-0.3433818817138672,-297.607421875,280.82275390625,121.15478515625
7.68272590637207,-1268812845,0,2.5145139694213867,0.082699254155159,0.7936384677886963,0.67138671875,251.40380859375,574.8291015625
7.682733774185181,-1268812826,0,2.3348264694213867,0.3290371596813202,0.8771345615386963,-18.61572265625,252.25830078125,495.05615234375
7.6849119663238525,-1268812848,1,-1.1817586421966553,0.3124786913394928,0.4713153839111328,-217.34619140625,303.77197265625,169.677734375
7.684918165206909,-1268812829,1,-1.5833699703216553,0.8378693461418152,2.347291946411133,-169.49462890625,213.134765625,282.1044921875
7.706953048706055,-1268812807,0,2.4149045944213867,0.4181484878063202,0.7431013584136963,-13.85498046875,288.9404296875,466.1865234375
7.713960886001587,-1268812810,1,-0.7100788950920105,0.9057404398918152,2.922975540161133,-141.357421875,-210.51025390625,500.67138671875
7.714042901992798,-1268812791,1,-0.4747273325920105,0.6235138773918152,1.0391864776611328,-133.36181640625,-296.5087890625,556.09130859375
7.743067026138306,-1268812772,1,-0.4893757700920105,0.4240509569644928,0.4500751495361328,115.90576171875,204.7119140625,381.8359375
7.766786813735962,-1268812788,0,2.1741819381713867,0.7201504111289978,0.0870954766869545,-38.818359375,341.97998046875,421.7529296875
7.766809940338135,-1268812769,0,1.8785277605056763,1.0387539863586426,0.1061384454369545,-80.50537109375,194.39697265625,310.05859375
7.778826951980591,-1268812750,0,1.5628539323806763,1.0875821113586426,0.4769880473613739,-39.85595703125,55.60302734375,279.541015625
7.780824184417725,-1268812753,1,-0.7215535044670105,0.4511505663394928,0.7569599151611328,257.32421875,468.8720703125,268.24951171875
7.7808310985565186,-1268812734,1,-1.0511434078216553,0.4421173632144928,0.6820087432861328,251.953125,403.1982421875,270.751953125
7.797026872634888,-1268812731,0,1.3843871355056763,1.0438809394836426,0.5922224521636963,35.94970703125,-10.92529296875,236.87744140625
7.79711389541626,-1268812712,0,1.0660277605056763,0.9735683798789978,0.4882185161113739,-7.080078125,44.5556640625,155.517578125
7.803738832473755,-1268812715,1,-0.8394734263420105,0.4162384569644928,-0.07433890551328659,103.8818359375,180.908203125,355.712890625
7.831279993057251,-1268812693,0,0.5904417634010315,0.8270840048789978,0.4645368754863739,-113.037109375,108.154296875,109.80224609375
7.8337721824646,-1268812696,1,-0.1107136607170105,-0.0749724805355072,-0.004758827388286591,43.9453125,214.2333984375,417.29736328125
7.856589078903198,-1268812657,0,0.08800037205219269,0.5136074423789978,0.5162947177886963,-180.23681640625,50.1708984375,159.1796875
7.8639750480651855,-1268812660,1,-0.057002726942300797,0.2607208788394928,0.4464130401611328,14.95361328125,255.31005859375,295.10498046875
7.863996982574463,-1268812641,1,-0.2930867075920105,0.3364044725894928,0.2608661651611328,26.0009765625,262.8173828125,231.01806640625
7.886445760726929,-1268812638,0,0.06846912205219269,0.6647304892539978,0.5214216709136963,-177.978515625,-18.73779296875,218.994140625
7.893769025802612,-1268812622,1,-0.3463093638420105,0.5417267680168152,0.3985614776611328,-17.9443359375,245.54443359375,197.57080078125
7.916611909866333,-1268812619,0,0.3560667932033539,1.0577969551086426,0.7809431552886963,-257.9345703125,-21.30126953125,224.853515625
7.9166600704193115,-1268812600,0,0.7034788727760315,1.5629239082336426,1.0470564365386963,-321.77734375,9.46044921875,131.53076171875
7.9329328536987305,-1268812603,1,-0.3118855357170105,0.6366974711418152,0.4552021026611328,-111.14501953125,174.74365234375,235.9619140625
7.9329400062561035,-1268812584,1,-0.2567097544670105,0.6691681742668152,0.3001728057861328,-115.90576171875,148.25439453125,232.0556640625
7.946692943572998,-1268812581,0,0.4046507775783539,1.5187344551086426,1.4410994052886963,-336.60888671875,33.69140625,34.5458984375
7.946756839752197,-1268812562,0,0.1475706845521927,1.3344082832336426,1.5966169834136963,-305.5419921875,17.578125,-61.03515625
7.953779935836792,-1268812565,1,-0.2952839732170105,0.8615509867668152,0.3428974151611328,-133.4228515625,152.2216796875,205.4443359375
7.98371696472168,-1268812543,0,0.0059691257774829865,0.8866543173789978,1.2535994052886963,-265.56396484375,-55.0537109375,-94.970703125
7.985646963119507,-1268812546,1,-0.059444133192300797,0.6916291117668152,0.5428485870361328,-326.0498046875,22.3388671875,263.3056640625
7.986140012741089,-1268812527,1,0.1553996205329895,0.4001251757144928,0.5772724151611328,-438.17138671875,-32.28759765625,239.74609375
8.009504079818726,-1268812524,0,-0.036023061722517014,0.9174160361289978,1.6752302646636963,-219.29931640625,-90.4541015625,-125.1220703125
8.009512901306152,-1268812505,0,-0.1786011904478073,0.9113125205039978,1.7286970615386963,-217.041015625,-49.560546875,-165.771484375
8.013816833496094,-1268812508,1,0.3033488392829895,0.1044708788394928,1.0521259307861328,-541.68701171875,-168.76220703125,221.0693359375
8.036610841751099,-1268812486,0,-0.11146251857280731,0.7018398642539978,1.6322615146636963,-220.27587890625,12.39013671875,-240.966796875
8.036731004714966,-1268812467,0,-0.09608165919780731,0.7118496298789978,1.5299665927886963,-216.6748046875,106.93359375,-399.47509765625
8.04409408569336,-1268812489,1,0.3619425892829895,-0.1101287305355072,1.3765888214111328,-590.8203125,-281.494140625,221.49658203125
8.044158935546875,-1268812470,1,0.4342082142829895,-0.3999236524105072,1.8900165557861328,-531.1279296875,-344.1162109375,226.01318359375
8.066699028015137,-1268812448,0,0.3067503869533539,-0.4866366684436798,1.5829451084136963,-289.61181640625,118.7744140625,-503.662109375
8.080546140670776,-1268812451,1,0.5731242299079895,-0.8071501851081848,1.8385028839111328,-315.00244140625,-300.96435546875,187.19482421875
8.08055305480957,-1268812432,1,0.6722453236579895,-0.8818572163581848,1.4400653839111328,-92.8955078125,-191.2841796875,31.005859375
8.096468925476074,-1268812429,0,-0.4024781286716461,-1.1052889823913574,1.8739607334136963,-193.359375,91.1865234375,-483.94775390625
8.131171941757202,-1268812393,0,-0.4090699255466461,-1.3018221855163574,1.4056990146636963,284.72900390625,34.97314453125,-137.3291015625
8.133877038955688,-1268812396,1,-0.010860148817300797,0.1081329882144928,1.2208271026611328,15.5029296875,-208.55712890625,-60.36376953125
8.133991003036499,-1268812377,1,0.029667194932699203,0.1554962694644928,0.7821063995361328,64.0869140625,-207.70263671875,-7.080078125
8.156672954559326,-1268812374,0,-0.2469605654478073,-1.0962557792663574,0.8585798740386963,338.5009765625,21.30126953125,14.404296875
8.156770944595337,-1268812355,0,0.06602771580219269,-0.4917636215686798,0.5641462802886963,300.23193359375,52.24609375,120.05615234375
8.163877964019775,-1268812358,1,0.0853312611579895,-0.1245330274105072,0.4664325714111328,131.34765625,-151.67236328125,-20.01953125
8.187196016311646,-1268812336,0,0.09532459080219269,-0.3518710434436798,0.5907576084136963,253.2958984375,100.52490234375,162.53662109375
8.187203884124756,-1268812317,0,0.5875120759010315,0.4152188003063202,0.1356794536113739,205.74951171875,134.21630859375,187.19482421875
8.19429898262024,-1268812339,1,0.5421183705329895,-0.0827849805355072,-1.4005107879638672,289.12353515625,50.35400390625,-140.869140625
8.194334983825684,-1268812320,1,0.7808879017829895,0.8017365336418152,0.2420673370361328,371.4599609375,45.166015625,-172.9736328125
8.216372966766357,-1268812298,0,0.2986937463283539,0.243832066655159,0.2955915629863739,185.4248046875,75.50048828125,188.8427734375
8.231834888458252,-1268812301,1,0.3602336049079895,-0.0810759961605072,-0.1470928192138672,365.05126953125,110.04638671875,-104.43115234375
8.234219074249268,-1268812282,1,0.5042765736579895,0.3959747850894928,-0.3931865692138672,326.2939453125,204.52880859375,-74.3408203125
8.246608018875122,-1268812279,0,0.4007445275783539,0.4889492690563202,0.2470075786113739,220.21484375,9.521484375,232.60498046875
8.283506870269775,-1268812260,0,0.5013304352760315,0.7496914267539978,0.1915876567363739,202.69775390625,-6.04248046875,250.8544921875
8.284231901168823,-1268812241,0,0.5599241852760315,0.9818691611289978,0.1981794536113739,118.10302734375,17.4560546875,223.2666015625
8.286854982376099,-1268812263,1,0.8919718861579895,0.1410919725894928,-0.3731670379638672,259.1552734375,340.6982421875,-84.716796875
8.286861896514893,-1268812244,1,0.5465129017829895,0.5136505961418152,-0.2554912567138672,312.1337890625,446.96044921875,-105.5908203125
8.286866903305054,-1268812225,1,0.4464152455329895,0.3688751757144928,-0.1697978973388672,227.72216796875,460.0830078125,-67.3828125
8.30655288696289,-1268812222,0,0.5301390290260315,1.0831875801086426,0.2699567973613739,20.56884765625,55.6640625,155.8837890625
8.306666135787964,-1268812203,0,0.4820433557033539,1.0436367988586426,0.4401228129863739,-20.751953125,65.7958984375,94.17724609375
8.313827991485596,-1268812206,1,0.5421183705329895,0.2826935350894928,0.01355171948671341,145.5078125,380.67626953125,1.40380859375
8.336472034454346,-1268812184,0,0.4066039025783539,1.0072598457336426,0.5048201084136963,-10.498046875,57.12890625,78.125
8.344930171966553,-1268812187,1,0.5545695424079895,0.018045101314783096,0.1407489776611328,88.0126953125,380.2490234375,105.224609375
8.345043897628784,-1268812168,1,0.6605265736579895,-0.1394256055355072,0.3101825714111328,47.05810546875,393.49365234375,121.4599609375
8.366849184036255,-1268812165,0,0.3856078088283539,0.9896816611289978,0.5626814365386963,0.48828125,31.8603515625,80.38330078125
8.381058931350708,-1268812132,1,0.5491984486579895,-0.2685759961605072,0.8070087432861328,21.728515625,396.42333984375,161.7431640625
8.396602869033813,-1268812129,0,0.3675414025783539,0.9718593955039978,0.8510115146636963,-37.2314453125,-16.54052734375,95.458984375
8.396737098693848,-1268812110,0,0.4700804650783539,0.8817715048789978,1.1207869052886963,-55.48095703125,-0.244140625,100.830078125
8.403785943984985,-1268812113,1,0.1529582142829895,-0.7759001851081848,1.2449970245361328,-67.0166015625,360.65673828125,255.126953125
8.432313919067383,-1268812091,0,0.5269652009010315,0.9257168173789978,1.2484724521636963,-87.2802734375,75.98876953125,114.68505859375
8.433970928192139,-1268812094,1,0.2010539174079895,-1.0654510259628296,1.6163349151611328,-163.02490234375,316.162109375,347.96142578125
8.434050798416138,-1268812075,1,0.0787394642829895,-1.7590545415878296,2.197633743286133,-341.49169921875,285.58349609375,423.15673828125
8.456632852554321,-1268812072,0,0.6172972321510315,1.0802578926086426,1.2816755771636963,-139.16015625,143.85986328125,88.5009765625
8.45674204826355,-1268812053,0,0.4388304650783539,1.1090664863586426,1.2001326084136963,-137.3291015625,181.640625,0.06103515625
8.463804006576538,-1268812056,1,0.2088664174079895,-2.74611496925354,3.038698196411133,-498.22998046875,257.87353515625,476.50146484375
8.48737096786499,-1268812034,0,0.021105844527482986,0.4139980971813202,1.1364119052886963,-117.49267578125,110.53466796875,-50.59814453125
8.494024991989136,-1268812037,1,0.6881144642829895,-3.61549973487854,3.975954055786133,-427.30712890625,259.21630859375,261.29150390625
8.49410104751587,-1268812018,1,0.2042277455329895,-3.51125168800354,4.456178665161133,-174.25537109375,216.1865234375,-78.125
8.516568183898926,-1268812015,0,-0.1571168154478073,0.3558926284313202,1.0270369052886963,-105.1025390625,-28.9306640625,-16.90673828125
8.51662278175354,-1268811996,0,0.4969359338283539,0.9652675986289978,1.4098494052886963,-54.5654296875,-50.10986328125,-18.85986328125
8.531751871109009,-1268811999,1,-0.9769245982170105,-2.98097825050354,4.039430618286133,28.4423828125,35.82763671875,-363.95263671875
8.546841859817505,-1268811977,0,0.4149046838283539,0.6718105673789978,1.1823103427886963,-77.0263671875,-48.52294921875,-139.70947265625
8.546976089477539,-1268811958,0,0.2559691369533539,0.3866543471813202,1.0927107334136963,-64.3310546875,-124.69482421875,-164.61181640625
8.554550170898438,-1268811980,1,-1.8448445796966553,-2.65944504737854,3.093385696411133,-85.87646484375,-170.95947265625,-406.1279296875
8.554673910140991,-1268811961,1,-2.0240437984466553,-2.69679856300354,2.929323196411133,-363.22021484375,-288.14697265625,-399.5361328125
8.584408044815063,-1268811939,0,0.08629138767719269,0.094418004155159,1.2084333896636963,-19.22607421875,-197.69287109375,-106.01806640625
8.58626103401184,-1268811942,1,-2.3153035640716553,-2.79738450050354,3.591676712036133,-500.30517578125,-280.76171875,-439.8193359375
8.586268901824951,-1268811923,1,-2.8543660640716553,-2.78420090675354,4.798463821411133,-476.86767578125,-253.662109375,-592.22412109375
8.606625080108643,-1268811920,0,-0.2342652529478073,0.124447301030159,1.2577497959136963,14.83154296875,-285.21728515625,-33.69140625
8.606788873672485,-1268811901,0,0.1522093564271927,0.3307461440563202,1.2799665927886963,2.8076171875,-299.74365234375,-56.33544921875
8.616928100585938,-1268811904,1,-3.1749227046966553,-2.48097825050354,5.473512649536133,-373.71826171875,-291.68701171875,-734.4970703125
8.636528015136719,-1268811865,0,0.2535277307033539,0.246761754155159,0.3053571879863739,-49.62158203125,-434.38720703125,12.14599609375
8.64407205581665,-1268811868,1,-3.3414266109466553,-1.8791717290878296,4.164674758911133,-365.3564453125,-400.5126953125,-766.41845703125
8.666696071624756,-1268811846,0,0.6480589509010315,-0.6589999794960022,-0.5984513759613037,-194.27490234375,-529.11376953125,37.9638671875
8.680840015411377,-1268811849,1,-3.1133992671966553,-1.6465057134628296,3.592897415161133,-438.90380859375,-410.0341796875,-728.69873046875
8.696473836898804,-1268811827,0,1.6463500261306763,0.3983730971813202,0.4147321879863739,-110.3515625,-537.353515625,-79.58984375
8.696566104888916,-1268811808,0,2.0242795944213867,0.3063320815563202,0.7221052646636963,-216.30859375,-305.35888671875,-246.76513671875
8.73074197769165,-1268811789,0,1.5662719011306763,0.161800816655159,0.7133162021636963,-281.43310546875,-144.04296875,-334.04541015625
8.733927965164185,-1268811830,1,-2.6744344234466553,-1.6042693853378296,3.140748977661133,-386.8408203125,-319.091796875,-772.8271484375
8.733992099761963,-1268811811,1,-2.4942586421966553,-1.5302947759628296,2.926637649536133,-296.08154296875,-237.4267578125,-815.7958984375
8.756568193435669,-1268811770,0,1.2642699480056763,0.3453945815563202,0.5983259677886963,-196.96044921875,-238.76953125,-330.9326171875
8.756726026535034,-1268811751,0,1.1714965105056763,0.5531582236289978,0.7343122959136963,-117.431640625,-355.28564453125,-353.8818359375
8.764199018478394,-1268811792,1,-2.5645711421966553,-1.0342010259628296,2.497926712036133,-195.4345703125,-177.001953125,-800.6591796875
8.764336824417114,-1268811773,1,-2.8043172359466553,-0.1306365430355072,2.211793899536133,-170.59326171875,-184.5703125,-686.95068359375
8.764418125152588,-1268811754,1,-2.5487020015716553,0.5102326273918152,1.8761005401611328,-173.583984375,-204.52880859375,-586.60888671875
8.793231010437012,-1268811735,1,-2.2613484859466553,0.7946564555168152,1.4461688995361328,-136.77978515625,-162.90283203125,-535.5224609375
8.794471979141235,-1268811716,1,-2.1385457515716553,1.2624298334121704,0.9112567901611328,-61.4013671875,-73.66943359375,-433.16650390625
8.816834211349487,-1268811732,0,1.2537719011306763,0.7426113486289978,1.0463240146636963,-50.6591796875,-408.99658203125,-399.5361328125
8.81700587272644,-1268811713,0,1.1207152605056763,0.6820644736289978,1.3214704990386963,-63.8427734375,-316.71142578125,-469.05517578125
8.817020893096924,-1268811694,0,0.7095823884010315,0.3319668471813202,1.0443708896636963,-93.1396484375,-203.18603515625,-444.39697265625
8.830652952194214,-1268811697,1,-1.9964559078216553,1.4770294427871704,0.5440692901611328,-43.8232421875,-65.36865234375,-276.3671875
8.846850872039795,-1268811675,0,0.5704222321510315,0.3622402846813202,0.5055525302886963,-29.60205078125,-261.474609375,-350.03662109375
8.846938848495483,-1268811656,0,0.7154417634010315,0.5497402548789978,0.4491560161113739,13.12255859375,-376.8310546875,-303.28369140625
8.854140996932983,-1268811678,1,-1.3453328609466553,1.3556915521621704,0.2100849151611328,-102.72216796875,-123.47412109375,-88.80615234375
8.854238033294678,-1268811659,1,-0.6905476450920105,0.9406525492668152,0.3546161651611328,-152.77099609375,-150.45166015625,5.55419921875
8.88463807106018,-1268811637,0,0.8819456696510315,0.7028164267539978,0.4381696879863739,24.10888671875,-419.921875,-356.8115234375
8.885879755020142,-1268811640,1,-0.034541789442300797,0.5351349711418152,0.3084735870361328,-144.6533203125,-81.11572265625,-26.18408203125
8.906399011611938,-1268811601,0,0.8682737946510315,0.184994176030159,0.3480817973613739,6.4697265625,-458.740234375,-413.02490234375
8.91374397277832,-1268811604,1,0.1654093861579895,0.6276642680168152,0.5142841339111328,-97.900390625,66.58935546875,-109.43603515625
8.936887741088867,-1268811582,0,0.4617796838283539,0.2631191909313202,0.3104841411113739,-18.85986328125,-419.00634765625,-293.5791015625
8.944413900375366,-1268811585,1,0.1908000111579895,0.6825959086418152,0.6285419464111328,-149.7802734375,-3.72314453125,-55.84716796875
8.944529056549072,-1268811566,1,0.1969035267829895,0.6264435648918152,0.6148700714111328,-210.9375,-66.2841796875,-10.009765625
