sync_time,timestamp_ms,device_id,ax,ay,az,gx,gy,gz
0.006989002227783203,-1270708645,1,-0.5897074937820435,0.7556055784225464,0.8857390880584717,126.46484375,-39.00146484375,-154.84619140625
0.013874292373657227,-1270708631,0,-0.6685413122177124,0.4093257486820221,0.7163583040237427,83.8623046875,-36.68212890625,-65.91796875
0.014007091522216797,-1270708612,0,-0.7288440465927124,0.4237300455570221,0.6838876008987427,73.05908203125,-24.84130859375,-36.56005859375
0.04005908966064453,-1270708626,1,-0.42369183897972107,0.4382227659225464,0.8173797130584717,47.42431640625,-38.0859375,-95.5810546875
0.040067195892333984,-1270708607,1,-0.6600199937820435,0.4086817502975464,0.5036590099334717,23.37646484375,-33.50830078125,-44.7998046875
0.044202327728271484,-1270708593,0,-0.7434924840927124,0.4095698893070221,0.5928231477737427,71.83837890625,-48.33984375,-13.0615234375
0.058847904205322266,-1270708588,1,-0.6717387437820435,0.5029200315475464,0.44286802411079407,31.31103515625,-42.236328125,-39.794921875
0.07372522354125977,-1270708574,0,-0.7146838903427124,0.4059077799320221,0.5942879915237427,81.9091796875,-65.36865234375,-4.7607421875
0.07382917404174805,-1270708555,0,-0.6617053747177124,0.4671870768070221,0.5811043977737427,88.56201171875,-69.88525390625,-8.6669921875
0.10276412963867188,-1270708536,0,-0.6490100622177124,0.5064936876296997,0.5498543977737427,82.33642578125,-74.21875,-13.24462890625
0.11876130104064941,-1270708552,1,-0.6229106187820435,0.5361231565475464,0.44921568036079407,72.8759765625,-45.59326171875,-30.70068359375
0.11885833740234375,-1270708533,1,-0.5997172594070435,0.5637110471725464,0.5778777599334717,58.9599609375,-51.81884765625,-25.7568359375
0.12006902694702148,-1270708514,1,-0.6021586656570435,0.4550684690475464,0.35058286786079407,5.859375,-72.509765625,-18.61572265625
0.14316725730895996,-1270708517,0,-0.6353381872177124,0.4896480143070221,0.4507332742214203,66.22314453125,-81.97021484375,-9.46044921875
0.1431751251220703,-1270708498,0,-0.6192249059677124,0.4601069986820221,0.4617196023464203,57.55615234375,-118.34716796875,0.3662109375
0.14868712425231934,-1270708495,1,-0.5499125719070435,0.3405665159225464,0.23022152483463287,-20.69091796875,-96.19140625,-6.77490234375
0.16370034217834473,-1270708479,0,-0.5542834997177124,0.4452144205570221,0.3923836648464203,53.16162109375,-166.015625,10.25390625
0.1637861728668213,-1270708460,0,-0.4956897497177124,0.4913569986820221,0.5061532258987427,57.67822265625,-201.904296875,5.67626953125
0.18004512786865234,-1270708476,1,-0.45396527647972107,0.3505762815475464,0.20898129045963287,-9.27734375,-108.0322265625,15.2587890625
0.19064903259277344,-1270708457,1,-0.44468793272972107,0.3752344846725464,0.18627621233463287,26.79443359375,-121.64306640625,37.04833984375
0.19502830505371094,-1270708441,0,-0.4043811559677124,0.4474116861820221,0.5955086946487427,48.095703125,-213.92822265625,-7.87353515625
0.20875906944274902,-1270708438,1,-0.37876996397972107,0.4345606565475464,0.36230161786079407,74.8291015625,-154.78515625,50.35400390625
0.22366833686828613,-1270708422,0,-0.3482288122177124,0.3917476236820221,0.5928231477737427,39.794921875,-215.88134765625,-8.48388671875
0.22378015518188477,-1270708403,0,-0.2222522497177124,0.3509761393070221,0.6279793977737427,38.87939453125,-194.39697265625,0.6103515625
0.2433462142944336,-1270708419,1,-0.28624066710472107,0.5161036252975464,0.6320769786834717,97.65625,-161.56005859375,45.8984375
0.24335813522338867,-1270708400,1,-0.19126997888088226,0.4738672971725464,0.7873504161834717,90.14892578125,-126.64794921875,46.69189453125
0.26804018020629883,-1270708381,1,-0.21519576013088226,0.4072169065475464,0.6440398693084717,78.7353515625,-96.98486328125,57.12890625
0.26905322074890137,-1270708362,1,-0.29454144835472107,0.4025782346725464,0.45336607098579407,75.13427734375,-81.72607421875,74.951171875
0.289135217666626,-1270708367,0,-0.3086780309677124,0.3607417643070221,0.5957528352737427,45.83740234375,-146.30126953125,43.15185546875
0.2891421318054199,-1270708348,0,-0.3963245153427124,0.4491206705570221,0.7241708040237427,48.88916015625,-169.0673828125,62.5
0.29904627799987793,-1270708343,1,-0.36460980772972107,0.4995020627975464,0.48656919598579407,94.05517578125,-103.271484375,92.46826171875
0.31405115127563477,-1270708329,0,-0.3811877965927124,0.4547359049320221,0.7820321321487427,25.0244140625,-182.373046875,61.03515625
0.31412291526794434,-1270708310,0,-0.2915881872177124,0.4266597330570221,0.8347665071487427,1.708984375,-166.3818359375,51.513671875
0.33037304878234863,-1270708324,1,-0.30992230772972107,0.6467188596725464,0.7949187755584717,86.48681640625,-119.07958984375,88.9892578125
0.3463451862335205,-1270708291,0,-0.2376331090927124,0.3460933268070221,0.7712899446487427,-30.3955078125,-114.68505859375,42.05322265625
0.3589820861816406,-1270708288,1,-0.26573285460472107,0.4853419065475464,0.8984344005584717,-6.28662109375,-69.51904296875,65.24658203125
0.373676061630249,-1270708272,0,-0.2793811559677124,0.2960444986820221,0.7251473665237427,-53.3447265625,-64.27001953125,39.55078125
0.3737640380859375,-1270708253,0,-0.3506702184677124,0.2889644205570221,0.7271004915237427,-65.4296875,-59.87548828125,29.60205078125
0.3941643238067627,-1270708269,1,-0.28599652647972107,0.4455469846725464,0.6359832286834717,-44.25048828125,-55.0537109375,62.5
0.39417314529418945,-1270708250,1,-0.33140668272972107,0.4526270627975464,0.44872739911079407,-43.02978515625,-69.2138671875,57.80029296875
0.40392112731933594,-1270708234,0,-0.3711780309677124,0.2440425455570221,0.7290536165237427,-48.828125,-92.28515625,14.22119140625
0.4188220500946045,-1270708231,1,-0.29136762022972107,0.3698633909225464,0.46581724286079407,-6.2255859375,-99.91455078125,45.59326171875
0.41889405250549316,-1270708212,1,-0.13243208825588226,0.3657130002975464,0.7753875255584717,23.5595703125,-118.59130859375,50.35400390625
0.44175004959106445,-1270708215,0,-0.3147815465927124,0.2208491861820221,0.8137704133987427,-33.75244140625,-133.23974609375,9.27734375
0.4417593479156494,-1270708196,0,-0.2171252965927124,0.1776362955570221,0.9160653352737427,-27.34375,-138.00048828125,20.263671875
0.44867920875549316,-1270708193,1,-0.08213911950588226,0.3112696409225464,1.0905730724334717,26.2451171875,-99.365234375,59.87548828125
0.46385931968688965,-1270708177,0,-0.1309436559677124,0.1598140299320221,0.9956551790237427,-36.07177734375,-108.94775390625,44.921875
0.49036407470703125,-1270708174,1,0.018935102969408035,0.3007715940475464,1.1665008068084717,9.765625,-62.19482421875,74.70703125
0.49048423767089844,-1270708155,1,0.006483931094408035,0.3637598752975464,1.0314910411834717,-27.40478515625,-36.1328125,116.3330078125
0.49483513832092285,-1270708158,0,-0.1643909215927124,0.1759273111820221,1.0242196321487427,-53.64990234375,-69.27490234375,83.31298828125
0.4948420524597168,-1270708139,0,-0.1927112340927124,0.1749507486820221,1.0620614290237427,-68.66455078125,-60.11962890625,106.4453125
0.5088403224945068,-1270708136,1,-0.07969771325588226,0.4672755002975464,0.8896453380584717,-32.5927734375,-32.04345703125,137.75634765625
0.5239431858062744,-1270708103,0,-0.2012561559677124,0.2171870768070221,1.1409188508987427,-45.10498046875,-70.98388671875,96.25244140625
0.5439972877502441,-1270708117,1,-0.12120161950588226,0.6105860471725464,0.9162566661834717,-10.07080078125,-37.04833984375,137.451171875
0.5440061092376709,-1270708098,1,-0.053574662655591965,0.6718653440475464,1.0812957286834717,5.92041015625,-31.31103515625,128.35693359375
0.5535221099853516,-1270708084,0,-0.0926135703921318,0.2435542643070221,1.2708016633987427,-39.61181640625,-52.30712890625,78.06396484375
0.5686492919921875,-1270708079,1,0.048231977969408035,0.7333887815475464,1.2944304943084717,13.671875,0.3662109375,110.65673828125
0.5687012672424316,-1270708060,1,0.11219681799411774,0.7082422971725464,1.3823211193084717,-7.38525390625,39.48974609375,109.31396484375
0.5922412872314453,-1270708065,0,-0.029625289142131805,0.2206050455570221,1.3293954133987427,-43.45703125,-20.56884765625,69.82421875
0.59228515625,-1270708046,0,0.009193070232868195,0.2059566080570221,1.3113290071487427,-45.95947265625,19.04296875,77.08740234375
0.6306061744689941,-1270708024,1,0.17054642736911774,0.7238672971725464,1.2480437755584717,-60.6689453125,114.6240234375,121.9482421875
0.6306149959564209,-1270708005,1,0.09022416174411774,0.7809962034225464,1.2004363536834717,-54.01611328125,150.08544921875,127.86865234375
0.6468310356140137,-1270708027,0,0.0023571327328681946,0.2008296549320221,1.3237801790237427,-40.95458984375,39.36767578125,89.29443359375
0.6468400955200195,-1270708008,0,-0.035728804767131805,0.2416011393070221,1.3279305696487427,-32.71484375,46.32568359375,90.63720703125
0.6468451023101807,-1270707989,0,-0.013756148517131805,0.1969234049320221,1.3633309602737427,-25.69580078125,64.0869140625,85.5712890625
0.6589102745056152,-1270707986,1,-0.006211381405591965,0.7595118284225464,1.1384246349334717,-47.7294921875,148.92578125,106.87255859375
0.6739580631256104,-1270707970,0,0.029212601482868195,0.1852046549320221,1.3745614290237427,-23.86474609375,85.26611328125,83.251953125
0.6740241050720215,-1270707951,0,0.0973278358578682,0.2396480143070221,1.3645516633987427,-26.18408203125,106.689453125,91.24755859375
0.6931822299957275,-1270707967,1,0.09388627111911774,0.6994532346725464,1.1896941661834717,-41.50390625,132.99560546875,62.255859375
0.6931912899017334,-1270707948,1,0.20619095861911774,0.6818751096725464,1.3132293224334717,-35.82763671875,146.30126953125,55.6640625
0.7039401531219482,-1270707932,0,0.0946422889828682,0.1952144205570221,1.3350106477737427,-23.681640625,129.7607421875,102.1728515625
0.7188451290130615,-1270707929,1,0.17835892736911774,0.6838282346725464,1.2582976818084717,-44.73876953125,172.8515625,63.4765625
0.7189922332763672,-1270707910,1,0.15174759924411774,0.6943262815475464,1.1960418224334717,-50.35400390625,180.0537109375,64.14794921875
0.7419891357421875,-1270707913,0,0.0685192421078682,0.2191402018070221,1.3376961946487427,-19.83642578125,157.28759765625,117.1875
0.7419970035552979,-1270707894,0,0.054847367107868195,0.2098628580570221,1.3293954133987427,-20.3857421875,175.84228515625,120.7275390625
0.7517921924591064,-1270707891,1,0.14613236486911774,0.7094630002975464,1.1584441661834717,-46.44775390625,183.28857421875,53.3447265625
0.7639400959014893,-1270707875,0,0.042396195232868195,0.2169429361820221,1.2737313508987427,-14.95361328125,183.59375,124.3896484375
0.7894320487976074,-1270707872,1,0.12147416174411774,0.7245997190475464,1.0590789318084717,-48.4619140625,184.326171875,33.8134765625
0.7894399166107178,-1270707853,1,0.13636673986911774,0.7058008909225464,1.0729949474334717,-41.32080078125,171.0205078125,6.89697265625
0.7936770915985107,-1270707839,0,0.060706742107868195,0.2276851236820221,1.3181649446487427,-8.97216796875,165.58837890625,113.76953125
0.8088600635528564,-1270707834,1,0.19081009924411774,0.7158106565475464,1.1379363536834717,-33.38623046875,168.3349609375,-5.37109375
0.8242752552032471,-1270707820,0,0.1307750940322876,0.1991206705570221,1.3350106477737427,0.06103515625,168.9453125,113.1591796875
0.824371337890625,-1270707801,0,0.1251598596572876,0.2398921549320221,1.3416024446487427,11.29150390625,162.7197265625,117.1875
0.8424532413482666,-1270707815,1,0.27162066102027893,0.6611231565475464,1.1686980724334717,-24.71923828125,175.048828125,-9.70458984375
0.842461109161377,-1270707796,1,0.29456987977027893,0.6635645627975464,1.0983855724334717,-22.216796875,182.0068359375,12.451171875
0.8535730838775635,-1270707782,0,0.0807262733578682,0.2572261393070221,1.2810555696487427,22.0947265625,164.12353515625,118.22509765625
0.8688492774963379,-1270707760,1,0.18202103674411774,0.6537989377975464,0.9606902599334717,-2.74658203125,163.51318359375,42.236328125
0.890728235244751,-1270707763,0,0.0731579139828682,0.2154780924320221,1.2515145540237427,27.34375,152.40478515625,115.1123046875
0.8907361030578613,-1270707744,0,0.1630016565322876,0.2188960611820221,1.2437020540237427,33.99658203125,141.54052734375,115.3564453125
0.8987460136413574,-1270707741,1,0.24671830236911774,0.7421778440475464,1.0349090099334717,21.6064453125,164.73388671875,34.423828125
0.9135563373565674,-1270707725,0,0.1542125940322876,0.2716304361820221,1.2397958040237427,48.828125,141.41845703125,107.11669921875
0.9304370880126953,-1270707722,1,0.17201127111911774,0.8046778440475464,1.0209929943084717,24.4140625,174.98779296875,28.62548828125
0.9414441585540771,-1270707703,1,0.17567338049411774,0.7162989377975464,0.9348113536834717,10.8642578125,168.76220703125,10.25390625
0.9469702243804932,-1270707706,0,0.1261364221572876,0.2684566080570221,1.1975594758987427,55.84716796875,152.77099609375,93.81103515625
0.9469811916351318,-1270707687,0,0.1302868127822876,0.2367183268070221,1.1340829133987427,41.44287109375,147.0947265625,78.857421875
0.9588451385498047,-1270707684,1,0.17909134924411774,0.6611231565475464,0.8544890880584717,-8.97216796875,150.7568359375,3.96728515625
0.9763302803039551,-1270707668,0,0.1376110315322876,0.2218257486820221,1.0481454133987427,32.28759765625,145.1416015625,66.5283203125
0.9943673610687256,-1270707665,1,0.19544877111911774,0.6489161252975464,0.7495086193084717,-17.88330078125,141.90673828125,-2.44140625
0.9943752288818359,-1270707646,1,0.15125931799411774,0.5839747190475464,0.6166961193084717,-10.498046875,128.47900390625,-12.8173828125
1.0042951107025146,-1270707649,0,0.1456676721572876,0.2254878580570221,0.9583016633987427,35.46142578125,134.70458984375,49.6826171875
1.0044422149658203,-1270707630,0,0.1327282190322876,0.2137691080570221,0.8726083040237427,37.65869140625,118.95751953125,33.69140625
1.0402133464813232,-1270707611,0,0.0907360389828682,0.2376948893070221,0.7954598665237427,30.76171875,102.60009765625,18.798828125
1.0487580299377441,-1270707627,1,0.14539994299411774,0.5334376096725464,0.5744597911834717,-4.8828125,110.83984375,-22.3388671875
1.0488770008087158,-1270707608,1,0.08875931799411774,0.5019434690475464,0.5104949474334717,-14.58740234375,89.111328125,-24.5361328125
1.0497891902923584,-1270707589,1,0.0028218217194080353,0.3483790159225464,0.46801450848579407,-24.5361328125,61.03515625,-29.296875
1.0638329982757568,-1270707575,0,-0.011314742267131805,0.0926753580570221,0.7256356477737427,7.62939453125,65.0634765625,-1.220703125
1.0902190208435059,-1270707570,1,-0.005478959530591965,0.1826075166463852,0.6008269786834717,4.45556640625,57.43408203125,-16.66259765625
1.0902271270751953,-1270707551,1,-0.07090865075588226,0.2109278291463852,0.5424773693084717,24.7802734375,61.58447265625,7.8125
1.094452142715454,-1270707556,0,-0.1319202184677124,0.1280757486820221,0.7178231477737427,34.36279296875,52.734375,26.67236328125
1.0944621562957764,-1270707537,0,-0.1888049840927124,0.1688472330570221,0.6956063508987427,38.87939453125,32.77587890625,42.29736328125
1.10886812210083,-1270707532,1,-0.19664107263088226,0.2665919065475464,0.5300261974334717,34.48486328125,50.96435546875,24.169921875
1.1238760948181152,-1270707518,0,-0.2386096715927124,0.2088862955570221,0.6873055696487427,37.17041015625,16.17431640625,46.875
1.143139123916626,-1270707496,1,-0.29625043272972107,0.3852442502975464,0.5119597911834717,20.01953125,25.93994140625,32.2265625
1.153696060180664,-1270707499,0,-0.2791370153427124,0.2333003580570221,0.6799813508987427,23.3154296875,6.77490234375,45.2880859375
1.1538002490997314,-1270707480,0,-0.3160022497177124,0.2662593424320221,0.6616708040237427,6.16455078125,-4.69970703125,31.31103515625
1.167829990386963,-1270707477,1,-0.36216840147972107,0.3662012815475464,0.49486997723579407,4.08935546875,1.89208984375,25.0244140625
1.191749095916748,-1270707461,0,-0.3721545934677124,0.2203609049320221,0.6716805696487427,0.8544921875,-17.76123046875,17.333984375
1.1924772262573242,-1270707442,0,-0.4075549840927124,0.2118159830570221,0.7371102571487427,-11.1083984375,-25.2685546875,13.73291015625
1.198573112487793,-1270707458,1,-0.34263715147972107,0.2853907346725464,0.6020476818084717,7.87353515625,-10.3759765625,18.1884765625
1.1986889839172363,-1270707439,1,-0.38682660460472107,0.2709864377975464,0.7294890880584717,-0.79345703125,-17.7001953125,22.94921875
1.2411093711853027,-1270707420,1,-0.39903363585472107,0.2795313596725464,0.7978484630584717,-9.82666015625,-11.962890625,24.47509765625
1.241117238998413,-1270707401,1,-0.44419965147972107,0.3019922971725464,0.7883269786834717,-8.36181640625,-6.4697265625,26.2451171875
1.2468762397766113,-1270707423,0,-0.4327014684677124,0.1703120768070221,0.7666512727737427,-18.9208984375,-22.15576171875,13.97705078125
1.2468841075897217,-1270707404,0,-0.4571155309677124,0.1839839518070221,0.7861825227737427,-15.7470703125,-14.95361328125,19.53125
1.2588281631469727,-1270707382,1,-0.40440472960472107,0.2971094846725464,0.8461883068084717,4.2724609375,9.21630859375,29.4189453125
1.2738711833953857,-1270707385,0,-0.4434436559677124,0.2081538736820221,0.8040047883987427,-11.5966796875,-10.009765625,25.2685546875
1.2739651203155518,-1270707366,0,-0.4336780309677124,0.2672359049320221,0.8245126008987427,1.40380859375,0.06103515625,41.07666015625
1.2944681644439697,-1270707363,1,-0.41319379210472107,0.4179590940475464,0.7858855724334717,14.2822265625,26.2451171875,38.330078125
1.2944769859313965,-1270707344,1,-0.5274516344070435,0.5231837034225464,0.6718719005584717,19.53125,20.99609375,32.470703125
1.304037094116211,-1270707347,0,-0.4651721715927124,0.3529292643070221,0.8452645540237427,6.9580078125,1.3427734375,39.6728515625
1.3187272548675537,-1270707325,1,-0.43614301085472107,0.5410059690475464,0.7863738536834717,23.193359375,10.3759765625,21.6064453125
1.3407831192016602,-1270707311,0,-0.3897327184677124,0.4178706705570221,0.9690438508987427,-3.7841796875,-9.21630859375,21.728515625
1.341374158859253,-1270707292,0,-0.3814319372177124,0.4159175455570221,1.0061532258987427,-6.77490234375,4.2724609375,21.240234375
1.3486452102661133,-1270707306,1,-0.45494183897972107,0.6122950315475464,0.9155242443084717,14.22119140625,10.07080078125,26.4892578125
1.3487462997436523,-1270707287,1,-0.45323285460472107,0.6603907346725464,0.9453094005584717,8.60595703125,20.6298828125,18.798828125
1.366358995437622,-1270707273,0,-0.3384631872177124,0.4393550455570221,1.0188485383987427,-5.31005859375,22.94921875,19.6533203125
1.3894071578979492,-1270707268,1,-0.45811566710472107,0.7473047971725464,0.9392058849334717,0.42724609375,38.4521484375,7.9345703125
1.3937561511993408,-1270707254,0,-0.3706897497177124,0.4554683268070221,1.0127450227737427,1.15966796875,41.8701171875,10.3759765625
1.3938722610473633,-1270707235,0,-0.3841174840927124,0.4720698893070221,0.9929696321487427,6.8359375,55.23681640625,-7.080078125
1.4093141555786133,-1270707232,1,-0.46275433897972107,0.7495020627975464,0.7568328380584717,-1.0986328125,39.9169921875,-27.9541015625
1.4238080978393555,-1270707216,0,-0.3479846715927124,0.4654780924320221,0.9880868196487427,10.19287109375,62.01171875,-28.13720703125
1.4434611797332764,-1270707213,1,-0.41294965147972107,0.7326563596725464,0.7561004161834717,13.7939453125,36.56005859375,-44.98291015625
1.4434711933135986,-1270707194,1,-0.33677777647972107,0.7285059690475464,0.7243621349334717,24.5361328125,25.5126953125,-54.931640625
1.4535951614379883,-1270707197,0,-0.3035510778427124,0.5040522813796997,0.9631844758987427,14.5263671875,71.2890625,-44.7998046875
1.453695297241211,-1270707178,0,-0.2364124059677124,0.4837886393070221,0.9846688508987427,11.16943359375,76.96533203125,-61.09619140625
1.4687581062316895,-1270707175,1,-0.45982465147972107,0.7685450315475464,0.7082488536834717,20.99609375,15.07568359375,-43.701171875
1.4908881187438965,-1270707159,0,-0.2705920934677124,0.3998042643070221,0.9956551790237427,17.51708984375,117.0654296875,-68.7255859375
1.4908971786499023,-1270707140,0,-0.2950061559677124,0.3124019205570221,0.9265633821487427,41.68701171875,134.94873046875,-75.8056640625
1.4987480640411377,-1270707156,1,-0.35411176085472107,0.6523340940475464,0.5727508068084717,72.69287109375,-49.49951171875,-79.1015625
1.4988601207733154,-1270707137,1,-0.32969769835472107,0.6699122190475464,0.5739715099334717,158.69140625,-48.33984375,-126.15966796875
1.5134940147399902,-1270707121,0,-0.3865588903427124,0.2889644205570221,0.9067879915237427,53.89404296875,135.1318359375,-69.88525390625
1.540309190750122,-1270707118,1,-0.26304730772972107,0.6613672971725464,0.6838347911834717,190.5517578125,-59.38720703125,-169.49462890625
1.5403220653533936,-1270707099,1,-0.18516646325588226,0.6813868284225464,0.6716277599334717,163.9404296875,-39.9169921875,-166.93115234375
1.5461571216583252,-1270707102,0,-0.3633655309677124,0.3534175455570221,0.9016610383987427,44.3115234375,106.0791015625,-61.1572265625
1.5461690425872803,-1270707083,0,-0.3653186559677124,0.3294917643070221,0.8306161165237427,37.2314453125,74.5849609375,-61.09619140625
1.5587739944458008,-1270707080,1,-0.17418013513088226,0.8144434690475464,0.7980926036834717,98.44970703125,-46.2646484375,-153.62548828125
1.5959291458129883,-1270707061,1,-0.10997115075588226,0.7814844846725464,0.9143035411834717,28.564453125,4.08935546875,-129.33349609375
1.5965471267700195,-1270707042,1,-0.28257855772972107,0.7358301877975464,0.7912566661834717,-40.8935546875,33.447265625,-116.88232421875
1.6038200855255127,-1270707047,0,-0.3369983434677124,0.3116694986820221,0.8943368196487427,36.1328125,70.37353515625,-66.5283203125
1.6039040088653564,-1270707028,0,-0.3548206090927124,0.3233882486820221,0.8403817415237427,10.009765625,90.4541015625,-69.15283203125
1.6188302040100098,-1270707023,1,-0.26793012022972107,0.5539454221725464,0.6103484630584717,-92.83447265625,20.5078125,-101.37939453125
1.6417920589447021,-1270707009,0,-0.5586780309677124,0.2479487955570221,0.6946297883987427,-6.53076171875,88.37890625,-72.998046875
1.6418023109436035,-1270706990,0,-0.4949573278427124,0.1749507486820221,0.6487313508987427,4.82177734375,40.1611328125,-68.9697265625
1.6495862007141113,-1270707004,1,-0.25230512022972107,0.3576563596725464,0.42309263348579407,-63.90380859375,2.38037109375,-90.75927734375
1.6892731189727783,-1270706968,1,-0.40367230772972107,0.2973536252975464,0.47997739911079407,-51.57470703125,-41.19873046875,-72.32666015625
1.6892809867858887,-1270706949,1,-0.34043988585472107,0.3420313596725464,0.5903289318084717,-27.16064453125,-55.60302734375,-51.45263671875
1.6937572956085205,-1270706971,0,-0.5762561559677124,0.1461421549320221,0.6409188508987427,17.7001953125,6.40869140625,-50.23193359375
1.6937642097473145,-1270706952,0,-0.6004260778427124,0.2166987955570221,0.7432137727737427,24.84130859375,-41.9921875,-38.6962890625
1.6949541568756104,-1270706933,0,-0.5999377965927124,0.2311030924320221,0.8162118196487427,30.45654296875,-63.65966796875,-38.818359375
1.7129671573638916,-1270706930,1,-0.44468793272972107,0.4140528440475464,0.5903289318084717,2.99072265625,-66.7724609375,-21.05712890625
1.7238903045654297,-1270706914,0,-0.6358264684677124,0.2889644205570221,0.8032723665237427,37.17041015625,-78.79638671875,-43.45703125
1.743882179260254,-1270706911,1,-0.5562602281570435,0.5319727659225464,0.5302703380584717,28.4423828125,-85.0830078125,-21.30126953125
1.7438912391662598,-1270706892,1,-0.5784770250320435,0.5976465940475464,0.5036590099334717,46.2646484375,-112.1826171875,-34.912109375
1.7552943229675293,-1270706895,0,-0.5960315465927124,0.3617183268070221,0.7812997102737427,47.119140625,-110.41259765625,-62.8662109375
1.755303144454956,-1270706876,0,-0.5989612340927124,0.3746577799320221,0.8374520540237427,49.4384765625,-138.671875,-83.06884765625
1.7687599658966064,-1270706873,1,-0.47007855772972107,0.5947169065475464,0.6015594005584717,60.4248046875,-150.87890625,-51.94091796875
1.7909512519836426,-1270706857,0,-0.5327991247177124,0.3351069986820221,0.9658700227737427,50.4150390625,-153.9306640625,-90.75927734375
1.7987241744995117,-1270706854,1,-0.30577191710472107,0.5983790159225464,0.8742644786834717,81.6650390625,-159.7900390625,-41.32080078125
1.798910140991211,-1270706835,1,-0.39878949522972107,0.6828516721725464,0.8596160411834717,93.68896484375,-144.1650390625,-22.76611328125
1.8136701583862305,-1270706838,0,-0.5240100622177124,0.3551265299320221,1.0059090852737427,58.2275390625,-155.57861328125,-87.40234375
1.8137521743774414,-1270706819,0,-0.5765002965927124,0.3951655924320221,1.0137215852737427,65.24658203125,-159.48486328125,-79.9560546875
1.8382072448730469,-1270706816,1,-0.45835980772972107,0.7058008909225464,0.8398406505584717,93.994140625,-153.86962890625,-20.08056640625
1.8461370468139648,-1270706783,0,-0.7015002965927124,0.4210444986820221,1.0593758821487427,91.73583984375,-179.87060546875,-86.36474609375
1.8587071895599365,-1270706797,1,-0.5062114000320435,0.7441309690475464,0.9069793224334717,121.03271484375,-151.611328125,-27.2216796875
1.8588042259216309,-1270706778,1,-0.6028910875320435,0.8403223752975464,0.9816863536834717,136.16943359375,-154.052734375,-34.5458984375
1.873387098312378,-1270706764,0,-0.7420276403427124,0.4388667643070221,1.1350594758987427,99.42626953125,-177.24609375,-101.318359375
1.8963892459869385,-1270706759,1,-0.5682231187820435,0.8154200315475464,1.1901824474334717,141.05224609375,-149.84130859375,-57.373046875
1.896440029144287,-1270706740,1,-0.5169535875320435,0.7026270627975464,1.2626922130584717,123.71826171875,-131.103515625,-60.05859375
1.903796911239624,-1270706745,0,-0.7332385778427124,0.4127437174320221,1.1497079133987427,101.5625,-162.04833984375,-101.62353515625
1.9039061069488525,-1270706726,0,-0.7420276403427124,0.4068843424320221,1.0867196321487427,97.10693359375,-133.48388671875,-82.58056640625
1.9414231777191162,-1270706707,0,-0.7959827184677124,0.3399898111820221,0.9460946321487427,104.1259765625,-113.58642578125,-71.22802734375
1.9488933086395264,-1270706704,1,-0.6722270250320435,0.5253809690475464,1.0170867443084717,113.525390625,-92.4072265625,-48.03466796875
1.949023962020874,-1270706685,1,-0.6458598375320435,0.4116114377975464,0.8239715099334717,108.09326171875,-88.8671875,-43.27392578125
1.9637880325317383,-1270706688,0,-0.7967151403427124,0.3863765299320221,0.8215829133987427,103.6376953125,-107.60498046875,-55.6640625
1.9639060497283936,-1270706669,0,-0.8277209997177124,0.3543941080570221,0.7439461946487427,100.64697265625,-110.107421875,-50.59814453125
1.9898312091827393,-1270706666,1,-0.6688090562820435,0.3449610471725464,0.7407195568084717,110.2294921875,-100.7080078125,-31.18896484375
1.9940831661224365,-1270706650,0,-0.7779163122177124,0.2899409830570221,0.6423836946487427,87.7685546875,-118.408203125,-49.25537109375
1.9940950870513916,-1270706631,0,-0.7215198278427124,0.2181636393070221,0.6328622102737427,75.0732421875,-117.98095703125,-38.75732421875
2.0087661743164062,-1270706647,1,-0.5608989000320435,0.2460840791463852,0.7983367443084717,103.33251953125,-107.91015625,-29.6630859375
2.0088722705841064,-1270706628,1,-0.48716840147972107,0.1740625947713852,0.8620574474334717,96.435546875,-96.6796875,-20.44677734375
2.023881196975708,-1270706612,0,-0.6914905309677124,0.1561519205570221,0.6243172883987427,72.021484375,-110.2294921875,-10.31494140625
2.0432212352752686,-1270706609,1,-0.46543988585472107,0.1396387666463852,0.8618133068084717,93.75,-75.927734375,3.96728515625
2.043229103088379,-1270706590,1,-0.5403910875320435,0.2526758909225464,0.7487761974334717,93.68896484375,-60.6689453125,18.310546875
2.0540049076080322,-1270706593,0,-0.7007678747177124,0.1969234049320221,0.6143075227737427,70.73974609375,-103.8818359375,8.4228515625
2.054121255874634,-1270706574,0,-0.6277698278427124,0.2574702799320221,0.6379891633987427,60.85205078125,-95.21484375,13.7939453125
2.0687789916992188,-1270706571,1,-0.46397504210472107,0.3229883909225464,0.7004363536834717,79.58984375,-63.4765625,16.6015625
2.0909769535064697,-1270706555,0,-0.5327991247177124,0.2762691080570221,0.5659676790237427,41.19873046875,-83.80126953125,7.99560546875
2.099921226501465,-1270706552,1,-0.45152387022972107,0.3605860471725464,0.5075652599334717,48.27880859375,-77.45361328125,20.1416015625
2.099935293197632,-1270706533,1,-0.37095746397972107,0.3261622190475464,0.41235044598579407,25.2685546875,-101.86767578125,14.16015625
2.1137261390686035,-1270706519,0,-0.3084338903427124,0.2926265299320221,0.4929696023464203,3.662109375,-96.435546875,-2.38037109375
2.139620065689087,-1270706514,1,-0.15123091638088226,0.2973536252975464,0.36742857098579407,11.1083984375,-109.31396484375,10.68115234375
2.1440072059631348,-1270706500,0,-0.2168811559677124,0.3221675455570221,0.4812508523464203,-6.8359375,-110.83984375,1.15966796875
2.1440141201019287,-1270706481,0,-0.1663440465927124,0.3521968424320221,0.5542489290237427,2.685546875,-135.8642578125,5.7373046875
2.15922212600708,-1270706495,1,-0.14488326013088226,0.4011133909225464,0.24169613420963287,13.61083984375,-111.14501953125,34.3017578125
2.159290075302124,-1270706476,1,-0.17686568200588226,0.5710352659225464,0.24731136858463287,53.22265625,-114.8681640625,35.2783203125
2.1734530925750732,-1270706462,0,-0.1643909215927124,0.4271480143070221,0.6572762727737427,8.85009765625,-154.23583984375,-7.568359375
2.202888250350952,-1270706443,0,-0.061363570392131805,0.5309077501296997,0.7273446321487427,8.056640625,-170.10498046875,-10.7421875
2.203848123550415,-1270706424,0,0.022376663982868195,0.6278315782546997,0.7285653352737427,-1.28173828125,-174.560546875,-3.0517578125
2.2188241481781006,-1270706440,1,-0.043320756405591965,0.7119044065475464,0.43529966473579407,83.251953125,-119.2626953125,25.69580078125
2.218914031982422,-1270706421,1,-0.022812943905591965,0.8049219846725464,0.29882505536079407,67.32177734375,-125.30517578125,53.77197265625
2.2449252605438232,-1270706405,0,0.1583629846572876,0.5926753282546997,0.6245614290237427,-7.8125,-181.45751953125,6.4697265625
2.2476983070373535,-1270706402,1,0.041396040469408035,0.8425196409225464,0.16845394670963287,70.00732421875,-126.5869140625,56.396484375
2.2488980293273926,-1270706383,1,0.041640181094408035,1.0278223752975464,0.08471371233463287,76.23291015625,-129.33349609375,51.45263671875
2.2635741233825684,-1270706386,0,0.2318493127822876,0.6209956407546997,0.6199227571487427,-1.77001953125,-187.98828125,6.103515625
2.2636630535125732,-1270706367,0,0.2342907190322876,0.6356440782546997,0.7664071321487427,0.79345703125,-201.23291015625,-14.2822265625
2.2895290851593018,-1270706364,1,0.11073197424411774,1.0297755002975464,0.23705746233463287,88.80615234375,-151.0009765625,31.005859375
2.2938122749328613,-1270706348,0,0.2709118127822876,0.6026850938796997,0.8582040071487427,-1.64794921875,-208.19091796875,-25.08544921875
2.308704137802124,-1270706345,1,0.22206009924411774,0.9662989377975464,0.38915708661079407,92.71240234375,-157.1044921875,29.72412109375
2.3088083267211914,-1270706326,1,0.25868120789527893,0.7600001096725464,0.43139341473579407,93.81103515625,-155.09033203125,50.47607421875
2.3236582279205322,-1270706329,0,0.2716442346572876,0.5284663438796997,0.8625985383987427,-2.3193359375,-211.73095703125,-16.29638671875
2.323744058609009,-1270706310,0,0.2538219690322876,0.3915034830570221,0.8013192415237427,6.4697265625,-219.05517578125,27.77099609375
2.3432979583740234,-1270706307,1,0.37269487977027893,0.5952051877975464,0.48241880536079407,116.69921875,-127.01416015625,74.27978515625
2.3537373542785645,-1270706291,0,0.2599254846572876,0.4308101236820221,0.8892098665237427,10.986328125,-214.2333984375,72.3876953125
2.3687021732330322,-1270706288,1,0.26112261414527893,0.9670313596725464,0.5707976818084717,138.36669921875,-92.34619140625,115.234375
2.368831157684326,-1270706269,1,0.045058149844408035,1.0786036252975464,0.5588347911834717,103.69873046875,-90.63720703125,111.14501953125
2.391099214553833,-1270706255,0,0.1722790002822876,0.4527827799320221,0.8835946321487427,-0.6103515625,-163.87939453125,48.40087890625
2.3986282348632812,-1270706250,1,0.12123002111911774,0.8732813596725464,0.6535613536834717,67.138671875,-89.2333984375,72.3876953125
2.3987350463867188,-1270706231,1,0.33973589539527893,0.5292872190475464,0.7175261974334717,19.95849609375,-80.62744140625,87.890625
2.413811206817627,-1270706236,0,0.2113415002822876,0.3517085611820221,0.8762704133987427,-22.88818359375,-137.3291015625,34.5458984375
2.413928270339966,-1270706217,0,0.1461559534072876,0.2586909830570221,0.9214364290237427,-42.90771484375,-128.7841796875,69.7021484375
2.4399499893188477,-1270706212,1,0.33338823914527893,0.5632227659225464,0.7844207286834717,-18.12744140625,-63.90380859375,128.90625
2.444415330886841,-1270706198,0,0.0731579139828682,0.2701655924320221,1.1125985383987427,-71.35009765625,-127.13623046875,92.6513671875
2.4586453437805176,-1270706176,1,0.061659712344408035,0.8759669065475464,0.8332488536834717,-17.76123046875,-41.80908203125,145.32470703125
2.47404408454895,-1270706179,0,0.0629040077328682,0.2335444986820221,1.0381356477737427,-88.19580078125,-91.552734375,84.65576171875
2.4740991592407227,-1270706160,0,0.0018688514828681946,0.1971675455570221,0.9463387727737427,-66.95556640625,-75.439453125,70.49560546875
2.494913101196289,-1270706157,1,0.015272993594408035,0.7849024534225464,0.7587859630584717,-25.634765625,-30.029296875,114.1357421875
2.503653049468994,-1270706141,0,0.044837601482868195,0.1302730143070221,0.8560067415237427,-32.04345703125,-72.08251953125,68.29833984375
2.5036752223968506,-1270706122,0,0.037513382732868195,0.1227046549320221,0.9778329133987427,-19.22607421875,-80.50537109375,85.38818359375
2.518778085708618,-1270706138,1,0.15248002111911774,0.5239161252975464,0.6921355724334717,-15.9912109375,-5.2490234375,73.54736328125
2.518841028213501,-1270706119,1,0.33338823914527893,0.3561915159225464,0.6789519786834717,-14.95361328125,-6.2255859375,95.15380859375
2.5432801246643066,-1270706103,0,0.035804398357868195,0.1017085611820221,1.0801278352737427,-26.55029296875,-102.96630859375,98.2666015625
2.548497200012207,-1270706100,1,0.32093706727027893,0.4120997190475464,0.8161590099334717,9.1552734375,-19.10400390625,146.05712890625
2.5485751628875732,-1270706081,1,0.16517533361911774,0.5861719846725464,1.0349090099334717,29.9072265625,-16.357421875,154.72412109375
2.563634157180786,-1270706084,0,0.0751110389828682,0.050927311182022095,1.1208993196487427,-31.31103515625,-109.43603515625,113.46435546875
2.5902719497680664,-1270706062,1,0.22157181799411774,0.5253809690475464,1.0961883068084717,24.84130859375,-2.197265625,141.9677734375
2.594489097595215,-1270706065,0,0.0704723671078682,0.017968326807022095,1.1042977571487427,-24.84130859375,-81.48193359375,127.01416015625
2.594499111175537,-1270706046,0,0.042884476482868195,-0.0630863606929779,1.1121102571487427,-28.564453125,-45.166015625,134.46044921875
2.608858108520508,-1270706043,1,0.31849566102027893,0.3915919065475464,1.0690886974334717,2.9296875,11.53564453125,135.498046875
2.6089162826538086,-1270706024,1,0.47279253602027893,0.3244532346725464,1.1406219005584717,-17.9443359375,1.3427734375,150.45166015625
2.623814105987549,-1270706027,0,0.006507523357868195,-0.1346195638179779,1.2319833040237427,-40.771484375,-38.87939453125,138.3056640625
2.6438581943511963,-1270706005,1,0.5748432874679565,0.3696192502975464,1.3666961193084717,-7.568359375,14.6484375,167.236328125
2.6536612510681152,-1270705991,0,0.1769176721572876,-0.2713383138179779,1.4331551790237427,-40.283203125,-25.0244140625,169.00634765625
2.653768301010132,-1270705972,0,0.2508922815322876,-0.2610844075679779,1.4990731477737427,-9.3994140625,16.845703125,194.76318359375
2.6687021255493164,-1270705986,1,0.6385639905929565,0.5222071409225464,1.5500457286834717,2.62451171875,46.875,169.921875
2.690620183944702,-1270705953,0,0.3605114221572876,-0.2986820638179779,1.5972176790237427,24.47509765625,52.978515625,218.26171875
2.698906183242798,-1270705967,1,0.6864155530929565,0.6469630002975464,1.5417449474334717,21.8505859375,100.15869140625,169.86083984375
2.6989853382110596,-1270705948,1,0.8114155530929565,0.7455958127975464,1.5368621349334717,38.9404296875,164.48974609375,160.33935546875
2.727572202682495,-1270705912,1,1.2491596937179565,0.8120020627975464,1.4643523693084717,46.20361328125,225.2197265625,131.28662109375
2.7443530559539795,-1270705934,0,0.6385875940322876,-0.2708500325679779,1.9189950227737427,52.55126953125,97.83935546875,229.55322265625
2.7443811893463135,-1270705915,0,0.7450329065322876,-0.3343265950679779,1.8613778352737427,77.94189453125,122.6806640625,236.51123046875
2.744432210922241,-1270705896,0,0.7755504846572876,-0.2535160481929779,1.8042489290237427,97.47314453125,154.541015625,242.0654296875
2.744903087615967,-1270705877,0,0.9462047815322876,-0.2159183919429779,1.7478524446487427,122.00927734375,193.9697265625,234.9853515625
2.7588841915130615,-1270705893,1,1.2606343030929565,0.9506739377975464,1.4221160411834717,58.10546875,267.578125,119.44580078125
2.7589941024780273,-1270705874,1,1.3380268812179565,1.1376856565475464,1.3513152599334717,54.26025390625,296.44775390625,90.6982421875
2.773618221282959,-1270705858,0,1.0948864221572876,-0.1238773763179779,1.7849618196487427,134.70458984375,233.58154296875,208.55712890625
2.793302059173584,-1270705855,1,1.4061421155929565,1.4311426877975464,1.2795379161834717,40.71044921875,326.5380859375,37.53662109375
2.8036141395568848,-1270705839,0,1.2284313440322876,-0.050879329442977905,1.8284188508987427,142.51708984375,277.587890625,151.611328125
2.8037021160125732,-1270705820,0,1.3920055627822876,-0.1055668294429779,1.8713876008987427,143.798828125,293.5791015625,94.970703125
2.8186161518096924,-1270705836,1,1.5406635999679565,1.5373438596725464,1.1701629161834717,-1.0986328125,317.81005859375,-29.78515625
2.8187310695648193,-1270705817,1,1.7943257093429565,1.4089258909225464,1.0964324474334717,-37.7197265625,297.54638671875,-85.26611328125
2.8407301902770996,-1270705801,0,1.4874645471572876,-0.1375492513179779,1.8647958040237427,151.79443359375,288.6962890625,66.34521484375
2.8486320972442627,-1270705798,1,1.9298237562179565,1.3371485471725464,1.1059539318084717,-47.42431640625,290.22216796875,-98.20556640625
2.8487071990966797,-1270705779,1,2.057509422302246,1.2299708127975464,1.1013152599334717,-22.15576171875,303.22265625,-114.2578125
2.863546133041382,-1270705782,0,1.5753551721572876,-0.2388676106929779,1.8701668977737427,168.02978515625,290.46630859375,47.119140625
2.8636820316314697,-1270705763,0,1.6717907190322876,-0.3709476888179779,1.8164559602737427,195.73974609375,300.84228515625,33.69140625
2.880280017852783,-1270705760,1,2.193495750427246,1.0434473752975464,0.9875457286834717,5.859375,328.55224609375,-136.5966796875
2.9081273078918457,-1270705741,1,2.171034812927246,0.8674219846725464,0.7993133068084717,-21.8505859375,302.91748046875,-129.57763671875
2.9088821411132812,-1270705722,1,2.065810203552246,0.6852930784225464,0.6357390880584717,-18.1884765625,271.66748046875,-122.4365234375
2.923893928527832,-1270705727,0,1.5841442346572876,-0.5042484998703003,1.5723153352737427,201.904296875,249.267578125,46.38671875
2.9240050315856934,-1270705708,0,1.4872204065322876,-0.4751957356929779,1.2664071321487427,205.62744140625,199.8291015625,59.75341796875
2.9428930282592773,-1270705703,1,1.7779682874679565,0.6042383909225464,0.35815122723579407,-15.13671875,220.88623046875,-105.28564453125
2.954007148742676,-1270705689,0,1.2638317346572876,-0.4488285481929779,1.0281258821487427,197.20458984375,151.123046875,58.837890625
2.9540860652923584,-1270705670,0,1.0858532190322876,-0.4097660481929779,0.9407235383987427,192.32177734375,129.45556640625,55.419921875
2.9685051441192627,-1270705684,1,1.4823139905929565,0.4865626096725464,0.28954771161079407,-19.71435546875,148.3154296875,-98.69384765625
2.9916751384735107,-1270705651,0,0.7948375940322876,-0.3462894856929779,0.6892586946487427,164.00146484375,119.384765625,35.82763671875
2.998563051223755,-1270705648,1,0.9454487562179565,0.1830957978963852,-0.11255191266536713,59.02099609375,172.36328125,-35.15625
2.9986941814422607,-1270705629,1,0.6143940687179565,0.05785166099667549,-0.17529605329036713,77.2705078125,123.4130859375,-40.6494140625
3.013618230819702,-1270705632,0,0.5658336877822876,-0.3746097981929779,0.4055672585964203,140.13671875,70.9228515625,20.08056640625
3.0137152671813965,-1270705613,0,0.3700329065322876,-0.3555668294429779,0.2771492898464203,127.3193359375,21.3623046875,11.77978515625
3.0395781993865967,-1270705610,1,0.5457905530929565,-0.1399022489786148,-0.13647769391536713,90.9423828125,82.51953125,-43.8232421875
3.044095277786255,-1270705594,0,0.2281872034072876,-0.3704594075679779,0.2429696023464203,110.83984375,-11.23046875,15.19775390625
3.0587410926818848,-1270705591,1,0.45130816102027893,-0.3215428590774536,-0.04565737769007683,103.759765625,53.03955078125,-23.13232421875
3.0588719844818115,-1270705572,1,0.13270463049411774,-0.11768545210361481,0.09350277483463287,169.189453125,48.03466796875,-2.99072265625
3.0735771656036377,-1270705575,0,-0.020836226642131805,-0.2762211263179779,0.3254891335964203,111.328125,-60.36376953125,36.4990234375
3.0943422317504883,-1270705553,1,0.09461869299411774,0.1594141572713852,0.47582700848579407,243.34716796875,51.45263671875,-6.53076171875
3.103720188140869,-1270705556,0,-0.0804065391421318,-0.033301204442977905,0.5786629915237427,143.06640625,-109.130859375,55.48095703125
3.1038520336151123,-1270705537,0,-0.020836226642131805,0.1273433268070221,0.7329598665237427,148.37646484375,-117.85888671875,62.255859375
3.10483717918396,-1270705518,0,-0.033287398517131805,0.3534175455570221,0.6902352571487427,122.74169921875,-120.1171875,51.7578125
3.1186773777008057,-1270705534,1,0.030165571719408035,0.4843653440475464,0.6076629161834717,269.1650390625,69.3359375,-3.5400390625
3.1187551021575928,-1270705515,1,-0.22960005700588226,0.6867579221725464,0.5302703380584717,214.7216796875,36.62109375,2.9296875
3.1424219608306885,-1270705499,0,-0.0723498985171318,0.3822261393070221,0.5264168977737427,96.37451171875,-115.234375,13.24462890625
3.148369073867798,-1270705496,1,-0.31553754210472107,0.5820215940475464,0.45019224286079407,140.56396484375,-7.87353515625,-30.2734375
3.1636552810668945,-1270705463,0,-0.3094104528427124,0.2269527018070221,0.2346688210964203,77.81982421875,-124.93896484375,-12.75634765625
3.1801321506500244,-1270705477,1,-0.27525433897972107,0.1606348603963852,0.24779964983463287,101.86767578125,-34.0576171875,-45.8984375
3.1906630992889404,-1270705458,1,-0.30235394835472107,-0.1545506864786148,0.029537934809923172,151.30615234375,-25.634765625,-28.13720703125
3.1961421966552734,-1270705444,0,-0.4273303747177124,0.2892085611820221,0.2280770242214203,130.55419921875,-188.96484375,44.5556640625
3.208652973175049,-1270705439,1,-0.35093793272972107,0.02464853599667549,-0.05908511206507683,259.6435546875,7.14111328125,9.8876953125
3.208768129348755,-1270705420,1,-0.39122113585472107,0.5390528440475464,0.04833676293492317,400.2685546875,54.01611328125,38.14697265625
3.22575306892395,-1270705425,0,-0.2891467809677124,0.4725581705570221,0.3088875710964203,193.54248046875,-249.267578125,93.1396484375
3.225762128829956,-1270705406,0,0.0721813514828682,0.6776362657546997,0.3376961648464203,211.60888671875,-268.73779296875,122.4365234375
3.2529361248016357,-1270705387,0,0.1664196252822876,0.7730952501296997,0.2153817117214203,112.79296875,-264.46533203125,99.54833984375
3.269057035446167,-1270705384,1,-0.40684613585472107,1.0461329221725464,0.04809262230992317,234.86328125,-35.7666015625,47.607421875
3.2690651416778564,-1270705365,1,-0.37095746397972107,0.7377833127975464,-0.21338199079036713,127.99072265625,-118.22509765625,46.20361328125
3.291140079498291,-1270705368,0,0.2267223596572876,0.6842280626296997,0.060840703547000885,70.80078125,-223.2666015625,25.32958984375
3.291149139404297,-1270705349,0,0.1979137659072876,0.6270991563796997,-0.001171015202999115,23.681640625,-199.64599609375,-9.94873046875
3.2983992099761963,-1270705346,1,-0.23301802575588226,0.6047266721725464,-0.27270814776420593,82.94677734375,-148.0712890625,-3.2958984375
3.3139450550079346,-1270705330,0,0.1813122034072876,0.5414057970046997,-0.1291007101535797,-24.59716796875,-172.30224609375,-61.70654296875
3.314028024673462,-1270705311,0,0.0902477577328682,0.4386226236820221,-0.10419835895299911,-56.57958984375,-160.82763671875,-90.27099609375
3.3392910957336426,-1270705327,1,-0.25474652647972107,0.4287012815475464,-0.30859681963920593,36.80419921875,-168.45703125,-12.26806640625
3.3393001556396484,-1270705308,1,-0.16465865075588226,0.2189844697713852,-0.25244447588920593,5.126953125,-208.19091796875,-24.96337890625
3.3435521125793457,-1270705292,0,0.008216507732868195,0.3788081705570221,0.022998906672000885,-67.0166015625,-164.9169921875,-80.62744140625
3.358773946762085,-1270705289,1,-0.09898482263088226,0.05907236412167549,-0.11816714704036713,22.5830078125,-201.59912109375,-6.65283203125
3.358924150466919,-1270705270,1,-0.23814497888088226,0.2455957978963852,0.06884457170963287,84.47265625,-192.07763671875,17.578125
3.3739612102508545,-1270705273,0,0.014075882732868195,0.3495112955570221,0.2100106179714203,-53.955078125,-194.4580078125,-49.31640625
3.3740270137786865,-1270705254,0,-0.1241077110171318,0.5365229845046997,0.1541024148464203,-50.84228515625,-201.47705078125,-35.33935546875
3.3930559158325195,-1270705251,1,-0.28331097960472107,0.1655176728963852,-0.029544096440076828,84.9609375,-164.6728515625,55.0537109375
3.403536081314087,-1270705235,0,-0.2222522497177124,0.5838862657546997,0.4509774148464203,-49.4384765625,-243.2861328125,-4.0283203125
3.418769121170044,-1270705232,1,-0.18614302575588226,0.3842676877975464,0.33153989911079407,126.220703125,-194.9462890625,78.9794921875
3.4188783168792725,-1270705213,1,-0.25767621397972107,0.7101954221725464,0.6603972911834717,137.87841796875,-157.28759765625,133.7890625
3.4407169818878174,-1270705199,0,-0.009849898517131805,0.7601557970046997,0.7451668977737427,-59.9365234375,-209.228515625,68.7255859375
3.4484641551971436,-1270705194,1,-0.30552777647972107,0.8901270627975464,0.9919402599334717,92.6513671875,-124.0234375,168.701171875
3.464252233505249,-1270705180,0,0.1478649377822876,0.8963862657546997,0.9988290071487427,-73.974609375,-156.18896484375,101.1962890625
3.464365005493164,-1270705161,0,0.1554332971572876,1.0865718126296997,1.1362801790237427,-121.39892578125,-52.978515625,112.24365234375
3.489859104156494,-1270705175,1,-0.29942426085472107,1.2441309690475464,1.1618621349334717,45.7763671875,-81.72607421875,180.0537109375
3.4898681640625,-1270705156,1,-0.5513774156570435,1.6279200315475464,1.1215789318084717,-55.11474609375,-38.51318359375,179.3212890625
3.4956212043762207,-1270705142,0,0.2364879846572876,1.1217280626296997,1.1919442415237427,-178.5888671875,40.771484375,78.369140625
3.508923053741455,-1270705120,1,-0.6104594469070435,1.7717188596725464,0.9802215099334717,-253.90625,-19.47021484375,66.46728515625
3.5235612392425537,-1270705123,0,0.2303844690322876,1.1996089220046997,1.3342782258987427,-218.017578125,118.46923828125,25.7568359375
3.523677110671997,-1270705104,0,0.3478161096572876,1.2738276720046997,1.4951668977737427,-246.03271484375,154.96826171875,-7.080078125
3.544093132019043,-1270705101,1,-0.36241254210472107,1.8105372190475464,1.0322234630584717,-278.6865234375,-36.2548828125,33.69140625
3.5538601875305176,-1270705085,0,0.5797497034072876,1.1825190782546997,1.5142098665237427,-309.08203125,194.580078125,-29.1748046875
3.568674087524414,-1270705082,1,-0.040391068905591965,1.6730860471725464,0.9992644786834717,-327.2705078125,1.15966796875,29.78515625
3.568786144256592,-1270705063,1,0.026015181094408035,1.6889551877975464,1.0351531505584717,-357.91015625,0.48828125,50.4150390625
3.59092116355896,-1270705066,0,0.4982067346572876,1.0348140001296997,1.4573251008987427,-332.275390625,217.4072265625,-5.67626953125
3.5909292697906494,-1270705047,0,0.5892711877822876,0.8641597032546997,1.5320321321487427,-321.10595703125,230.95703125,35.09521484375
3.598419189453125,-1270705044,1,0.11707963049411774,1.8181055784225464,1.0566375255584717,-352.1728515625,31.06689453125,80.4443359375
3.6150431632995605,-1270705028,0,0.6144176721572876,0.8783198595046997,1.5918465852737427,-291.93115234375,250.0,56.7626953125
3.639414072036743,-1270705025,1,0.032118696719408035,2.009755849838257,1.0405242443084717,-338.43994140625,57.373046875,81.54296875
3.6394221782684326,-1270705006,1,0.056288618594408035,1.9157618284225464,0.8520476818084717,-304.26025390625,94.1162109375,50.96435546875
3.643794298171997,-1270705009,0,0.5843883752822876,0.7235347032546997,1.5920907258987427,-238.09814453125,261.5966796875,62.92724609375
3.643801212310791,-1270704990,0,0.5902477502822876,0.7130366563796997,1.5061532258987427,-184.08203125,258.60595703125,56.94580078125
3.6584901809692383,-1270704987,1,0.33021441102027893,1.4431055784225464,0.8671844005584717,-268.12744140625,106.689453125,23.4375
3.673898220062256,-1270704971,0,0.5560680627822876,0.5064936876296997,1.4673348665237427,-170.41015625,246.64306640625,79.58984375
3.6933891773223877,-1270704968,1,0.39515581727027893,1.2709864377975464,0.8745086193084717,-255.2490234375,108.88671875,62.744140625
3.693398952484131,-1270704949,1,0.39955034852027893,1.0881251096725464,0.8168914318084717,-235.83984375,113.037109375,80.4443359375
3.703606128692627,-1270704935,0,0.3902965784072876,0.2193843424320221,1.3315926790237427,-126.8310546875,216.36962890625,119.140625
3.7188730239868164,-1270704930,1,0.27894487977027893,1.1518458127975464,0.7114226818084717,-166.32080078125,119.93408203125,97.96142578125
3.719003200531006,-1270704911,1,0.30970659852027893,1.2587794065475464,0.7424285411834717,-69.27490234375,140.7470703125,68.66455078125
3.74104905128479,-1270704916,0,0.3734508752822876,0.2022944986820221,1.3772469758987427,-54.13818359375,168.8232421875,124.08447265625
3.7410571575164795,-1270704897,0,0.5192028284072876,0.3001948893070221,1.4536629915237427,8.36181640625,134.27734375,116.2109375
3.7484793663024902,-1270704892,1,0.31996050477027893,1.4323633909225464,0.8769500255584717,-23.49853515625,150.7568359375,50.4150390625
3.777539014816284,-1270704856,1,0.49500933289527893,1.3520411252975464,0.6455047130584717,-18.5546875,161.80419921875,-22.216796875
3.7961301803588867,-1270704878,0,0.7108532190322876,0.3785640299320221,1.4336434602737427,53.89404296875,136.1083984375,94.482421875
3.79613995552063,-1270704859,0,0.7445446252822876,0.3658687174320221,1.3901864290237427,67.56591796875,144.6533203125,77.0263671875
3.7965550422668457,-1270704840,0,0.6346813440322876,0.2315913736820221,1.2141610383987427,95.52001953125,132.2021484375,54.38232421875
3.8088152408599854,-1270704837,1,0.5904682874679565,0.8464258909225464,0.5864226818084717,29.6630859375,158.14208984375,-41.19873046875
3.8238582611083984,-1270704821,0,0.4017711877822876,0.045800358057022095,1.1367684602737427,170.2880859375,79.65087890625,74.27978515625
3.8451082706451416,-1270704818,1,0.34022417664527893,0.7172755002975464,0.42944028973579407,123.35205078125,171.2646484375,-33.447265625
3.845116138458252,-1270704799,1,0.13099564611911774,0.4384669065475464,0.5012176036834717,151.4892578125,135.6201171875,-43.5791015625
3.8536550998687744,-1270704802,0,0.1683727502822876,-0.013037532567977905,0.9028817415237427,187.8662109375,35.2783203125,52.1240234375
3.85380220413208,-1270704783,0,0.010657913982868195,-0.2547367513179779,0.7024422883987427,203.857421875,7.87353515625,37.9638671875
3.8686561584472656,-1270704780,1,0.26747027039527893,-0.10279287397861481,0.6826140880584717,186.58447265625,140.93017578125,-67.5048828125
3.8687281608581543,-1270704761,1,0.27186480164527893,-0.3581639528274536,0.7851531505584717,238.76953125,180.6640625,-23.8037109375
3.8974452018737793,-1270704742,1,0.040419477969408035,-0.2326756864786148,0.5522429943084717,316.34521484375,231.5673828125,27.77099609375
3.91402006149292,-1270704764,0,-0.1719592809677124,-0.4083012044429779,0.6604501008987427,241.8212890625,-23.8037109375,78.125
3.9142560958862305,-1270704745,0,-0.3328479528427124,-0.2955082356929779,0.7031747102737427,290.1611328125,-71.47216796875,144.59228515625
3.9142823219299316,-1270704726,0,-0.3294299840927124,0.0020991861820220947,0.7625008821487427,326.7822265625,-143.37158203125,215.4541015625
3.9178900718688965,-1270704707,0,-0.1414417028427124,0.3397456705570221,0.6887704133987427,341.1865234375,-185.302734375,241.88232421875
3.9392690658569336,-1270704723,1,-0.11119185388088226,0.2248438447713852,0.34008482098579407,395.01953125,278.076171875,84.89990234375
3.9392781257629395,-1270704704,1,-0.40953168272972107,0.6750391721725464,0.19408871233463287,406.92138671875,265.7470703125,119.2626953125
3.9574551582336426,-1270704685,1,-0.6153422594070435,0.8566797971725464,0.08422543108463287,309.5703125,163.0859375,100.40283203125
3.973656177520752,-1270704671,0,-0.1145862266421318,0.5118647813796997,0.3774910867214203,209.41162109375,-160.0341796875,122.0703125
3.973752021789551,-1270704652,0,-0.054527632892131805,0.4134761393070221,0.2141610085964203,183.77685546875,-142.76123046875,60.60791015625
3.9936230182647705,-1270704666,1,-0.49742230772972107,0.6601465940475464,0.015621919184923172,216.24755859375,71.77734375,48.2177734375
3.9936320781707764,-1270704647,1,-0.34556683897972107,0.4028223752975464,-0.27441713213920593,207.8857421875,43.701171875,14.09912109375
4.004248142242432,-1270704633,0,-0.023765914142131805,0.3985835611820221,0.10429773479700089,199.27978515625,-165.4052734375,38.87939453125
4.018622159957886,-1270704628,1,-0.18760786950588226,0.2824610471725464,-0.38574525713920593,244.93408203125,30.09033203125,15.68603515625
4.040937185287476,-1270704614,0,0.0755993202328682,0.4024898111820221,0.010059453547000885,207.8857421875,-200.3173828125,32.89794921875
4.0409462451934814,-1270704595,0,0.058021195232868195,0.4378902018070221,-0.030467890202999115,184.4482421875,-227.23388671875,31.494140625
4.048480033874512,-1270704592,1,-0.12901411950588226,0.2653712034225464,-0.37866517901420593,263.00048828125,-4.150390625,49.31640625
4.063416004180908,-1270704576,0,0.054847367107868195,0.4586421549320221,-0.06733312457799911,144.4091796875,-244.0185546875,24.10888671875
4.0901780128479,-1270704573,1,-0.15123091638088226,0.3276270627975464,-0.33667299151420593,233.3984375,-61.95068359375,85.3271484375
4.090188980102539,-1270704554,1,-0.35289105772972107,0.4174708127975464,-0.30737611651420593,207.82470703125,-88.92822265625,82.1533203125
4.096310138702393,-1270704557,0,-0.008385054767131805,0.4591304361820221,-0.07807531207799911,119.873046875,-246.09375,10.07080078125
4.096317291259766,-1270704538,0,-0.044029586017131805,0.5633784532546997,-0.020946405827999115,88.07373046875,-238.09814453125,-18.5546875
4.108831167221069,-1270704535,1,-0.44297894835472107,0.5056055784225464,-0.22217105329036713,160.21728515625,-114.74609375,47.9736328125
4.123517274856567,-1270704519,0,-0.0877307578921318,0.6219722032546997,0.051319219172000885,17.15087890625,-204.52880859375,-72.81494140625
4.123593330383301,-1270704500,0,-0.1270374059677124,0.6065913438796997,0.09379968792200089,-51.1474609375,-158.69140625,-123.96240234375
4.145708084106445,-1270704516,1,-0.48497113585472107,0.5217188596725464,-0.12085269391536713,102.47802734375,-156.1279296875,19.10400390625
4.145716905593872,-1270704497,1,-0.5396586656570435,0.4411524534225464,-0.015383940190076828,23.86474609375,-204.9560546875,-23.0712890625
4.153524160385132,-1270704481,0,-0.2410510778427124,0.6300288438796997,0.024463750422000885,-99.91455078125,-114.74609375,-156.25
4.168606281280518,-1270704478,1,-0.5504008531570435,0.2968653440475464,-0.10718081891536713,-49.25537109375,-219.482421875,-49.1943359375
4.168659210205078,-1270704459,1,-0.5640727281570435,0.1474512666463852,-0.22656558454036713,-90.27099609375,-254.8828125,-53.5888671875
4.191624164581299,-1270704462,0,-0.3387073278427124,0.6429682970046997,0.06816492229700089,-127.5634765625,-103.21044921875,-171.44775390625
4.191632032394409,-1270704443,0,-0.4356311559677124,0.6256343126296997,0.1875496804714203,-149.59716796875,-122.13134765625,-171.81396484375
4.198493242263794,-1270704440,1,-0.45494183897972107,0.03368173912167549,-0.11596988141536713,-65.185546875,-276.91650390625,-29.052734375
4.2278382778167725,-1270704421,1,-0.41856488585472107,0.11937509477138519,0.07104183733463287,-42.96875,-278.4423828125,10.6201171875
4.239372968673706,-1270704402,1,-0.38585004210472107,0.3574122190475464,0.38451841473579407,-54.443359375,-298.095703125,70.068359375
4.243696212768555,-1270704407,0,-0.3106311559677124,0.7643061876296997,0.5347176790237427,-184.2041015625,-188.78173828125,-108.642578125
4.258559226989746,-1270704383,1,-0.40147504210472107,0.6205958127975464,0.7956511974334717,-105.40771484375,-315.61279296875,120.1171875
4.273575305938721,-1270704388,0,-0.2583850622177124,0.8553706407546997,0.8145028352737427,-248.35205078125,-198.6083984375,-76.171875
4.273651123046875,-1270704369,0,-0.1270374059677124,0.8758784532546997,1.0896493196487427,-336.97509765625,-169.0673828125,-54.01611328125
4.2744832038879395,-1270704350,0,-0.026451461017131805,0.8048335313796997,1.1848641633987427,-376.77001953125,-125.91552734375,-16.66259765625
4.302588224411011,-1270704331,0,0.031165726482868195,0.8731929063796997,1.5310555696487427,-373.53515625,-61.8896484375,39.306640625
4.318907260894775,-1270704364,1,-0.32237347960472107,0.8632715940475464,1.2905242443084717,-173.828125,-296.5087890625,161.19384765625
4.3190131187438965,-1270704328,1,-0.48130902647972107,1.5580958127975464,1.5764129161834717,-278.6865234375,-180.35888671875,217.46826171875
4.319054126739502,-1270704309,1,-0.5130473375320435,2.013662099838257,1.6857879161834717,-307.0068359375,-117.85888671875,213.9892578125
4.341458082199097,-1270704312,0,0.1048961952328682,0.9117671251296997,1.9031258821487427,-376.8310546875,3.23486328125,74.8291015625
4.341466188430786,-1270704293,0,0.2638317346572876,0.8175288438796997,2.137500762939453,-293.5791015625,49.37744140625,117.00439453125
4.349703073501587,-1270704290,1,-0.41417035460472107,2.228505849838257,1.7197234630584717,-260.80322265625,-9.58251953125,187.68310546875
4.363655090332031,-1270704274,0,0.3600231409072876,0.9801265001296997,2.283252716064453,-214.53857421875,89.41650390625,155.70068359375
4.389410018920898,-1270704271,1,-0.43150433897972107,2.431386709213257,1.6486785411834717,-217.71240234375,83.19091796875,154.4189453125
4.389418363571167,-1270704252,1,-0.44053754210472107,2.569570302963257,1.4018523693084717,-256.591796875,131.65283203125,88.8671875
4.393985033035278,-1270704255,0,0.4676891565322876,1.0526362657546997,2.126758575439453,-179.01611328125,174.560546875,145.5078125
4.393993139266968,-1270704236,0,0.5541149377822876,1.0382319688796997,1.8647958040237427,-181.5185546875,261.5966796875,109.68017578125
4.40896201133728,-1270704233,1,-0.17540083825588226,2.357656240463257,1.0795867443084717,-318.115234375,138.427734375,14.95361328125
4.423700332641602,-1270704217,0,0.5856090784072876,0.9266597032546997,1.5110360383987427,-189.14794921875,295.166015625,85.3271484375
4.446130275726318,-1270704214,1,0.06849564611911774,1.9753321409225464,0.5529754161834717,-369.32373046875,117.431640625,-0.244140625
4.446139097213745,-1270704195,1,0.19789017736911774,1.4855860471725464,0.23144222795963287,-319.580078125,97.96142578125,7.9345703125
4.453634977340698,-1270704198,0,0.5973278284072876,0.7745600938796997,1.3098641633987427,-159.24072265625,280.029296875,77.0263671875
4.453688144683838,-1270704179,0,0.5961071252822876,0.6407710313796997,1.1968270540237427,-99.609375,223.69384765625,91.85791015625
4.468430042266846,-1270704176,1,0.40540972352027893,1.1608790159225464,0.27978208661079407,-187.01171875,120.17822265625,34.7900390625
4.493781328201294,-1270704143,0,0.4689098596572876,0.4020015299320221,0.9380379915237427,28.99169921875,150.45166015625,131.04248046875
4.4988720417022705,-1270704157,1,0.32728472352027893,1.0925196409225464,0.34570005536079407,-85.02197265625,160.5224609375,60.36376953125
4.498993158340454,-1270704138,1,0.19276322424411774,0.8806055784225464,0.49120786786079407,-6.65283203125,178.16162109375,52.8564453125
4.513515949249268,-1270704124,0,0.2960582971572876,0.2892085611820221,0.9834481477737427,125.79345703125,103.08837890625,160.15625
4.540197134017944,-1270704119,1,0.09486283361911774,0.8879297971725464,0.26293638348579407,87.82958984375,199.27978515625,54.6875
4.540207147598267,-1270704100,1,-0.059678178280591965,0.6332911252975464,0.20238949358463287,96.49658203125,136.16943359375,48.03466796875
4.54459810256958,-1270704105,0,0.1493297815322876,0.4044429361820221,0.8889657258987427,139.09912109375,62.8662109375,142.27294921875
4.544605255126953,-1270704086,0,0.049720413982868195,0.1178218424320221,0.5823251008987427,132.6904296875,28.4423828125,107.60498046875
4.572483062744141,-1270704067,0,-0.1636584997177124,-0.035254329442977905,0.5708504915237427,184.50927734375,-25.2685546875,126.89208984375
4.594152212142944,-1270704064,1,0.09339798986911774,-0.1406346708536148,0.33373716473579407,212.890625,149.47509765625,50.6591796875
4.594160079956055,-1270704045,1,0.10389603674411774,-0.009042870253324509,0.30663755536079407,313.96484375,193.17626953125,116.69921875
4.6038923263549805,-1270704048,0,-0.2068713903427124,-0.006445735692977905,0.6980477571487427,263.3056640625,-114.19677734375,206.0546875
4.604041337966919,-1270704029,0,-0.1258167028427124,0.2088862955570221,0.7395516633987427,339.84375,-186.09619140625,284.48486328125
4.618616104125977,-1270704026,1,-0.017685990780591965,0.5197657346725464,0.25683286786079407,435.9130859375,241.455078125,213.68408203125
4.641087293624878,-1270704010,0,0.1881481409072876,0.5333491563796997,0.7974129915237427,385.6201171875,-223.44970703125,327.1484375
4.641096115112305,-1270703991,0,0.1688610315322876,0.6180659532546997,0.5928231477737427,301.69677734375,-200.5615234375,279.1748046875
4.6509222984313965,-1270704007,1,-0.32701215147972107,1.1205958127975464,0.14477230608463287,469.29931640625,279.4189453125,208.251953125
4.650931119918823,-1270703988,1,-0.27378949522972107,0.8911036252975464,0.09252621233463287,314.3310546875,176.57470703125,155.029296875
4.663665056228638,-1270703972,0,0.0858532264828682,0.4784175455570221,0.3555184304714203,234.375,-178.64990234375,208.251953125
4.690399169921875,-1270703969,1,-0.19542036950588226,0.5556544065475464,-0.19067691266536713,244.2626953125,118.46923828125,151.123046875
4.6904072761535645,-1270703950,1,-0.19688521325588226,0.4604395627975464,-0.5856964588165283,252.44140625,71.35009765625,145.6298828125
4.6947922706604,-1270703953,0,0.037513382732868195,0.4513179361820221,0.1636238992214203,213.56201171875,-198.1201171875,182.67822265625
4.694799184799194,-1270703934,0,0.0860973671078682,0.5321284532546997,0.07011804729700089,204.52880859375,-248.84033203125,156.55517578125
4.708858251571655,-1270703931,1,-0.15074263513088226,0.5473536252975464,-0.6630890369415283,288.51318359375,15.68603515625,160.888671875
4.72388219833374,-1270703915,0,0.1783825159072876,0.5592280626296997,-0.034374140202999115,198.91357421875,-289.306640625,123.046875
4.746277093887329,-1270703912,1,-0.16172896325588226,0.6520899534225464,-0.5891144275665283,315.7958984375,-15.869140625,155.3955078125
4.746286153793335,-1270703893,1,-0.17564497888088226,0.7441309690475464,-0.5178253650665283,275.634765625,-73.54736328125,129.150390625
4.753740072250366,-1270703879,0,0.1759411096572876,0.5841304063796997,-0.029247187077999115,110.29052734375,-302.001953125,28.1982421875
4.76846718788147,-1270703874,1,-0.26646527647972107,0.7353419065475464,-0.41601869463920593,215.087890625,-145.3857421875,103.08837890625
4.793537139892578,-1270703860,0,0.0812145546078682,0.5201655626296997,-0.06879796832799911,33.38623046875,-274.96337890625,-56.5185546875
4.793545246124268,-1270703841,0,0.043861038982868195,0.4317866861820221,-0.005809687077999115,-19.53125,-247.13134765625,-115.3564453125
4.798779249191284,-1270703855,1,-0.25816449522972107,0.6005762815475464,-0.26758119463920593,136.3525390625,-212.2802734375,37.2314453125
4.7988622188568115,-1270703836,1,-0.21006880700588226,0.3205469846725464,-0.13428042829036713,73.54736328125,-256.04248046875,-10.7421875
4.827769041061401,-1270703800,1,-0.040879350155591965,-0.07911123335361481,0.10400082170963287,-1.46484375,-269.6533203125,-9.94873046875
4.844293117523193,-1270703822,0,-0.034996382892131805,0.3648921549320221,0.008594609797000885,-73.8525390625,-217.59033203125,-157.8369140625
4.844302177429199,-1270703803,0,-0.0869983360171318,0.2894527018070221,0.047901250422000885,-106.62841796875,-194.39697265625,-157.53173828125
4.84430718421936,-1270703784,0,-0.1368030309677124,0.2879878580570221,0.09526453167200089,-122.6806640625,-186.6455078125,-124.81689453125
4.858436107635498,-1270703781,1,-0.07457076013088226,-0.1486913114786148,0.26269224286079407,-18.24951171875,-248.291015625,47.2412109375
4.873624086380005,-1270703765,0,-0.1697620153427124,0.3385249674320221,0.2290535867214203,-136.474609375,-170.7763671875,-61.95068359375
4.893665075302124,-1270703762,1,-0.17125044763088226,-0.05176747962832451,0.39648130536079407,-37.4755859375,-221.25244140625,93.44482421875
4.893676042556763,-1270703743,1,-0.22447310388088226,0.1396387666463852,0.5986297130584717,-94.23828125,-203.67431640625,139.892578125
4.903670072555542,-1270703746,0,-0.2090686559677124,0.4337398111820221,0.4224129617214203,-179.99267578125,-151.0009765625,-2.3193359375
4.903746128082275,-1270703727,0,-0.1219104453921318,0.5836421251296997,0.7341805696487427,-250.67138671875,-123.53515625,56.0302734375
4.9185631275177,-1270703724,1,-0.11265669763088226,0.4020899534225464,0.9892547130584717,-165.283203125,-183.59375,200.98876953125
4.94078516960144,-1270703708,0,0.0714489296078682,0.6720210313796997,0.9634286165237427,-303.1005859375,-93.93310546875,123.22998046875
4.940793037414551,-1270703689,0,0.2464977502822876,0.6415034532546997,1.2617684602737427,-323.2421875,-63.41552734375,230.52978515625
4.948554992675781,-1270703705,1,0.053847212344408035,0.7324122190475464,1.2370574474334717,-240.17333984375,-146.30126953125,282.28759765625
4.9486682415008545,-1270703686,1,0.27528277039527893,1.0666407346725464,1.4604461193084717,-241.3330078125,-77.08740234375,351.806640625
4.963608026504517,-1270703670,0,0.5404430627822876,0.7293940782546997,1.7131844758987427,-298.583984375,-24.71923828125,359.619140625
4.9893810749053955,-1270703667,1,0.38465777039527893,1.8718165159225464,1.7714812755584717,-227.23388671875,49.01123046875,433.837890625
4.993751049041748,-1270703651,0,0.7098766565322876,0.6839839220046997,1.9990731477737427,-295.8984375,72.32666015625,429.3212890625
5.0088372230529785,-1270703648,1,0.5218647718429565,2.419179677963257,2.0339324474334717,-266.90673828125,142.02880859375,433.2275390625
5.008915185928345,-1270703629,1,0.6620014905929565,3.044179677963257,2.1608855724334717,-320.1904296875,238.46435546875,400.2685546875
5.02387809753418,-1270703615,0,1.0919567346572876,0.5418940782546997,2.391651153564453,-264.22119140625,268.798828125,434.50927734375
5.052763223648071,-1270703596,0,1.0670543909072876,0.3517085611820221,2.361621856689453,-211.12060546875,343.75,400.32958984375
5.053647041320801,-1270703577,0,1.1168590784072876,0.016259342432022095,2.046436309814453,-152.9541015625,343.56689453125,394.287109375
5.0689473152160645,-1270703610,1,0.6600483655929565,3.119130849838257,1.8918426036834717,-354.06494140625,303.40576171875,318.42041015625
5.069116115570068,-1270703591,1,1.1505268812179565,2.379384756088257,1.5624969005584717,-372.6806640625,319.76318359375,215.4541015625
5.0691540241241455,-1270703572,1,1.6375874280929565,1.5429590940475464,1.2805144786834717,-343.994140625,306.2744140625,227.23388671875
5.092514991760254,-1270703558,0,1.1905895471572876,-0.1546390950679779,1.7896004915237427,-84.77783203125,313.78173828125,444.03076171875
5.092523097991943,-1270703539,0,1.1014782190322876,-0.049902766942977905,1.6396981477737427,-10.1318359375,251.708984375,480.5908203125
5.0983569622039795,-1270703536,1,1.4432514905929565,1.5808008909225464,0.43798521161079407,-106.62841796875,365.66162109375,360.77880859375
5.113405227661133,-1270703520,0,1.1915661096572876,0.1473628580570221,1.4204598665237427,52.42919921875,202.57568359375,448.66943359375
5.128943204879761,-1270703517,1,1.0338276624679565,1.8928126096725464,0.14233089983463287,7.38525390625,345.3369140625,292.48046875
5.1451592445373535,-1270703501,0,1.3021618127822876,0.2120601236820221,1.2046395540237427,106.87255859375,163.57421875,364.19677734375
5.145177125930786,-1270703482,0,1.3480602502822876,0.2777339518070221,1.0986825227737427,153.62548828125,143.24951171875,263.36669921875
5.158636093139648,-1270703498,1,0.9041889905929565,1.9318751096725464,0.15356136858463287,53.03955078125,325.74462890625,206.11572265625
5.158706188201904,-1270703479,1,0.8924702405929565,1.7800196409225464,0.028805512934923172,76.72119140625,294.43359375,83.80126953125
5.173587322235107,-1270703463,0,1.1283336877822876,-0.017187923192977905,1.0881844758987427,173.9501953125,114.3798828125,175.537109375
5.193252086639404,-1270703460,1,0.7647846937179565,1.2624415159225464,0.002194184809923172,137.0849609375,233.642578125,12.8173828125
5.1933112144470215,-1270703441,1,0.6964253187179565,1.1779688596725464,0.21532894670963287,256.103515625,193.84765625,-29.23583984375
5.203665256500244,-1270703444,0,0.9391247034072876,0.045067936182022095,1.0383797883987427,263.0615234375,27.4658203125,119.32373046875
5.203743934631348,-1270703425,0,0.7499157190322876,-0.051123470067977905,1.0034676790237427,310.60791015625,-35.33935546875,44.921875
5.218494176864624,-1270703422,1,0.44691362977027893,1.1396387815475464,0.34862974286079407,302.3681640625,164.48974609375,-78.43017578125
5.2399821281433105,-1270703406,0,0.5907360315322876,-0.2637699544429779,0.9802743196487427,323.42529296875,-64.88037109375,-46.875
5.248608112335205,-1270703403,1,0.49915972352027893,0.9120997190475464,0.6450164318084717,332.03125,110.2294921875,-172.42431640625
5.248733282089233,-1270703384,1,0.6197651624679565,0.6122950315475464,0.9267547130584717,338.0126953125,94.78759765625,-232.666015625
5.263489007949829,-1270703387,0,0.5004040002822876,-0.4021976888179779,0.9036141633987427,315.49072265625,-69.15283203125,-110.53466796875
5.289279222488403,-1270703365,1,0.5719135999679565,0.6044825315475464,0.9570281505584717,401.79443359375,132.2021484375,-265.07568359375
5.293790340423584,-1270703351,0,0.3348766565322876,-0.4466312825679779,1.0276376008987427,356.5673828125,-99.853515625,-140.9912109375
5.293894052505493,-1270703332,0,0.3065563440322876,-0.4661625325679779,0.7874032258987427,345.0927734375,-125.0,-135.92529296875
5.308696031570435,-1270703346,1,0.6021870374679565,0.4164942502975464,0.9489715099334717,418.51806640625,113.70849609375,-258.60595703125
5.308812141418457,-1270703327,1,0.7240132093429565,0.3237208127975464,0.9570281505584717,356.93359375,58.349609375,-213.92822265625
5.353070020675659,-1270703313,0,0.3141247034072876,-0.3851078450679779,0.8096200227737427,313.720703125,-132.01904296875,-150.2685546875
5.353772163391113,-1270703294,0,0.2501598596572876,-0.1138676106929779,0.8877450227737427,275.390625,-134.521484375,-163.57421875
5.368571043014526,-1270703308,1,0.41273394227027893,0.4890040159225464,0.7976043224334717,336.73095703125,40.771484375,-152.03857421875
5.368683099746704,-1270703272,1,0.08973588049411774,0.5810450315475464,0.7075164318084717,285.33935546875,-38.9404296875,-142.15087890625
5.392325162887573,-1270703275,0,0.0665661171078682,0.028466373682022095,0.9321786165237427,218.68896484375,-144.1650390625,-180.35888671875
5.392332077026367,-1270703256,0,0.0038219764828681946,0.056054264307022095,0.9026376008987427,211.0595703125,-171.32568359375,-169.921875
5.398816108703613,-1270703253,1,0.06507767736911774,0.4682520627975464,0.6394011974334717,301.57470703125,-52.30712890625,-88.19580078125
5.398890256881714,-1270703234,1,0.018202681094408035,0.6247462034225464,0.47851255536079407,308.9599609375,-50.96435546875,-28.01513671875
5.4137163162231445,-1270703237,0,0.026771195232868195,0.2457515299320221,0.8972665071487427,217.59033203125,-215.576171875,-118.46923828125
5.413804054260254,-1270703218,0,0.0956188514828682,0.4696284830570221,0.8684579133987427,187.01171875,-251.28173828125,-90.39306640625
5.439688205718994,-1270703215,1,-0.11558638513088226,0.8317774534225464,0.37987974286079407,287.109375,-88.43994140625,27.83203125
5.445493936538696,-1270703199,0,0.1451793909072876,0.5833979845046997,0.9282723665237427,162.109375,-250.3662109375,-90.14892578125
5.445501089096069,-1270703180,0,0.1383434534072876,0.7606440782546997,0.8572274446487427,91.30859375,-219.90966796875,-127.38037109375
5.458589315414429,-1270703196,1,-0.33287152647972107,1.1279200315475464,0.34472349286079407,280.70068359375,-99.18212890625,41.80908203125
5.458665132522583,-1270703177,1,-0.5035258531570435,1.2717188596725464,0.27587583661079407,201.0498046875,-162.353515625,9.8876953125
5.475341081619263,-1270703161,0,0.0819469764828682,0.7303706407546997,0.7307626008987427,40.71044921875,-175.9033203125,-189.8193359375
5.493945121765137,-1270703158,1,-0.5584574937820435,1.2311915159225464,0.23949886858463287,118.1640625,-228.69873046875,-55.11474609375
5.493956089019775,-1270703139,1,-0.5921489000320435,1.1511133909225464,0.12963558733463287,80.26123046875,-226.62353515625,-101.806640625
5.504151105880737,-1270703142,0,0.021400101482868195,0.8290034532546997,0.7051278352737427,22.0947265625,-146.8505859375,-220.703125
5.518425226211548,-1270703120,1,-0.7525492906570435,1.0200098752975464,-0.003909330815076828,73.18115234375,-229.4921875,-125.18310546875
5.542701005935669,-1270703123,0,-0.1636584997177124,0.9530268907546997,0.7007333040237427,23.98681640625,-122.802734375,-250.732421875
5.548509120941162,-1270703101,1,-0.9109965562820435,0.9667872190475464,-0.03320620581507683,106.5673828125,-214.35546875,-135.009765625
5.561476230621338,-1270703082,1,-1.0779887437820435,1.0151270627975464,-0.08642886579036713,143.00537109375,-180.72509765625,-146.240234375
5.563772201538086,-1270703087,0,-0.4458850622177124,1.1485835313796997,0.5347176790237427,79.04052734375,-105.5908203125,-254.45556640625
5.563831090927124,-1270703068,0,-0.5640491247177124,1.2586909532546997,0.4639168679714203,137.451171875,-105.5908203125,-242.37060546875
5.587922096252441,-1270703063,1,-1.1920024156570435,0.9897364377975464,-0.14966128766536713,178.64990234375,-157.958984375,-159.97314453125
5.59412407875061,-1270703049,0,-0.5708850622177124,1.4151850938796997,0.4583016335964203,176.26953125,-113.76953125,-231.0791015625
5.5941321849823,-1270703030,0,-0.5677112340927124,1.4439936876296997,0.3435555398464203,201.66015625,-101.74560546875,-230.1025390625
5.6084980964660645,-1270703044,1,-1.2440043687820435,1.1249903440475464,-0.16455386579036713,218.44482421875,-124.6337890625,-171.81396484375
5.623789072036743,-1270703011,0,-0.6502307653427124,1.4425288438796997,0.1831551492214203,235.77880859375,-77.0263671875,-250.18310546875
5.643353223800659,-1270703008,1,-1.3448344469070435,1.0358790159225464,-0.30029603838920593,229.6142578125,-100.64697265625,-238.46435546875
5.643362998962402,-1270702989,1,-1.0572367906570435,0.6286524534225464,-0.23804019391536713,256.65283203125,-80.56640625,-265.31982421875
5.653796195983887,-1270702992,0,-0.6978381872177124,1.2247554063796997,0.060352422297000885,267.15087890625,-71.10595703125,-264.16015625
5.653869152069092,-1270702973,0,-0.7019885778427124,0.9256831407546997,0.010303594172000885,333.06884765625,-93.93310546875,-225.09765625
5.668503046035767,-1270702970,1,-0.8130961656570435,0.2245997041463852,-0.08789370954036713,341.552734375,-32.77587890625,-227.72216796875
5.69198203086853,-1270702954,0,-0.7737659215927124,0.7372065782546997,0.023975469172000885,388.97705078125,-128.173828125,-171.38671875
5.6985931396484375,-1270702951,1,-0.8758403062820435,0.1862696260213852,0.08764339983463287,418.76220703125,18.4326171875,-189.02587890625
5.6987950801849365,-1270702932,1,-0.9168559312820435,-0.04761708900332451,0.5195281505584717,458.8623046875,24.0478515625,-170.166015625
5.713709115982056,-1270702935,0,-0.9688342809677124,0.3636714518070221,0.11186609417200089,431.21337890625,-160.2783203125,-133.7890625
5.713828086853027,-1270702916,0,-1.0164417028427124,-0.0665043294429779,0.1787606179714203,435.6689453125,-156.06689453125,-109.375
5.739986181259155,-1270702913,1,-0.7679301500320435,-0.3510838747024536,1.0122039318084717,473.69384765625,49.6826171875,-166.3818359375
5.745774030685425,-1270702897,0,-1.3015979528427124,-0.4119633138179779,0.2385750710964203,440.00244140625,-140.56396484375,-81.48193359375
5.758608102798462,-1270702894,1,-0.7806254625320435,-0.6535741090774536,1.3000457286834717,452.880859375,81.4208984375,-154.47998046875
5.758737087249756,-1270702875,1,-0.6868754625320435,-0.9296971559524536,1.4389617443084717,431.45751953125,94.05517578125,-144.95849609375
5.773543119430542,-1270702878,0,-1.3914417028427124,-0.6702641248703003,0.2761727273464203,430.7861328125,-125.79345703125,-62.01171875
5.773615121841431,-1270702859,0,-1.3533557653427124,-1.0367192029953003,0.2119637429714203,426.33056640625,-118.5302734375,-24.7802734375
5.793827056884766,-1270702856,1,-0.38829144835472107,-1.2399998903274536,1.5615203380584717,427.24609375,126.46484375,-132.2021484375
5.8033740520477295,-1270702823,0,-1.0738147497177124,-1.2525395154953003,0.056690312922000885,441.58935546875,-54.26025390625,104.8583984375
5.821164131164551,-1270702837,1,-0.18052779138088226,-1.2795506715774536,1.7697722911834717,438.720703125,188.17138671875,-93.68896484375
5.821174144744873,-1270702818,1,-0.17784224450588226,-1.2736912965774536,1.8037078380584717,406.79931640625,290.8935546875,-72.69287109375
5.841315031051636,-1270702804,0,-0.9353870153427124,-1.1077641248703003,-0.12226476520299911,447.44873046875,4.39453125,174.1943359375
5.8778321743011475,-1270702799,1,0.060683149844408035,-1.3647557497024536,1.4118621349334717,306.94580078125,369.5068359375,-83.80126953125
5.889037132263184,-1270702780,1,0.19740189611911774,-1.5112401247024536,0.9006316661834717,234.0087890625,400.2685546875,-65.673828125
5.893915176391602,-1270702785,0,-0.8025745153427124,-1.0110844373703003,-0.2619132101535797,422.9736328125,38.39111328125,211.669921875
5.894107103347778,-1270702766,0,-0.6875842809677124,-0.9046391248703003,-0.4171866476535797,368.59130859375,61.767578125,238.09814453125
5.894122362136841,-1270702747,0,-0.5464709997177124,-0.6968754529953003,-0.4547843039035797,274.2919921875,71.2890625,243.408203125
5.894894123077393,-1270702728,0,-0.3011096715927124,-0.4959476888179779,-0.3529776632785797,132.99560546875,60.24169921875,198.79150390625
5.908785104751587,-1270702744,1,0.33998003602027893,-1.6750584840774536,0.20678402483463287,81.4208984375,333.19091796875,8.85009765625
5.908906936645508,-1270702725,1,0.35658159852027893,-1.2526952028274536,-0.18237613141536713,-54.26025390625,202.45361328125,73.66943359375
5.923792123794556,-1270702709,0,-0.2898792028427124,-0.5779789686203003,-0.5749014616012573,-30.029296875,96.86279296875,149.2919921875
5.942869186401367,-1270702706,1,0.5457905530929565,-1.1941014528274536,-0.25268861651420593,-161.19384765625,65.97900390625,86.60888671875
5.9541261196136475,-1270702690,0,-0.1734241247177124,-0.6797856092453003,-0.6378897428512573,-190.5517578125,73.3642578125,124.45068359375
5.954210996627808,-1270702671,0,-0.0906604453921318,-0.8553227186203003,-0.4682120382785797,-288.87939453125,28.80859375,162.59765625
5.968637228012085,-1270702687,1,0.7931050062179565,-1.3342381715774536,-0.09277652204036713,-255.79833984375,-35.0341796875,148.49853515625
5.968725204467773,-1270702668,1,1.0079487562179565,-1.0847264528274536,0.13207699358463287,-262.87841796875,-69.03076171875,218.56689453125
5.989850044250488,-1270702652,0,0.0858532264828682,-0.9227055311203003,-0.2475089132785797,-319.091796875,-17.15087890625,205.99365234375
5.998608112335205,-1270702649,1,1.0128315687179565,-0.7219334840774536,0.31762388348579407,-246.09375,-79.345703125,295.8984375
5.998705148696899,-1270702630,1,1.1922749280929565,-0.3005467653274536,0.6086394786834717,-195.1904296875,-52.91748046875,363.8916015625
6.013790130615234,-1270702633,0,0.2245250940322876,-0.8375004529953003,0.022998906672000885,-304.01611328125,-67.32177734375,258.056640625
6.0139031410217285,-1270702614,0,0.4274059534072876,-0.5989750623703003,0.3801766335964203,-288.14697265625,-101.5625,324.70703125
6.039801120758057,-1270702611,1,0.9791401624679565,0.3488672971725464,0.8188445568084717,-182.7392578125,-23.681640625,423.15673828125
6.04526424407959,-1270702595,0,0.5450817346572876,-0.3426273763179779,0.6055184602737427,-285.7666015625,-94.17724609375,365.72265625
6.0587241649627686,-1270702592,1,0.9224995374679565,0.6371973752975464,0.8832976818084717,-197.93701171875,-2.25830078125,432.80029296875
6.07372522354126,-1270702559,0,0.5846325159072876,0.1039058268070221,1.0110360383987427,-323.18115234375,-76.5380859375,421.44775390625
6.096746206283569,-1270702573,1,0.9034565687179565,0.9511622190475464,0.8706023693084717,-231.3232421875,14.09912109375,457.3974609375
6.096754312515259,-1270702554,1,0.7423237562179565,1.3727930784225464,0.8220183849334717,-251.8310546875,10.19287109375,492.919921875
6.103691101074219,-1270702540,0,0.6771618127822876,0.3163081705570221,1.1616708040237427,-336.12060546875,-71.77734375,425.4150390625
6.103772163391113,-1270702521,0,0.9130016565322876,0.5892573595046997,1.1948739290237427,-307.0068359375,-63.3544921875,449.27978515625
6.118649005889893,-1270702535,1,0.6458882093429565,1.7726954221725464,0.8444793224334717,-238.6474609375,24.84130859375,501.708984375
6.1188390254974365,-1270702516,1,0.7266987562179565,2.070058584213257,0.8205535411834717,-223.44970703125,91.552734375,498.35205078125
6.141601085662842,-1270702502,0,1.2418590784072876,0.9930659532546997,1.3179208040237427,-247.314453125,-37.9638671875,526.42822265625
6.148766279220581,-1270702480,1,1.1656635999679565,2.936025381088257,0.5417449474334717,-217.10205078125,280.82275390625,557.67822265625
6.163625240325928,-1270702483,0,1.5797497034072876,1.3604975938796997,1.4473153352737427,-207.70263671875,1.5869140625,622.49755859375
6.163877248764038,-1270702464,0,1.8907848596572876,1.6202632188796997,1.4424325227737427,-196.2890625,58.837890625,673.095703125
6.179977178573608,-1270702461,1,1.0953510999679565,3.780751943588257,0.17577816545963287,-262.939453125,377.3193359375,564.63623046875
6.194010019302368,-1270702445,0,1.9520641565322876,1.7899409532546997,1.2576180696487427,-215.27099609375,172.91259765625,619.68994140625
6.210461139678955,-1270702442,1,0.6078022718429565,3.889150381088257,-0.36670228838920593,-363.4033203125,359.619140625,461.48681640625
6.210470199584961,-1270702423,1,0.8094624280929565,3.491201162338257,-0.6518585681915283,-422.9736328125,271.1181640625,280.3955078125
6.223819971084595,-1270702426,0,2.008704900741577,1.6627436876296997,1.0383797883987427,-253.72314453125,242.1875,508.85009765625
6.22393012046814,-1270702407,0,2.033363103866577,1.4342280626296997,1.0620614290237427,-248.47412109375,233.5205078125,397.0947265625
6.242843151092529,-1270702404,1,1.0001362562179565,3.047841787338257,-0.6960480213165283,-419.5556640625,199.8291015625,221.6796875
6.2537841796875,-1270702388,0,2.163001775741577,1.2430659532546997,1.1973153352737427,-245.54443359375,192.2607421875,359.19189453125
6.253931999206543,-1270702369,0,2.346107244491577,0.8934565782546997,1.2903329133987427,-226.98974609375,121.76513671875,366.63818359375
6.268672943115234,-1270702385,1,1.4957417249679565,2.596425771713257,-0.34888002276420593,-351.62353515625,109.31396484375,233.154296875
6.26879620552063,-1270702366,1,1.8465718030929565,2.598378896713257,-0.07495425641536713,-244.81201171875,123.6572265625,318.603515625
6.2903149127960205,-1270702350,0,2.413734197616577,0.7345210313796997,1.1165047883987427,-151.30615234375,61.09619140625,401.67236328125
6.298399209976196,-1270702347,1,1.5770405530929565,2.553457021713257,-0.29590150713920593,-157.1044921875,158.8134765625,352.1728515625
6.313477039337158,-1270702331,0,2.223060369491577,0.6097651720046997,1.0051766633987427,-103.8818359375,12.39013671875,387.451171875
6.3404381275177,-1270702328,1,1.5033100843429565,2.353261709213257,-0.39258119463920593,-116.02783203125,133.72802734375,331.0546875
6.340447187423706,-1270702309,1,1.4967182874679565,1.8605860471725464,-0.40039369463920593,-108.70361328125,63.04931640625,300.35400390625
6.34699010848999,-1270702295,0,1.8636852502822876,0.0633784830570221,0.5198251008987427,-109.55810546875,-93.81103515625,295.166015625
6.3587682247161865,-1270702290,1,1.6410053968429565,1.0461329221725464,-0.40674135088920593,-99.67041015625,-15.44189453125,286.80419921875
6.358908176422119,-1270702271,1,1.8128803968429565,0.5663965940475464,-0.37378236651420593,-37.17041015625,-85.51025390625,334.3505859375
6.373646020889282,-1270702276,0,1.6146618127822876,-0.1910160481929779,0.3596688210964203,-87.95166015625,-184.99755859375,323.73046875
6.402795076370239,-1270702257,0,1.3404918909072876,-0.1622074544429779,0.3499031960964203,-57.2509765625,-291.07666015625,397.4609375
6.403777122497559,-1270702238,0,1.3126598596572876,-0.0848148763179779,0.5447274446487427,-38.14697265625,-344.90966796875,468.68896484375
6.403886079788208,-1270702219,0,1.2572399377822876,0.3065425455570221,0.7041512727737427,-39.12353515625,-364.80712890625,514.2822265625
6.4185791015625,-1270702252,1,1.9488667249679565,0.6708887815475464,-0.18359683454036713,82.763671875,-36.376953125,464.17236328125
6.41867208480835,-1270702216,1,1.0721577405929565,1.9191797971725464,0.31957700848579407,176.69677734375,141.11328125,625.8544921875
6.44083309173584,-1270702200,0,1.0917125940322876,0.6166011095046997,0.8279305696487427,-42.41943359375,-287.29248046875,464.53857421875
6.4484453201293945,-1270702197,1,0.19886673986911774,2.637441396713257,0.23925472795963287,132.2021484375,160.64453125,564.94140625
6.4638142585754395,-1270702181,0,0.9396129846572876,0.8346186876296997,0.8574715852737427,-20.1416015625,-175.47607421875,330.50537109375
6.463932275772095,-1270702162,0,0.7211071252822876,0.5487300157546997,0.8245126008987427,15.2587890625,-116.14990234375,222.22900390625
6.489716291427612,-1270702178,1,-0.5967875719070435,2.354726552963257,0.08324886858463287,74.462890625,134.82666015625,360.29052734375
6.489724159240723,-1270702159,1,-0.09581099450588226,1.2975977659225464,0.44091489911079407,38.63525390625,103.94287109375,135.68115234375
6.507695198059082,-1270702140,1,0.40272417664527893,1.1110743284225464,0.41405943036079407,95.5810546875,159.97314453125,148.25439453125
6.508596181869507,-1270702121,1,0.46668902039527893,1.0854395627975464,0.30981138348579407,94.05517578125,145.6298828125,204.40673828125
6.523808002471924,-1270702143,0,0.5331188440322876,0.3421870768070221,1.0642586946487427,69.580078125,-113.037109375,223.08349609375
6.523890256881714,-1270702124,0,0.8006969690322876,0.3824702799320221,0.9546395540237427,94.54345703125,-121.58203125,238.46435546875
6.524744272232056,-1270702105,0,0.7018200159072876,0.3060542643070221,1.0754891633987427,135.07080078125,-152.28271484375,252.9296875
6.5435450077056885,-1270702102,1,0.28089800477027893,1.0424708127975464,0.35546568036079407,175.72021484375,208.740234375,256.65283203125
6.553600072860718,-1270702086,0,0.5414196252822876,0.4686519205570221,1.0999032258987427,171.9970703125,-196.533203125,278.25927734375
6.568593263626099,-1270702083,1,-0.09532271325588226,1.3723047971725464,0.22338558733463287,189.14794921875,195.6787109375,293.212890625
6.568698167800903,-1270702064,1,-0.31504926085472107,1.3354395627975464,0.27563169598579407,195.9228515625,139.404296875,265.2587890625
6.591426134109497,-1270702067,0,0.4628063440322876,0.4981929361820221,1.0876961946487427,176.08642578125,-189.208984375,248.96240234375
6.598485231399536,-1270702045,1,-0.15489302575588226,1.1784571409225464,0.48656919598579407,232.421875,147.8271484375,215.39306640625
6.613569021224976,-1270702031,0,0.3566051721572876,0.060204654932022095,1.2666512727737427,242.49267578125,-220.8251953125,197.8759765625
6.613656997680664,-1270702012,0,0.3251110315322876,-0.029394954442977905,1.3186532258987427,281.92138671875,-209.28955078125,210.693359375
6.639435052871704,-1270702026,1,-0.025010209530591965,0.8923243284225464,0.9409148693084717,290.4052734375,188.232421875,226.1962890625
6.639444351196289,-1270702007,1,-0.19078169763088226,1.0266016721725464,0.9311492443084717,312.6220703125,238.58642578125,240.29541015625
6.65788722038269,-1270701988,1,-0.09898482263088226,0.9025782346725464,0.9750945568084717,265.9912109375,205.13916015625,202.880859375
6.693685054779053,-1270701952,1,0.21693314611911774,0.3974512815475464,0.7756316661834717,202.1484375,186.4013671875,190.12451171875
6.704130172729492,-1270701993,0,0.3238903284072876,-0.1277836263179779,1.2693368196487427,291.8701171875,-196.96044921875,203.18603515625
6.704304218292236,-1270701974,0,0.3509899377822876,-0.2720707356929779,1.0889168977737427,274.10888671875,-190.3076171875,189.27001953125
6.704317092895508,-1270701955,0,0.3099743127822876,-0.2554691731929779,1.0205575227737427,269.34814453125,-193.54248046875,188.232421875
6.704814195632935,-1270701936,0,0.2101207971572876,-0.2027347981929779,0.9890633821487427,258.97216796875,-216.36962890625,210.51025390625
6.718393087387085,-1270701933,1,0.17689408361911774,0.3093165159225464,0.6362273693084717,207.70263671875,171.630859375,236.14501953125
6.718485355377197,-1270701914,1,0.08778275549411774,0.2363184541463852,0.7546355724334717,219.90966796875,140.80810546875,293.39599609375
6.74212121963501,-1270701917,0,0.1005016639828682,-0.3455570638179779,0.9631844758987427,227.11181640625,-250.8544921875,223.6328125
6.74212908744812,-1270701898,0,0.0018688514828681946,-0.0784672200679779,0.9575692415237427,194.9462890625,-252.8076171875,247.1923828125
6.748559236526489,-1270701895,1,-0.06553755700588226,0.4204005002975464,0.7692840099334717,166.3818359375,88.2568359375,345.03173828125
6.763583183288574,-1270701879,0,-0.020592086017131805,-0.1702640950679779,0.8550301790237427,159.912109375,-258.7890625,246.7041015625
6.763666152954102,-1270701860,0,0.1168590858578682,-0.1221683919429779,0.8582040071487427,150.20751953125,-257.38525390625,260.55908203125
6.790854215621948,-1270701876,1,-0.06797896325588226,0.4545801877975464,0.7043426036834717,142.02880859375,77.880859375,328.369140625
6.7908711433410645,-1270701857,1,-0.016465287655591965,0.5297755002975464,0.7241179943084717,143.61572265625,104.79736328125,327.7587890625
6.795521974563599,-1270701841,0,0.2909313440322876,-0.0940922200679779,1.0256844758987427,144.287109375,-257.14111328125,280.09033203125
6.808587074279785,-1270701838,1,0.24134720861911774,0.7133692502975464,0.7336394786834717,134.8876953125,100.40283203125,334.5947265625
6.808689117431641,-1270701819,1,0.46327105164527893,0.9030665159225464,0.8588836193084717,130.55419921875,78.369140625,377.99072265625
6.823588132858276,-1270701822,0,0.4935680627822876,-0.1370609700679779,1.2844735383987427,123.35205078125,-292.41943359375,296.9970703125
6.823716163635254,-1270701803,0,0.6717907190322876,-0.2652347981929779,1.4419442415237427,118.59130859375,-324.70703125,309.6923828125
6.843067169189453,-1270701800,1,0.38123980164527893,1.2839258909225464,1.1586883068084717,151.611328125,61.6455078125,419.25048828125
6.867850303649902,-1270701781,1,0.27503862977027893,1.4362696409225464,1.2705047130584717,128.72314453125,39.48974609375,382.9345703125
6.868634223937988,-1270701762,1,0.5030659437179565,1.2236231565475464,1.4165008068084717,93.32275390625,-6.40869140625,294.7998046875
6.889044284820557,-1270701767,0,0.8998180627822876,-0.5523442029953003,1.4316903352737427,74.462890625,-276.123046875,243.0419921875
6.889052152633667,-1270701748,0,0.9645153284072876,-0.9173344373703003,1.4629403352737427,48.7060546875,-252.86865234375,185.48583984375
6.8984832763671875,-1270701743,1,0.8748921155929565,0.9120997190475464,1.5602996349334717,78.9794921875,-45.83740234375,231.99462890625
6.913866281509399,-1270701729,0,1.0489879846572876,-1.1189945936203003,1.5127450227737427,14.16015625,-262.451171875,147.88818359375
6.9139649868011475,-1270701710,0,1.0543590784072876,-1.2759770154953003,1.5474129915237427,-49.072265625,-267.27294921875,108.2763671875
6.939268112182617,-1270701724,1,0.9986714124679565,0.8696192502975464,1.6486785411834717,65.5517578125,-113.83056640625,184.9365234375
6.943791151046753,-1270701691,0,0.9867321252822876,-1.5101078748703003,1.5483895540237427,-126.708984375,-244.384765625,28.01513671875
6.9586710929870605,-1270701688,1,1.1158589124679565,0.7448633909225464,2.0017058849334717,-2.9296875,-311.5234375,139.09912109375
6.958788156509399,-1270701669,1,1.2352436780929565,0.5742090940475464,2.2853972911834717,-0.42724609375,-367.67578125,109.86328125
6.973694324493408,-1270701672,0,0.9025036096572876,-1.7884281873703003,1.6287118196487427,-176.57470703125,-212.7685546875,-45.22705078125
6.973789215087891,-1270701653,0,0.7152477502822876,-1.7447270154953003,1.6423836946487427,-229.55322265625,-162.4755859375,-116.5771484375
6.995512008666992,-1270701650,1,1.1046284437179565,0.4526270627975464,2.2460906505584717,-29.6630859375,-391.4794921875,85.3271484375
7.003514051437378,-1270701634,0,0.4945446252822876,-1.7984379529953003,1.5310555696487427,-270.263671875,-159.912109375,-166.1376953125
7.018722057342529,-1270701631,1,1.1034077405929565,0.2150782197713852,2.2805144786834717,-91.6748046875,-420.8984375,15.0146484375
7.018798112869263,-1270701612,1,0.7359760999679565,0.3808497190475464,2.2194793224334717,-93.56689453125,-433.16650390625,-25.69580078125
7.042964220046997,-1270701615,0,0.4803844690322876,-1.6695317029953003,1.7883797883987427,-306.2744140625,-165.283203125,-222.47314453125
7.042972087860107,-1270701596,0,0.1815563440322876,-1.4419926404953003,1.7581063508987427,-307.861328125,-139.34326171875,-286.0107421875
7.048375129699707,-1270701593,1,0.47816362977027893,0.2409571260213852,2.0895965099334717,-97.96142578125,-456.72607421875,-83.92333984375
7.063348293304443,-1270701577,0,-0.1123889610171318,-1.1248539686203003,1.5952645540237427,-322.1435546875,-129.21142578125,-325.3173828125
7.089928150177002,-1270701574,1,0.28700152039527893,0.08495126664638519,1.8083465099334717,-116.39404296875,-468.68896484375,-106.01806640625
7.089936256408691,-1270701555,1,0.09168900549411774,0.012441504746675491,1.3513152599334717,-86.5478515625,-472.412109375,-121.39892578125
7.094217300415039,-1270701558,0,-0.3443225622177124,-0.9131840467453003,1.4243661165237427,-310.36376953125,-140.31982421875,-346.86279296875
7.094224214553833,-1270701539,0,-0.4602893590927124,-0.4603031575679779,1.2959481477737427,-285.7666015625,-174.37744140625,-360.29052734375
7.108503103256226,-1270701536,1,-0.11949263513088226,0.2790430784225464,1.0930144786834717,-24.0478515625,-472.59521484375,-125.0
7.123676061630249,-1270701503,0,-0.041344039142131805,0.016503483057022095,1.4968758821487427,-220.27587890625,-154.052734375,-407.958984375
7.142755031585693,-1270701517,1,-0.30113324522972107,0.7089747190475464,1.2880828380584717,66.5283203125,-448.91357421875,-121.2158203125
7.142763137817383,-1270701498,1,-0.21714888513088226,1.0317286252975464,1.4611785411834717,92.83447265625,-415.0390625,-138.916015625
7.153369188308716,-1270701484,0,0.1981579065322876,0.2230464518070221,1.2236825227737427,-206.23779296875,-83.55712890625,-392.08984375
7.168650150299072,-1270701479,1,-0.22471724450588226,1.2358301877975464,1.1220672130584717,-17.63916015625,-359.619140625,-178.955078125
7.168753147125244,-1270701460,1,-0.21275435388088226,1.1140040159225464,0.34277036786079407,-135.25390625,-351.74560546875,-230.16357421875
7.190918207168579,-1270701465,0,0.3236461877822876,0.3988277018070221,0.9705086946487427,-192.81005859375,-55.96923828125,-372.13134765625
7.190927028656006,-1270701446,0,0.2884899377822876,0.5309077501296997,0.8032723665237427,-173.52294921875,-14.2822265625,-371.64306640625
7.2138800621032715,-1270701427,0,0.3951793909072876,0.5946284532546997,0.6050301790237427,-149.96337890625,5.9814453125,-400.57373046875
7.237895250320435,-1270701424,1,-0.047715287655591965,1.0805567502975464,-0.16553042829036713,-81.298828125,-324.462890625,-301.69677734375
7.237904071807861,-1270701405,1,0.16859330236911774,1.2304590940475464,0.23412777483463287,-20.1416015625,-265.869140625,-330.810546875
7.244110107421875,-1270701408,0,0.6439586877822876,0.5458003282546997,0.6111336946487427,-126.220703125,51.08642578125,-411.7431640625
7.244117975234985,-1270701389,0,0.8014293909072876,0.6310054063796997,0.5073739290237427,-106.14013671875,112.4267578125,-407.16552734375
7.258495330810547,-1270701386,1,0.13783158361911774,1.3991602659225464,0.13915707170963287,-71.2890625,-227.47802734375,-344.8486328125
7.27372407913208,-1270701370,0,0.7110973596572876,0.7147456407546997,0.3320809304714203,-87.40234375,184.9365234375,-406.6162109375
7.273802280426025,-1270701351,0,0.6727672815322876,0.9044429063796997,0.2141610085964203,-88.623046875,192.32177734375,-424.9267578125
7.292817115783691,-1270701367,1,0.10218705236911774,1.3566797971725464,-0.40967103838920593,-138.36669921875,-199.70703125,-398.681640625
7.292862176895142,-1270701348,1,0.21644486486911774,1.2897852659225464,-0.7587921619415283,-187.6220703125,-214.2333984375,-451.0498046875
7.303426027297974,-1270701332,0,0.6190563440322876,1.1026850938796997,0.1477547585964203,-130.0048828125,153.13720703125,-427.91748046875
7.318570375442505,-1270701329,1,0.18739213049411774,1.1371973752975464,-0.9582550525665283,-261.474609375,-281.67724609375,-456.35986328125
7.318629026412964,-1270701310,1,0.09339798986911774,0.9985255002975464,-1.0393097400665283,-243.896484375,-294.49462890625,-400.634765625
7.343268156051636,-1270701313,0,0.4447399377822876,1.1507807970046997,0.1558113992214203,-159.1796875,112.60986328125,-438.8427734375
7.3432769775390625,-1270701294,0,0.1905895471572876,1.1190425157546997,0.2014656960964203,-108.642578125,40.6494140625,-430.5419921875
7.348441123962402,-1270701291,1,-0.19957076013088226,0.7192286252975464,-0.9135773181915283,-79.16259765625,-246.03271484375,-323.30322265625
7.363775253295898,-1270701275,0,-0.037193648517131805,1.3897944688796997,0.3367196023464203,17.63916015625,-67.32177734375,-342.46826171875
7.394236087799072,-1270701239,0,0.022620804607868195,1.9562007188796997,0.6775399446487427,138.00048828125,-213.623046875,-292.54150390625
7.408682346343994,-1270701272,1,-0.5621196031570435,0.8903712034225464,-0.8410675525665283,169.61669921875,-152.4658203125,-219.42138671875
7.408785104751587,-1270701253,1,-0.9637309312820435,1.5602930784225464,-0.5100128650665283,290.6494140625,-172.91259765625,-116.2109375
7.442883014678955,-1270701234,1,-1.2100688219070435,2.024892568588257,-0.33496400713920593,360.90087890625,-160.70556640625,-88.0126953125
7.442893028259277,-1270701215,1,-1.2452250719070435,2.420888662338257,-0.25635072588920593,387.0849609375,-178.77197265625,-134.765625
7.442898273468018,-1270701196,1,-1.2747660875320435,2.390859365463257,-0.11035464704036713,347.0458984375,-194.7021484375,-233.0322265625
7.453953981399536,-1270701220,0,0.1322399377822876,2.0541012287139893,0.7388192415237427,169.677734375,-199.76806640625,-325.62255859375
7.454130172729492,-1270701201,0,0.053382523357868195,1.9869624376296997,0.6565438508987427,204.89501953125,-198.1201171875,-349.06005859375
7.45414400100708,-1270701182,0,-0.1524280309677124,1.7884761095046997,0.7234383821487427,265.2587890625,-194.3359375,-391.845703125
7.468479156494141,-1270701160,1,-0.8282328844070435,1.1330469846725464,0.5996062755584717,432.6171875,-160.2783203125,-350.03662109375
7.491307973861694,-1270701163,0,-0.4986194372177124,1.2647944688796997,0.8596688508987427,314.63623046875,-193.115234375,-424.86572265625
7.491316318511963,-1270701144,0,-0.7012561559677124,0.2845698893070221,0.8596688508987427,378.84521484375,-185.4248046875,-362.4267578125
7.498557090759277,-1270701141,1,-0.32994183897972107,-0.08545888960361481,1.7414519786834717,513.73291015625,-67.7490234375,-299.13330078125
7.5135180950164795,-1270701125,0,-1.0752795934677124,-0.3462894856929779,0.8096200227737427,444.39697265625,-165.10009765625,-234.375
7.5392680168151855,-1270701122,1,-0.5394145250320435,-0.9907323122024536,2.1020476818084717,531.79931640625,108.3984375,-152.9541015625
7.539276123046875,-1270701103,1,-1.0362406969070435,-1.2932225465774536,1.9623992443084717,506.103515625,188.3544921875,-69.76318359375
7.543715000152588,-1270701106,0,-1.7215198278427124,-0.7845219373703003,0.6738778352737427,509.09423828125,-156.06689453125,-65.4296875
7.543722152709961,-1270701087,0,-2.231285333633423,-0.8780277967453003,0.7849618196487427,533.69140625,-151.9775390625,19.83642578125
7.55851411819458,-1270701084,1,-1.4078227281570435,-1.4065037965774536,1.9609344005584717,534.11865234375,226.01318359375,-38.818359375
7.573713064193726,-1270701068,0,-2.109703302383423,-0.9546879529953003,0.7065926790237427,499.57275390625,-115.17333984375,48.15673828125
7.594559907913208,-1270701065,1,-1.3267680406570435,-1.2321873903274536,1.8981902599334717,526.06201171875,247.86376953125,-47.7294921875
7.594568252563477,-1270701046,1,-0.8797465562820435,-1.1245213747024536,1.5317351818084717,404.541015625,231.201171875,-129.8828125
7.6040191650390625,-1270701049,0,-1.8174670934677124,-1.1026371717453003,0.1833992898464203,454.2236328125,-61.58447265625,65.12451171875
7.604095220565796,-1270701030,0,-1.1863635778427124,-1.0882328748703003,-0.1828116476535797,408.14208984375,-38.63525390625,47.79052734375
7.618544101715088,-1270701027,1,-0.21421919763088226,-1.1442967653274536,1.1733367443084717,288.2080078125,210.26611328125,-203.43017578125
7.641610145568848,-1270701011,0,-0.5794299840927124,-1.2879399061203003,-0.6478995084762573,329.1015625,14.404296875,24.35302734375
7.64863920211792,-1270701008,1,0.7227925062179565,-1.2985936403274536,0.7814910411834717,115.72265625,183.65478515625,-263.5498046875
7.648743152618408,-1270700989,1,1.3602436780929565,-1.3852635622024536,-0.17676089704036713,-43.3349609375,144.95849609375,-229.30908203125
7.663516283035278,-1270700975,0,-0.007408492267131805,-1.3257817029953003,-1.1955069303512573,204.345703125,38.51318359375,-8.544921875
7.68995213508606,-1270700970,1,1.7701557874679565,-2.390634775161743,-0.5800812244415283,-106.93359375,53.1005859375,-132.4462890625
7.69438910484314,-1270700956,0,-0.050621382892131805,-1.3672856092453003,-0.9071768522262573,167.29736328125,-57.0068359375,130.126953125
7.694397211074829,-1270700937,0,-0.0982288047671318,-1.2666996717453003,-0.7746084928512573,95.39794921875,-64.5751953125,207.58056640625
7.708623170852661,-1270700951,1,1.8763569593429565,-1.8816014528274536,-0.6333038806915283,-62.68310546875,6.65283203125,29.9072265625
7.708750009536743,-1270700932,1,1.4788960218429565,-1.5158787965774536,-0.9245636463165283,39.97802734375,96.923828125,222.412109375
7.725194215774536,-1270700918,0,-0.0767444297671318,-1.1465824842453003,-0.7433584928512573,1.953125,-116.8212890625,231.62841796875
7.743767023086548,-1270700896,1,1.3111714124679565,-0.6750584840774536,-0.14136050641536713,-13.3056640625,-134.09423828125,295.22705078125
7.7536633014678955,-1270700899,0,0.1725231409072876,-0.9827641248703003,-0.4647940695285797,-132.87353515625,-151.79443359375,229.43115234375
7.75372314453125,-1270700880,0,0.3536754846572876,-0.8277348279953003,-0.2780264914035797,-226.5625,-155.029296875,236.9384765625
7.768498182296753,-1270700877,1,1.2940815687179565,-0.3354588747024536,0.26684263348579407,-90.4541015625,-190.4296875,339.66064453125
7.790948152542114,-1270700861,0,0.5072399377822876,-0.5059574842453003,0.054004766047000885,-289.36767578125,-152.89306640625,284.0576171875
7.790956020355225,-1270700842,0,0.5477672815322876,-0.2464359700679779,0.2468758523464203,-311.1572265625,-168.45703125,306.2744140625
7.798577070236206,-1270700858,1,0.9845112562179565,0.2626856565475464,0.28295591473579407,-127.3193359375,-208.06884765625,401.85546875
7.798703193664551,-1270700839,1,0.7747944593429565,0.5627344846725464,0.29516294598579407,-117.5537109375,-215.6982421875,410.21728515625
7.813436269760132,-1270700823,0,0.5939098596572876,0.024804264307022095,0.4087410867214203,-310.9130859375,-201.84326171875,325.8056640625
7.8402581214904785,-1270700820,1,0.6444233655929565,0.5090235471725464,0.21947933733463287,-107.72705078125,-238.8916015625,423.88916015625
7.840266227722168,-1270700801,1,0.9464253187179565,0.7402247190475464,0.6518523693084717,-38.75732421875,-221.49658203125,463.92822265625
7.844784259796143,-1270700804,0,0.7479625940322876,0.1974116861820221,0.6343270540237427,-293.9453125,-245.78857421875,330.56640625
7.8447911739349365,-1270700785,0,0.8260875940322876,0.2591792643070221,0.8613778352737427,-260.7421875,-264.16015625,422.18017578125
7.85861611366272,-1270700782,1,0.9996479749679565,1.1843165159225464,1.2360808849334717,2.5634765625,-105.8349609375,583.06884765625
7.873537063598633,-1270700766,0,0.8009411096572876,0.4764644205570221,1.2590829133987427,-196.4111328125,-229.736328125,539.6728515625
7.8942341804504395,-1270700763,1,0.7288960218429565,1.7265528440475464,1.3522918224334717,11.41357421875,5.2490234375,669.5556640625
7.894243001937866,-1270700744,1,0.27674761414527893,2.276845693588257,1.1516082286834717,3.90625,110.29052734375,704.65087890625
7.903608083724976,-1270700747,0,0.7069469690322876,0.7760249376296997,1.5012704133987427,-145.01953125,-194.2138671875,610.90087890625
7.918390989303589,-1270700725,1,0.15785111486911774,2.541494131088257,1.1520965099334717,-17.9443359375,146.78955078125,683.837890625
7.94132924079895,-1270700711,0,0.9256969690322876,1.0951167345046997,1.8152352571487427,-106.201171875,-129.21142578125,664.12353515625
7.9413371086120605,-1270700692,0,1.5011364221572876,1.2425776720046997,1.7473641633987427,-59.5703125,-52.06298828125,711.0595703125
7.948669195175171,-1270700706,1,0.6056050062179565,2.973134756088257,1.3261687755584717,-44.7998046875,223.9990234375,648.5595703125
7.963517189025879,-1270700673,0,2.044105291366577,1.4344722032546997,1.7080575227737427,1.28173828125,54.13818359375,740.478515625
7.990744113922119,-1270700687,1,0.6617573499679565,3.440664052963257,1.1357390880584717,-93.505859375,327.63671875,638.24462890625
7.990751266479492,-1270700668,1,0.8553608655929565,3.979238271713257,0.6086394786834717,-165.1611328125,417.1142578125,562.92724609375
7.996256113052368,-1270700654,0,2.406654119491577,1.7115718126296997,1.3286629915237427,10.498046875,183.4716796875,698.1201171875
7.996262073516846,-1270700635,0,2.464515447616577,1.6957026720046997,1.0427743196487427,-32.2265625,260.8642578125,599.91455078125
8.008572101593018,-1270700632,1,0.7352436780929565,3.963857412338257,-0.5175812244415283,-338.80615234375,341.00341796875,350.2197265625
8.026823282241821,-1270700616,0,2.766517400741577,1.3475581407546997,0.6797372102737427,-116.76025390625,309.63134765625,440.36865234375
8.043537139892578,-1270700613,1,1.2550190687179565,3.667470693588257,-0.7189972400665283,-413.6962890625,233.642578125,215.33203125
8.044644117355347,-1270700594,1,1.5592182874679565,2.872304677963257,-1.1491730213165283,-447.57080078125,138.671875,155.94482421875
8.053593158721924,-1270700597,0,2.975501775741577,0.9127436876296997,0.12260828167200089,-115.72265625,287.2314453125,373.84033203125
8.05370807647705,-1270700578,0,2.766029119491577,0.6393061876296997,0.058155156672000885,-65.85693359375,184.2041015625,336.7919921875
8.070707321166992,-1270700575,1,1.7530659437179565,2.271230459213257,-1.5495636463165283,-347.2900390625,-33.447265625,166.3818359375
8.097834348678589,-1270700556,1,1.7391499280929565,1.8832911252975464,-1.8291046619415283,-236.38916015625,-116.2109375,195.3125
8.098565101623535,-1270700537,1,1.8387593030929565,1.2148340940475464,-1.9953644275665283,-13.85498046875,-184.75341796875,258.60595703125
8.11356520652771,-1270700559,0,2.598060369491577,0.3849116861820221,-0.3922843039035797,-41.80908203125,42.29736328125,342.71240234375
8.113659143447876,-1270700540,0,2.209876775741577,0.2145015299320221,-0.4347647726535797,11.77978515625,-143.310546875,371.15478515625
8.114426136016846,-1270700521,0,1.5873180627822876,0.1498042643070221,-0.3307608664035797,-2.25830078125,-293.8232421875,427.06298828125
8.139173030853271,-1270700518,1,2.037734031677246,0.8662012815475464,-1.5593292713165283,261.23046875,-73.42529296875,451.0498046875
8.139179944992065,-1270700499,1,1.5074604749679565,1.2861231565475464,-0.48926088213920593,350.52490234375,-48.15673828125,616.943359375
8.143738031387329,-1270700502,0,1.1915661096572876,0.1241694986820221,-0.2379874289035797,-44.7998046875,-407.04345703125,517.76123046875
8.14384412765503,-1270700483,0,0.8483043909072876,0.4652339518070221,0.1250496804714203,-87.95166015625,-411.19384765625,564.63623046875
8.158594131469727,-1270700480,1,0.7926167249679565,1.6489161252975464,0.28124693036079407,341.61376953125,-8.97216796875,706.1767578125
8.1932852268219,-1270700461,1,-0.08677779138088226,2.463124990463257,0.8041961193084717,342.83447265625,111.14501953125,742.12646484375
8.193294048309326,-1270700442,1,-0.9036723375320435,2.834462881088257,0.47924497723579407,362.60986328125,267.02880859375,590.087890625
8.203633069992065,-1270700447,0,0.6405407190322876,0.9278804063796997,1.0884286165237427,-39.36767578125,-170.41015625,399.84130859375
8.20374321937561,-1270700428,0,0.7567516565322876,0.7000972032546997,1.0513192415237427,18.61572265625,-69.580078125,294.12841796875
8.21845817565918,-1270700423,1,-0.47178754210472107,2.471181631088257,0.5695769786834717,236.9384765625,282.40966796875,223.14453125
8.24080204963684,-1270700409,0,0.8951793909072876,0.6395503282546997,1.2429696321487427,79.7119140625,-95.8251953125,269.8974609375
8.24081015586853,-1270700390,0,0.8954235315322876,0.4874507486820221,1.6672860383987427,101.806640625,-92.6513671875,263.916015625
8.248509168624878,-1270700404,1,-0.27183637022972107,2.040029287338257,0.9101531505584717,85.02197265625,263.73291015625,89.90478515625
8.263482093811035,-1270700371,0,0.7298961877822876,0.3482905924320221,1.7500497102737427,175.29296875,-77.0263671875,316.2841796875
8.278382062911987,-1270700368,1,0.025771040469408035,1.4233301877975464,0.8498504161834717,102.1728515625,313.65966796875,247.25341796875
8.297532081604004,-1270700352,0,0.5692516565322876,0.3568355143070221,1.5417977571487427,207.45849609375,-80.078125,328.2470703125
8.29754114151001,-1270700333,0,0.3548961877822876,0.2640620768070221,1.3525887727737427,231.01806640625,-87.70751953125,291.50390625
8.309215307235718,-1270700349,1,-0.26500043272972107,1.4538477659225464,0.6823699474334717,117.67578125,283.3251953125,250.8544921875
8.3093421459198,-1270700330,1,-0.31334027647972107,1.1398829221725464,0.6157195568084717,143.6767578125,273.3154296875,220.88623046875
8.323775291442871,-1270700314,0,0.2547985315322876,0.1461421549320221,1.2219735383987427,255.4931640625,-104.6142578125,264.70947265625
8.343713998794556,-1270700311,1,-0.13926802575588226,0.7892969846725464,0.6933562755584717,163.57421875,254.45556640625,182.43408203125
8.343721151351929,-1270700292,1,0.024062056094408035,0.5607813596725464,0.8500945568084717,186.34033203125,267.02880859375,182.06787109375
8.353662252426147,-1270700295,0,0.2535778284072876,-0.025732845067977905,1.1733895540237427,267.39501953125,-120.361328125,244.9951171875
8.353780269622803,-1270700276,0,0.2005993127822876,0.006493717432022095,1.2676278352737427,291.68701171875,-147.15576171875,272.39990234375
8.368412256240845,-1270700273,1,-0.029648881405591965,0.5698145627975464,0.8222625255584717,204.52880859375,300.1708984375,232.2998046875
8.397875308990479,-1270700254,1,-0.11973677575588226,0.6984766721725464,0.6791961193084717,192.626953125,264.7705078125,279.052734375
8.39878225326538,-1270700235,1,-0.19932661950588226,0.8386133909225464,0.5854461193084717,224.30419921875,223.6328125,315.85693359375
8.416775226593018,-1270700257,0,0.1305309534072876,0.1136714518070221,1.3333016633987427,273.74267578125,-177.06298828125,287.9638671875
8.416787147521973,-1270700238,0,0.1402965784072876,0.0697261393070221,1.3574715852737427,263.24462890625,-219.1162109375,300.10986328125
8.416796207427979,-1270700219,0,0.1559215784072876,0.006981998682022095,1.4224129915237427,262.63427734375,-257.75146484375,274.84130859375
8.439602136611938,-1270700216,1,-0.24156294763088226,0.8898829221725464,0.7368133068084717,265.7470703125,193.66455078125,323.73046875
8.444175243377686,-1270700183,0,0.1088024452328682,-0.3204105794429779,1.3523446321487427,220.03173828125,-268.37158203125,221.25244140625
8.460143089294434,-1270700197,1,-0.26329144835472107,0.7753809690475464,1.0793426036834717,280.82275390625,163.63525390625,304.3212890625
8.46015214920044,-1270700178,1,-0.043320756405591965,0.7245997190475464,1.2292449474334717,236.38916015625,126.15966796875,274.4140625
8.473586082458496,-1270700164,0,0.1625133752822876,-0.5823734998703003,1.3738290071487427,185.302734375,-281.982421875,207.1533203125
8.493848085403442,-1270700159,1,0.29701128602027893,0.4218653440475464,1.2893035411834717,191.40625,66.46728515625,259.27734375
8.493855237960815,-1270700140,1,0.37513628602027893,0.6044825315475464,1.0812957286834717,190.673828125,20.1416015625,300.72021484375
8.503689289093018,-1270700145,0,0.2530895471572876,-0.6248539686203003,1.3601571321487427,149.84130859375,-314.39208984375,206.0546875
8.503818273544312,-1270700126,0,0.3470836877822876,-0.7103031873703003,1.4260751008987427,127.99072265625,-340.39306640625,190.5517578125
8.540162086486816,-1270700107,0,0.5155407190322876,-0.8516606092453003,1.6323739290237427,102.35595703125,-371.337890625,149.10888671875
8.54862928390503,-1270700104,1,0.5267475843429565,0.9118555784225464,1.4716765880584717,256.89697265625,-40.0390625,301.20849609375
8.548763275146484,-1270700085,1,0.9154194593429565,1.1860255002975464,1.8989226818084717,276.123046875,-37.17041015625,254.2724609375
8.563579082489014,-1270700088,0,0.7975231409072876,-1.0118168592453003,2.014453887939453,59.50927734375,-382.26318359375,121.09375
8.563736200332642,-1270700069,0,0.8314586877822876,-1.1392582654953003,2.245899200439453,29.1748046875,-365.78369140625,83.80126953125
8.58988618850708,-1270700066,1,-0.037949662655591965,1.2231348752975464,2.6809051036834717,323.66943359375,137.20703125,265.13671875
8.595763206481934,-1270700050,0,0.9142223596572876,-1.2256840467453003,2.331836700439453,13.00048828125,-360.29052734375,44.5556640625
8.595770120620728,-1270700031,0,0.8951793909072876,-1.5379399061203003,1.9485360383987427,-54.931640625,-356.50634765625,9.94873046875
8.608597993850708,-1270700047,1,0.42127886414527893,1.7109278440475464,2.4401824474334717,317.7490234375,18.85986328125,292.41943359375
8.60870909690857,-1270700028,1,1.1444233655929565,1.4150294065475464,2.6828582286834717,178.77197265625,-67.87109375,188.90380859375
8.623802185058594,-1270700012,0,0.7943493127822876,-1.9629887342453003,1.5334969758987427,-124.69482421875,-381.53076171875,-24.0478515625
8.646152257919312,-1270700009,1,0.15296830236911774,1.1315821409225464,2.2187469005584717,109.31396484375,-170.7763671875,211.12060546875
8.646160125732422,-1270699990,1,0.8858784437179565,0.5512598752975464,2.5830047130584717,14.16015625,-355.04150390625,228.08837890625
8.653606176376343,-1270699993,0,0.6190563440322876,-1.8948734998703003,1.5598641633987427,-165.0390625,-368.1640625,-44.25048828125
8.653686046600342,-1270699974,0,0.5350719690322876,-1.8721684217453003,1.6794930696487427,-230.65185546875,-366.02783203125,-45.34912109375
8.668659210205078,-1270699971,1,0.9400776624679565,0.3232325315475464,2.7556121349334717,3.0517578125,-422.7294921875,279.052734375
8.691176176071167,-1270699955,0,0.3900524377822876,-1.8260258436203003,1.8169442415237427,-264.22119140625,-353.271484375,-33.63037109375
8.698739290237427,-1270699952,1,0.40833941102027893,0.5690821409225464,2.6643035411834717,17.15087890625,-399.0478515625,355.46875
8.698806047439575,-1270699933,1,0.31605425477027893,0.3354395627975464,2.7214324474334717,0.79345703125,-435.6689453125,380.0048828125
8.713350057601929,-1270699919,0,0.036292679607868195,-1.2269047498703003,1.8623543977737427,-321.77734375,-236.63330078125,-73.66943359375
8.739509105682373,-1270699914,1,-0.6277934312820435,1.5041407346725464,2.1948211193084717,9.8876953125,-334.716796875,371.64306640625
8.744012117385864,-1270699900,0,0.1009899452328682,-0.9268559217453003,1.6943856477737427,-335.02197265625,-83.740234375,-194.64111328125
8.744019269943237,-1270699881,0,0.1131969764828682,-0.6294926404953003,1.4021493196487427,-326.84326171875,-48.828125,-252.685546875
8.75885009765625,-1270699895,1,-0.8582621812820435,1.6310938596725464,1.7763640880584717,-8.48388671875,-338.43994140625,151.9775390625
8.758991241455078,-1270699876,1,-0.42613324522972107,1.3664454221725464,1.4165008068084717,-201.66015625,-410.2783203125,-79.04052734375
8.773525953292847,-1270699862,0,0.1327282190322876,-0.5372074842453003,1.3496590852737427,-314.02587890625,-30.57861328125,-290.0390625
8.793430089950562,-1270699840,1,-0.18003951013088226,0.7028712034225464,0.20776058733463287,-151.0009765625,-414.0625,-155.57861328125
8.806335926055908,-1270699843,0,-0.035240523517131805,-0.3118656575679779,1.0291024446487427,-280.57861328125,-33.935546875,-307.4951171875
8.80634617805481,-1270699824,0,0.0633922889828682,-0.1060551106929779,1.2114754915237427,-248.4130859375,-38.63525390625,-364.013671875
8.818485021591187,-1270699821,1,-0.22960005700588226,0.8691309690475464,0.28710630536079407,-60.36376953125,-422.05810546875,-143.98193359375
8.840960025787354,-1270699805,0,0.2250133752822876,0.1166011393070221,1.2808114290237427,-242.24853515625,9.09423828125,-418.3349609375
8.848681211471558,-1270699802,1,-0.38194379210472107,1.3093165159225464,0.6457488536834717,-20.81298828125,-442.3828125,-144.47021484375
8.84877896308899,-1270699783,1,-0.36949262022972107,1.3871973752975464,0.6513640880584717,-85.693359375,-430.17578125,-229.00390625
8.863518238067627,-1270699786,0,0.3334118127822876,0.1874019205570221,1.1921883821487427,-246.27685546875,81.11572265625,-447.44873046875
8.863616943359375,-1270699767,0,0.2772594690322876,0.1109859049320221,1.1399422883987427,-211.24267578125,113.46435546875,-426.26953125
8.888496160507202,-1270699764,1,-0.33433637022972107,1.1371973752975464,0.30810239911079407,-113.09814453125,-367.3095703125,-283.447265625
8.89591908454895,-1270699748,0,0.1962047815322876,0.3036128580570221,1.1187020540237427,-149.35302734375,142.39501953125,-394.4091796875
8.908746242523193,-1270699745,1,-0.38951215147972107,1.2673243284225464,-0.001223783940076828,-62.92724609375,-306.5185546875,-285.21728515625
