sync_time,timestamp_ms,device_id,ax,ay,az,gx,gy,gz
0.018043994903564453,1582675876,1,0.2598779499530792,0.290427565574646,0.9464223980903625,-14.34326171875,-21.54541015625,-5.126953125
0.02293086051940918,1582676288,0,0.7871376872062683,0.19936317205429077,-0.20735444128513336,-109.80224609375,55.60302734375,69.03076171875
0.022934913635253906,1582676307,0,0.7991005778312683,0.19863075017929077,-0.23494233191013336,-110.41259765625,53.52783203125,69.580078125
0.037333011627197266,1582675895,1,0.2506006062030792,0.284324049949646,0.9403188824653625,-12.51220703125,-21.6064453125,-6.77490234375
0.06096506118774414,1582676326,0,0.8279091715812683,0.17934364080429077,-0.23958100378513336,-111.51123046875,52.734375,71.47216796875
0.08236289024353027,1582676362,0,0.8630654215812683,0.13832801580429077,-0.22761811316013336,-118.59130859375,39.6728515625,75.13427734375
0.11423587799072266,1582676381,0,0.8674599528312683,0.12953895330429077,-0.22932709753513336,-126.953125,29.35791015625,79.9560546875
0.14192581176757812,1582676400,0,0.8528115153312683,0.11708778887987137,-0.22175873816013336,-135.68115234375,26.611328125,82.82470703125
0.14366579055786133,1582676419,0,0.8447548747062683,0.13100379705429077,-0.23469819128513336,-142.27294921875,18.9208984375,89.17236328125
0.17235398292541504,1582676438,0,0.8398720622062683,0.11220497637987137,-0.25545012950897217,-146.30126953125,9.58251953125,91.30859375
0.17362189292907715,1582676457,0,0.8515908122062683,0.09365028887987137,-0.25837981700897217,-145.01953125,14.22119140625,91.796875
0.18820405006408691,1582675914,1,0.2569482624530792,0.287742018699646,0.9266470074653625,-12.8173828125,-21.91162109375,-7.2021484375
0.188323974609375,1582675933,1,0.2518213093280792,0.294822096824646,0.9366567730903625,-13.97705078125,-20.69091796875,-5.06591796875
0.18833589553833008,1582675952,1,0.2557275593280792,0.300925612449646,0.9378774762153625,-14.70947265625,-20.20263671875,-2.685546875
0.189971923828125,1582675971,1,0.2664697468280792,0.290671706199646,0.9439809918403625,-13.916015625,-19.1650390625,-2.01416015625
0.21378207206726074,1582676476,0,0.8877236247062683,0.06069130450487137,-0.24714936316013336,-148.74267578125,20.6298828125,92.71240234375
0.21890902519226074,1582676007,1,0.2620752155780792,0.290915846824646,0.9498403668403625,-14.16015625,-20.1416015625,-5.67626953125
0.21894192695617676,1582676026,1,0.2615869343280792,0.296042799949646,0.9569204449653625,-12.939453125,-21.05712890625,-8.23974609375
0.2203049659729004,1582676045,1,0.2581689655780792,0.300437331199646,0.9437368512153625,-12.51220703125,-20.6298828125,-7.32421875
0.22032785415649414,1582676064,1,0.2637841999530792,0.304831862449646,0.9515493512153625,-11.53564453125,-21.8505859375,-6.89697265625
0.2321488857269287,1582676495,0,0.8596474528312683,0.06972450762987137,-0.20125092566013336,-160.94970703125,19.53125,96.00830078125
0.2321920394897461,1582676514,0,0.8738076090812683,0.09389442950487137,-0.25862395763397217,-172.91259765625,2.25830078125,100.40283203125
0.26599693298339844,1582676533,0,0.8752724528312683,0.09218544512987137,-0.31209075450897217,-174.1943359375,-12.63427734375,101.4404296875
0.2772660255432129,1582676083,1,0.2532861530780792,0.275046706199646,0.9400747418403625,-11.71875,-20.99609375,-7.9345703125
0.2773270606994629,1582676102,1,0.2708642780780792,0.272117018699646,0.9351919293403625,-11.1083984375,-22.64404296875,-7.2021484375
0.29227185249328613,1582676552,0,0.8762490153312683,0.06899208575487137,-0.32893645763397217,-168.15185546875,-22.0947265625,101.9287109375
0.2923109531402588,1582676571,0,0.8970009684562683,0.03749794512987137,-0.29255950450897217,-163.39111328125,-17.822265625,110.595703125
0.3165860176086426,1582676121,1,0.2610986530780792,0.264548659324646,0.9293325543403625,-10.80322265625,-23.3154296875,-6.89697265625
0.3165910243988037,1582676140,1,0.2698877155780792,0.265769362449646,0.9408071637153625,-11.53564453125,-23.86474609375,-8.60595703125
0.31659388542175293,1582676159,1,0.2579248249530792,0.268699049949646,0.9371450543403625,-11.16943359375,-24.90234375,-10.986328125
0.31659793853759766,1582676178,1,0.2718408405780792,0.267478346824646,0.9430044293403625,-12.3291015625,-27.83203125,-14.09912109375
0.3389739990234375,1582676197,1,0.2828271687030792,0.261130690574646,0.9327505230903625,-13.61083984375,-27.52685546875,-17.578125
0.33897900581359863,1582676216,1,0.2911279499530792,0.251365065574646,0.9217641949653625,-15.31982421875,-28.3203125,-20.56884765625
0.33898186683654785,1582676235,1,0.2964990437030792,0.270896315574646,0.9205434918403625,-16.2353515625,-27.2216796875,-26.123046875
0.3389890193939209,1582676271,1,0.3143213093280792,0.277243971824646,0.9085806012153625,-15.7470703125,-30.1513671875,-33.50830078125
0.36111998558044434,1582676590,0,0.8174111247062683,0.06044716387987137,-0.18684662878513336,-175.9033203125,17.4560546875,116.88232421875
0.3611268997192383,1582676626,0,0.8176552653312683,0.18447059392929077,-0.22346772253513336,-203.0029296875,11.16943359375,127.01416015625
0.36724305152893066,1582676290,1,0.3358056843280792,0.274558424949646,0.9220083355903625,-14.22119140625,-32.04345703125,-37.59765625
0.3672640323638916,1582676309,1,0.3453271687030792,0.272117018699646,0.9373891949653625,-14.70947265625,-34.0576171875,-37.353515625
0.3688488006591797,1582676328,1,0.3651025593280792,0.264792799949646,0.9578970074653625,-15.80810546875,-34.66796875,-38.02490234375
0.36889004707336426,1582676347,1,0.3641259968280792,0.2379373461008072,0.9803579449653625,-14.34326171875,-41.3818359375,-43.76220703125
0.3824901580810547,1582676645,0,0.7942177653312683,0.17299598455429077,-0.31892669200897217,-212.21923828125,4.08935546875,114.19677734375
0.382523775100708,1582676664,0,0.8274208903312683,0.13368934392929077,-0.41951262950897217,-205.38330078125,5.615234375,89.66064453125
0.3971672058105469,1582676366,1,0.3756006062030792,0.2315896898508072,0.9713247418403625,-13.5498046875,-53.64990234375,-52.42919921875
0.39719700813293457,1582676385,1,0.3843896687030792,0.2245096117258072,0.9544790387153625,-14.6484375,-60.05859375,-60.97412109375
0.39884400367736816,1582676404,1,0.3834131062030792,0.2386697679758072,0.9625356793403625,-17.2119140625,-61.58447265625,-73.42529296875
0.399799108505249,1582676423,1,0.4041650593280792,0.2350076586008072,0.9500845074653625,-18.9208984375,-66.40625,-79.89501953125
0.4183468818664551,1582676683,0,0.6894814372062683,0.07826942950487137,-0.32600677013397217,-204.77294921875,65.91796875,74.64599609375
0.42766785621643066,1582676442,1,0.4361474812030792,0.2171853929758072,0.9390981793403625,-17.15087890625,-68.29833984375,-82.94677734375
0.42769789695739746,1582676461,1,0.4542138874530792,0.2120584398508072,0.9239614605903625,-18.6767578125,-66.10107421875,-85.63232421875
0.4277660846710205,1582676480,1,0.4605615437030792,0.1874002367258072,0.9393423199653625,-21.54541015625,-61.4013671875,-94.23828125
0.4286069869995117,1582676499,1,0.4200341999530792,0.1734842211008072,0.9815786480903625,-25.57373046875,-66.22314453125,-105.65185546875
0.4424319267272949,1582676702,0,0.6799599528312683,0.5477518439292908,-0.005694285035133362,-150.2685546875,45.8984375,93.07861328125
0.4424581527709961,1582676721,0,0.9570595622062683,0.5084452033042908,0.004559621214866638,-149.658203125,75.8056640625,111.4501953125
0.4653739929199219,1582676535,1,0.4293115437030792,0.1786111742258072,0.9723013043403625,-13.85498046875,-86.9140625,-120.2392578125
0.4654049873352051,1582676554,1,0.4656884968280792,0.2235330492258072,0.9422720074653625,-14.46533203125,-97.2900390625,-111.38916015625
0.4654080867767334,1582676573,1,0.4857080280780792,0.2359842211008072,0.8978384137153625,-27.587890625,-90.576171875,-110.595703125
0.4654109477996826,1582676592,1,0.5211083889007568,0.1876443773508072,0.9354360699653625,-30.6396484375,-76.23291015625,-122.13134765625
0.4740009307861328,1582676740,0,0.3371865153312683,1.4439921379089355,0.38371002674102783,-194.51904296875,-3.5400390625,95.27587890625
0.48826074600219727,1582676611,1,0.4649560749530792,0.2318338304758072,0.9618032574653625,-44.12841796875,-70.068359375,-136.23046875
0.4883739948272705,1582676630,1,0.3912256062030792,0.2079080492258072,0.9461782574653625,-37.2314453125,-71.96044921875,-149.2919921875
0.488400936126709,1582676649,1,0.3914697468280792,0.2359842211008072,0.9105337262153625,-15.80810546875,-70.9228515625,-141.9677734375
0.4899787902832031,1582676668,1,0.4080713093280792,0.307517409324646,0.8480337262153625,-11.3525390625,-66.0400390625,-114.6240234375
0.5129668712615967,1582676759,0,0.6701943278312683,-1.0528340339660645,-1.1397274732589722,-247.86376953125,-12.02392578125,203.4912109375
0.5129721164703369,1582676778,0,0.8005654215812683,0.09291786700487137,-0.5584286451339722,-263.48876953125,55.96923828125,92.59033203125
0.5180809497833252,1582676687,1,0.4805810749530792,0.433982253074646,1.0572623014450073,-33.0810546875,-52.734375,-108.70361328125
0.5181560516357422,1582676706,1,0.4700830280780792,0.573142409324646,0.7396352887153625,-65.0634765625,-21.42333984375,-66.83349609375
0.518212080001831,1582676725,1,-1.7113134860992432,1.362449049949646,0.9159048199653625,-55.17578125,-5.2490234375,-64.8193359375
0.5200269222259521,1582676744,1,1.4957177639007568,0.435691237449646,0.8949087262153625,-122.86376953125,2.01416015625,-157.77587890625
0.5321657657623291,1582676797,0,0.4770790934562683,-0.24546104669570923,-0.29963958263397217,-217.83447265625,57.0068359375,74.8291015625
0.5322339534759521,1582676816,0,0.7170693278312683,0.22133582830429077,-0.20711030066013336,-226.318359375,235.29052734375,-16.29638671875
0.5499379634857178,1582676763,1,-0.008676737546920776,0.08901156485080719,0.8280141949653625,-74.70703125,38.818359375,-84.16748046875
0.5604548454284668,1582676799,1,0.6126611232757568,0.1705545336008072,1.1832388639450073,6.40869140625,10.31494140625,-61.82861328125
0.560460090637207,1582676818,1,0.5062158107757568,0.07582797110080719,1.1898306608200073,-45.95947265625,-19.775390625,-71.96044921875
0.5661108493804932,1582676835,0,1.395780324935913,0.32021278142929077,0.005536183714866638,-220.15380859375,234.7412109375,103.33251953125
0.5788190364837646,1582676837,1,0.4356591999530792,0.00478304922580719,1.2135123014450073,-51.33056640625,-26.123046875,-125.0
0.5788509845733643,1582676856,1,0.11705568432807922,0.1932596117258072,0.9886587262153625,-64.02587890625,-59.50927734375,-151.67236328125
0.5936219692230225,1582676854,0,1.063993215560913,0.36196082830429077,0.16764555871486664,-210.0830078125,154.541015625,166.80908203125
0.6152389049530029,1582676875,1,0.08507326245307922,0.549460768699646,0.9278677105903625,-71.10595703125,-46.08154296875,-149.35302734375
0.6238751411437988,1582676890,0,0.7583290934562683,0.42787879705429077,-0.029131785035133362,-184.814453125,143.310546875,170.7763671875
0.6387948989868164,1582676894,1,0.12047365307807922,0.543845534324646,0.8773306012153625,-84.53369140625,-39.12353515625,-96.0693359375
0.6388468742370605,1582676913,1,0.030385762453079224,0.421531081199646,0.8514516949653625,-91.36962890625,-26.79443359375,-52.06298828125
0.6625411510467529,1582676909,0,0.8147255778312683,0.41274207830429077,0.04850493371486664,-171.2646484375,140.56396484375,139.95361328125
0.662545919418335,1582676928,0,0.8574501872062683,0.41225379705429077,0.12711821496486664,-162.2314453125,144.10400390625,101.806640625
0.6697831153869629,1582676932,1,-0.10022947192192078,0.320945143699646,0.8321645855903625,-86.24267578125,-14.95361328125,-31.31103515625
0.6839978694915771,1582676947,0,0.8486611247062683,0.37343543767929077,0.18766508996486664,-169.43359375,124.51171875,52.30712890625
0.6840269565582275,1582676966,0,0.6704384684562683,0.23769325017929077,0.19205962121486664,-178.22265625,93.1396484375,41.19873046875
0.6987869739532471,1582676951,1,0.0037744343280792236,0.287253737449646,0.9112661480903625,-75.01220703125,-19.59228515625,-34.3017578125
0.6988129615783691,1582676970,1,0.033071309328079224,0.352439284324646,0.9588735699653625,-65.4296875,-35.21728515625,-40.10009765625
0.7178239822387695,1582676985,0,0.4939247965812683,0.19325965642929077,0.018475636839866638,-149.169921875,57.9833984375,42.48046875
0.7287271022796631,1582676989,1,-0.009897440671920776,0.259909987449646,0.9078481793403625,-48.7060546875,-37.90283203125,-44.86083984375
0.7287847995758057,1582677008,1,-0.10340330004692078,0.284324049949646,0.9388540387153625,-33.63037109375,-31.55517578125,-55.0537109375
0.7438211441040039,1582677004,0,0.4245888590812683,0.17104285955429077,-0.010088816285133362,-139.404296875,31.005859375,50.23193359375
0.7438509464263916,1582677023,0,0.7785927653312683,0.14882606267929077,-0.13020600378513336,-136.53564453125,-20.20263671875,48.7060546875
0.7651059627532959,1582677027,1,-0.060678690671920776,0.302390456199646,0.8746450543403625,-43.0908203125,-36.68212890625,-62.80517578125
0.7736949920654297,1582677042,0,0.9272744059562683,0.03627724200487137,-0.13289155066013336,-107.72705078125,21.42333984375,29.4189453125
0.7890801429748535,1582677063,1,0.10167482495307922,0.270896315574646,0.7008169293403625,-28.9306640625,-33.69140625,-61.21826171875
0.8146989345550537,1582677061,0,0.8303505778312683,0.5396952033042908,-0.26692473888397217,-107.36083984375,64.14794921875,33.38623046875
0.8147048950195312,1582677080,0,0.7243935465812683,0.5218729376792908,-0.04573334753513336,-193.84765625,92.041015625,75.439453125
0.8189518451690674,1582677082,1,0.0018213093280792236,0.352195143699646,0.6563833355903625,2.50244140625,7.38525390625,-61.767578125
0.8337500095367432,1582677099,0,0.6494423747062683,0.37831825017929077,0.13639555871486664,-243.10302734375,111.14501953125,109.43603515625
0.8338079452514648,1582677118,0,0.6199013590812683,0.17958778142929077,0.31095612049102783,-239.31884765625,100.52490234375,110.4736328125
0.8488609790802002,1582677101,1,-0.012338846921920776,0.390769362449646,0.7862661480903625,42.96875,40.52734375,-53.466796875
0.8488907814025879,1582677120,1,0.11388185620307922,0.365134596824646,0.9510610699653625,26.79443359375,24.0478515625,-64.02587890625
0.876845121383667,1582677139,1,0.21324709057807922,0.340964674949646,0.9732778668403625,-26.91650390625,-16.05224609375,-60.05859375
0.878525972366333,1582677158,1,0.2715966999530792,0.304099440574646,0.9027212262153625,-63.1103515625,-30.94482421875,-51.57470703125
0.8937869071960449,1582677154,0,0.9914833903312683,0.20326942205429077,0.42570221424102783,-171.69189453125,1.220703125,107.23876953125
0.8938779830932617,1582677173,0,0.9712197184562683,0.35610145330429077,0.25822174549102783,-124.93896484375,56.2744140625,91.97998046875
0.9163010120391846,1582677177,1,0.2930810749530792,0.2398904711008072,0.8861196637153625,-65.36865234375,-17.2119140625,-45.47119140625
0.9237680435180664,1582677192,0,0.8340126872062683,0.35707801580429077,0.24406157433986664,-112.060546875,111.75537109375,116.51611328125
0.9372639656066895,1582677196,1,0.2945459187030792,0.1859353929758072,0.8182485699653625,-44.7998046875,-0.30517578125,-34.66796875
0.9373328685760498,1582677215,1,0.2881982624530792,0.1900857836008072,0.7747915387153625,-16.845703125,15.7470703125,-32.53173828125
0.9635179042816162,1582677211,0,0.8542763590812683,0.40224403142929077,0.22575102746486664,-140.19775390625,130.31005859375,140.2587890625
0.9635231494903564,1582677230,0,0.9895302653312683,-0.05503135174512863,0.25504791736602783,-179.87060546875,200.25634765625,141.6015625
0.9703760147094727,1582677234,1,0.2735498249530792,0.2127908617258072,0.7623403668403625,13.12255859375,28.01513671875,-25.634765625
0.9839920997619629,1582677249,0,1.036405324935913,0.04213661700487137,0.43375885486602783,-195.1904296875,219.05517578125,180.419921875
0.9840550422668457,1582677268,0,0.7639443278312683,0.7108377814292908,0.29630768299102783,-196.1669921875,206.9091796875,176.20849609375
0.9988729953765869,1582677253,1,0.19835451245307922,0.300925612449646,0.8482778668403625,33.935546875,14.0380859375,3.84521484375
0.998906135559082,1582677272,1,0.16930177807807922,0.2391580492258072,0.9254263043403625,34.423828125,-0.8544921875,12.51220703125
1.0183119773864746,1582677287,0,0.6316201090812683,-0.08652549237012863,0.40177643299102783,-181.0302734375,184.75341796875,116.02783203125
1.0287060737609863,1582677291,1,0.3111474812030792,0.2491678148508072,0.9454458355903625,23.62060546875,-15.80810546875,9.27734375
1.0424680709838867,1582677306,0,0.5730263590812683,-0.07138877362012863,0.45475494861602783,-161.43798828125,122.98583984375,50.6591796875
1.0424909591674805,1582677325,0,0.5801064372062683,-0.12851768732070923,0.48356354236602783,-143.24951171875,66.83349609375,3.5400390625
1.065134048461914,1582677327,1,0.3653466999530792,0.273093581199646,0.9686391949653625,8.72802734375,-25.2685546875,23.681640625
1.073875904083252,1582677344,0,0.5578896403312683,-0.010597757995128632,0.44889557361602783,-136.5966796875,39.794921875,-36.62109375
1.0887198448181152,1582677346,1,0.3582666218280792,0.256003737449646,0.9940298199653625,2.9296875,-23.4375,25.0244140625
1.0887830257415771,1582677365,1,0.3155420124530792,0.2086404711008072,0.9718130230903625,14.7705078125,-20.69091796875,9.09423828125
1.1129868030548096,1582677363,0,0.7300087809562683,0.08925575762987137,0.35636627674102783,-132.4462890625,-4.5166015625,-31.55517578125
1.1129920482635498,1582677382,0,0.9621865153312683,0.13173621892929077,0.18742094933986664,-130.9814453125,-12.20703125,-11.04736328125
1.1189498901367188,1582677384,1,0.2943017780780792,0.305564284324646,0.9989126324653625,23.13232421875,-31.55517578125,-0.18310546875
1.1337058544158936,1582677418,0,1.162381887435913,-0.13413292169570923,0.20206938683986664,-143.98193359375,103.515625,63.4765625
1.1472859382629395,1582677403,1,0.2745263874530792,0.359031081199646,0.9705923199653625,17.76123046875,-33.5693359375,-4.150390625
1.1473150253295898,1582677422,1,0.24107912182807922,0.393699049949646,0.9920766949653625,4.82177734375,-34.97314453125,-8.60595703125
1.1670169830322266,1582677437,0,1.229764699935913,-0.02085166424512863,0.21378813683986664,-119.873046875,231.93359375,141.17431640625
1.1916999816894531,1582677456,0,1.075711965560913,0.41078895330429077,0.40690338611602783,-78.30810546875,299.62158203125,220.39794921875
1.1931719779968262,1582677475,0,1.004911184310913,0.38808387517929077,0.5384951829910278,-54.13818359375,272.4609375,235.107421875
1.2131860256195068,1582677441,1,0.2960107624530792,0.406150221824646,1.0045279264450073,-7.38525390625,-41.6259765625,-4.150390625
1.2131907939910889,1582677460,1,0.23839357495307922,0.364158034324646,0.9976919293403625,-11.962890625,-34.66796875,-17.51708984375
1.2131938934326172,1582677479,1,0.14659669995307922,0.356589674949646,1.0311392545700073,-6.591796875,-19.04296875,-29.60205078125
1.2238099575042725,1582677494,0,0.7178017497062683,0.10756630450487137,0.6883975267410278,-102.5390625,235.53466796875,168.45703125
1.2389178276062012,1582677498,1,0.20299318432807922,0.382712721824646,1.0770376920700073,-7.080078125,-27.4658203125,-43.8232421875
1.2389349937438965,1582677517,1,0.18419435620307922,0.422019362449646,1.0050162076950073,-8.6669921875,-33.5693359375,-38.0859375
1.2630078792572021,1582677513,0,0.8159462809562683,0.08827919512987137,0.45329010486602783,-132.6904296875,201.96533203125,105.52978515625
1.2630131244659424,1582677532,0,0.6611611247062683,-0.0025411173701286316,0.5282412767410278,-198.1201171875,259.033203125,22.94921875
1.2698390483856201,1582677536,1,0.19908693432807922,0.406882643699646,0.9771841168403625,-11.77978515625,-37.9638671875,-25.390625
1.2838590145111084,1582677551,0,0.4763466715812683,-0.35556846857070923,1.1681338548660278,-169.921875,180.60302734375,55.72509765625
1.2986619472503662,1582677555,1,0.16588380932807922,0.397605299949646,0.9347036480903625,-14.6484375,-38.4521484375,-16.2353515625
1.318267822265625,1582677570,0,0.9909951090812683,-0.20957237482070923,0.9825869798660278,-82.82470703125,213.5009765625,116.2109375
1.3182730674743652,1582677589,0,0.7588173747062683,0.06337685137987137,0.6210147142410278,-142.822265625,318.84765625,125.9765625
1.3286080360412598,1582677591,1,0.18297365307807922,0.336326003074646,0.9005239605903625,-14.892578125,-27.52685546875,-9.6435546875
1.3438258171081543,1582677608,0,0.5032021403312683,-0.06528525799512863,0.6302920579910278,-205.4443359375,287.7197265625,89.2333984375
1.343855857849121,1582677627,0,0.4446083903312683,-0.05967002362012863,0.6202822923660278,-200.25634765625,152.9541015625,24.59716796875
1.3654708862304688,1582677610,1,0.14415529370307922,0.335593581199646,0.8985708355903625,-13.671875,-21.240234375,-15.31982421875
1.3654770851135254,1582677629,1,0.17345216870307922,0.336814284324646,0.8880727887153625,-14.70947265625,-27.52685546875,-16.357421875
1.3738460540771484,1582677646,0,0.6074501872062683,-0.22470909357070923,0.7233096361160278,-149.96337890625,64.5751953125,-17.7001953125
1.3888299465179443,1582677648,1,0.21251466870307922,0.336326003074646,0.8543813824653625,-16.17431640625,-28.25927734375,-12.26806640625
1.3888840675354004,1582677667,1,0.18712404370307922,0.372458815574646,0.8477895855903625,-22.27783203125,-21.240234375,-6.7138671875
1.413762092590332,1582677682,0,0.7141396403312683,-0.05356650799512863,0.5907412767410278,-120.2392578125,119.32373046875,-4.94384765625
1.4190421104431152,1582677686,1,0.14952638745307922,0.398093581199646,0.8580434918403625,-26.9775390625,-16.4794921875,2.197265625
1.4327800273895264,1582677701,0,0.6958290934562683,-0.21225792169570923,0.6153994798660278,-119.32373046875,118.83544921875,-21.17919921875
1.4480869770050049,1582677705,1,0.12535646557807922,0.377585768699646,0.8744009137153625,-33.63037109375,-9.70458984375,7.87353515625
1.4481017589569092,1582677724,1,0.20299318432807922,0.338767409324646,0.8831899762153625,-36.62109375,-1.15966796875,9.3994140625
1.467519998550415,1582677720,0,0.7036415934562683,-0.27646690607070923,0.7299014329910278,-76.904296875,125.244140625,-33.5693359375
1.467524766921997,1582677739,0,0.5901162028312683,-0.19883018732070923,0.9027529954910278,-1.953125,70.556640625,10.31494140625
1.4788310527801514,1582677743,1,0.22496584057807922,0.277488112449646,0.8922231793403625,-35.58349609375,9.21630859375,3.23486328125
1.493811845779419,1582677758,0,0.9443642497062683,-0.14096885919570923,0.6583682298660278,76.904296875,33.5693359375,31.67724609375
1.4938979148864746,1582677777,0,0.5635048747062683,0.09682411700487137,0.8004580736160278,-25.390625,138.36669921875,35.94970703125
1.516840934753418,1582677762,1,0.22862794995307922,0.268210768699646,0.9010122418403625,-33.14208984375,13.916015625,-5.31005859375
1.5168471336364746,1582677781,1,0.18712404370307922,0.272605299949646,0.9373891949653625,-25.69580078125,15.0146484375,-12.14599609375
1.5238640308380127,1582677796,0,0.6716591715812683,0.06313271075487137,0.9960147142410278,-35.94970703125,117.919921875,44.86083984375
1.5387110710144043,1582677800,1,0.20104005932807922,0.267478346824646,0.9535024762153625,-19.4091796875,12.39013671875,-1.3427734375
1.538740873336792,1582677819,1,0.19786623120307922,0.2118142992258072,0.9801138043403625,-16.7236328125,13.12255859375,5.7373046875
1.5620851516723633,1582677815,0,0.5849892497062683,-0.08994346112012863,0.9217959642410278,-18.6767578125,113.4033203125,57.92236328125
1.5620911121368408,1582677834,0,0.4934365153312683,-0.06821494549512863,1.0668154954910278,29.23583984375,128.90625,103.94287109375
1.581146001815796,1582677853,0,0.4636513590812683,-0.015236429870128632,1.1622744798660278,42.3583984375,139.0380859375,126.89208984375
1.6101469993591309,1582677855,1,0.20616701245307922,0.1466287523508072,0.9137075543403625,-24.90234375,15.0146484375,-8.4228515625
1.6101529598236084,1582677874,1,0.17491701245307922,0.2391580492258072,0.8609731793403625,-26.42822265625,15.31982421875,-9.09423828125
1.614197015762329,1582677872,0,0.4116494059562683,-0.03989463299512863,1.0702334642410278,32.958984375,119.20166015625,95.39794921875
1.6142029762268066,1582677891,0,0.5893837809562683,0.33998817205429077,1.0414248704910278,7.01904296875,107.0556640625,41.80908203125
1.6286840438842773,1582677893,1,0.11266115307807922,0.316306471824646,0.8958852887153625,-27.4658203125,8.72802734375,5.67626953125
1.6437959671020508,1582677910,0,0.6709267497062683,0.32094520330429077,1.0082217454910278,-35.64453125,94.3603515625,45.47119140625
1.664093017578125,1582677912,1,0.08385255932807922,0.331199049949646,0.9288442730903625,-30.6396484375,8.7890625,31.18896484375
1.6640980243682861,1582677931,1,0.11388185620307922,0.320701003074646,0.9351919293403625,-36.19384765625,4.94384765625,41.3818359375
1.673882007598877,1582677946,0,0.6277138590812683,0.28163856267929077,1.1578799486160278,-69.76318359375,77.69775390625,156.67724609375
1.6888267993927002,1582677950,1,0.11144044995307922,0.320945143699646,0.9390981793403625,-40.95458984375,5.55419921875,36.80419921875
1.6889009475708008,1582677969,1,0.057973653078079224,0.290183424949646,0.9547231793403625,-33.02001953125,10.498046875,31.494140625
1.7138359546661377,1582677965,0,0.5913369059562683,0.5335916876792908,1.1683779954910278,-104.00390625,97.10693359375,167.1142578125
1.7138409614562988,1582677984,0,0.7439247965812683,0.49599403142929077,1.1427432298660278,-220.88623046875,164.36767578125,161.7431640625
1.718925952911377,1582677988,1,0.023549824953079224,0.366111159324646,1.0369986295700073,-19.71435546875,12.87841796875,26.3671875
1.7335729598999023,1582678003,0,0.5574013590812683,0.005027242004871368,1.0135928392410278,-279.9072265625,206.298828125,157.3486328125
1.7489070892333984,1582678007,1,0.07604005932807922,0.372214674949646,1.0719107389450073,-18.37158203125,4.638671875,36.0107421875
1.74894380569458,1582678026,1,0.09117677807807922,0.353415846824646,1.0824087858200073,-23.01025390625,0.91552734375,48.2177734375
1.766463041305542,1582678022,0,0.4712197184562683,-0.07895713299512863,1.1424990892410278,-257.62939453125,173.095703125,220.88623046875
1.7664687633514404,1582678041,0,0.2910439372062683,-0.41587120294570923,1.0231143236160278,-209.04541015625,135.55908203125,193.2373046875
1.7792129516601562,1582678045,1,0.07774904370307922,0.318503737449646,1.0526236295700073,-32.8369140625,-6.7138671875,55.72509765625
1.7935800552368164,1582678060,0,0.2827431559562683,-0.14780479669570923,0.7487002611160278,-106.50634765625,249.08447265625,105.1025390625
1.8169169425964355,1582678064,1,0.11681154370307922,0.284568190574646,1.0125845670700073,-31.8603515625,-15.44189453125,37.17041015625
1.816922903060913,1582678083,1,0.11290529370307922,0.308005690574646,0.9903677105903625,-26.2451171875,-14.83154296875,11.29150390625
1.823962926864624,1582678079,0,0.3606240153312683,-0.015236429870128632,0.9408389329910278,-97.2900390625,258.85009765625,73.79150390625
1.8240129947662354,1582678098,0,0.3069130778312683,-0.18222862482070923,0.8009463548660278,-111.572265625,215.2099609375,75.927734375
1.8386170864105225,1582678119,1,0.18150880932807922,0.329734206199646,0.9154165387153625,-36.0107421875,-38.63525390625,22.27783203125
1.8627760410308838,1582678117,0,0.4128701090812683,-0.13242393732070923,0.9379092454910278,-97.412109375,140.07568359375,90.8203125
1.8627808094024658,1582678136,0,0.6487099528312683,-0.17929893732070923,1.0265322923660278,-119.07958984375,140.9912109375,86.48681640625
1.8686268329620361,1582678138,1,0.22472169995307922,0.333884596824646,0.9112661480903625,-40.95458984375,-51.45263671875,33.8134765625
1.8838651180267334,1582678155,0,0.7480751872062683,-0.12900596857070923,1.0406924486160278,-121.88720703125,158.69140625,67.44384765625
1.9102349281311035,1582678157,1,0.2703759968280792,0.308738112449646,0.9246938824653625,-46.7529296875,-56.21337890625,27.16064453125
1.9102399349212646,1582678176,1,0.24449709057807922,0.291648268699646,1.0181998014450073,-46.44775390625,-50.47607421875,12.14599609375
1.917004108428955,1582678174,0,0.7820107340812683,-0.07016807049512863,1.0846377611160278,-120.42236328125,163.330078125,40.34423828125
1.9286131858825684,1582678195,1,0.2674463093280792,0.308249831199646,1.0919302701950073,-37.78076171875,-45.47119140625,-0.9765625
1.9438331127166748,1582678210,0,0.7827431559562683,-0.18320518732070923,1.0773135423660278,-118.65234375,163.26904296875,-42.3583984375
1.966068983078003,1582678214,1,0.3060205280780792,0.311911940574646,1.0721548795700073,-24.84130859375,-40.58837890625,-11.65771484375
1.9660999774932861,1582678233,1,0.3389795124530792,0.310202956199646,1.0404165983200073,-11.29150390625,-40.283203125,-22.39990234375
1.9725089073181152,1582678229,0,0.7314736247062683,-0.13852745294570923,0.9994326829910278,-107.177734375,158.14208984375,-68.603515625
1.9725430011749268,1582678248,0,0.8345009684562683,-0.11850791424512863,1.1119815111160278,-121.7041015625,115.05126953125,-133.23974609375
2.014108896255493,1582678267,0,0.6299111247062683,-0.25888878107070923,1.1671572923660278,-132.8125,122.314453125,-177.6123046875
2.014116048812866,1582678286,0,0.4294716715812683,-0.33261924982070923,1.2892276048660278,-130.859375,157.40966796875,-151.06201171875
2.0191948413848877,1582678252,1,0.2957666218280792,0.319480299949646,1.0289419889450073,-9.21630859375,-40.6494140625,-28.99169921875
2.0191988945007324,1582678271,1,0.2828271687030792,0.318015456199646,0.9969595074653625,-14.22119140625,-47.2412109375,-28.564453125
2.0192019939422607,1582678290,1,0.24693849682807922,0.272361159324646,1.0328482389450073,-17.63916015625,-56.396484375,-28.50341796875
2.0335350036621094,1582678305,0,0.2871376872062683,-0.35459190607070923,1.2738467454910278,-93.505859375,142.76123046875,-99.54833984375
2.0488970279693604,1582678309,1,0.2899072468280792,0.2325662523508072,1.0072134733200073,-21.97265625,-66.5283203125,-34.72900390625
2.048927068710327,1582678328,1,0.3199365437030792,0.1524881273508072,0.9815786480903625,-22.03369140625,-68.66455078125,-47.42431640625
2.0671260356903076,1582678324,0,0.2427040934562683,-0.19809776544570923,1.3319522142410278,-66.2841796875,98.93798828125,-63.1103515625
2.067131996154785,1582678343,0,0.2095009684562683,-0.27890831232070923,1.4352236986160278,-86.36474609375,118.1640625,-63.5986328125
2.078984022140503,1582678347,1,0.2811181843280792,0.11733187735080719,1.0260123014450073,-10.498046875,-57.55615234375,-61.03515625
2.0940101146698,1582678362,0,0.1596962809562683,-0.30820518732070923,1.4681826829910278,-124.93896484375,151.123046875,-61.58447265625
2.115738868713379,1582678383,1,0.22520998120307922,0.1285623461008072,1.2157095670700073,-5.4931640625,-44.921875,-57.0068359375
2.123915910720825,1582678381,0,0.06838769465684891,-0.5821309685707092,1.3456240892410278,-146.97265625,159.3017578125,-37.29248046875
2.1239511966705322,1582678400,0,-0.04147558659315109,-0.6133809685707092,1.3414736986160278,-116.14990234375,135.3759765625,-11.65771484375
2.1415040493011475,1582678402,1,0.20445802807807922,0.11586703360080719,1.2357290983200073,0.79345703125,-50.84228515625,-60.36376953125
2.1628739833831787,1582678419,0,-0.018526367843151093,-0.5984883904457092,1.3463565111160278,-87.46337890625,115.78369140625,11.77978515625
2.167180061340332,1582678421,1,0.16466310620307922,0.1314920336008072,1.2457388639450073,5.06591796875,-62.3779296875,-61.58447265625
2.1672089099884033,1582678440,1,0.16637209057807922,0.1422342211008072,1.2118033170700073,9.033203125,-72.75390625,-58.65478515625
2.183771848678589,1582678438,0,-0.027559570968151093,-0.48593956232070923,1.3693057298660278,-72.75390625,108.45947265625,25.390625
2.198654890060425,1582678459,1,0.17076662182807922,0.1532205492258072,1.1527212858200073,12.75634765625,-70.3125,-56.21337890625
2.198685884475708,1582678478,1,0.16466310620307922,0.1659158617258072,1.0855826139450073,15.2587890625,-69.82421875,-56.82373046875
2.2179248332977295,1582678474,0,-0.04391699284315109,-0.44907432794570923,1.2906924486160278,-49.62158203125,66.7724609375,-6.28662109375
2.2179300785064697,1582678493,0,-0.03317480534315109,-0.37119346857070923,1.3021670579910278,-41.6259765625,38.26904296875,-11.77978515625
2.228848934173584,1582678497,1,0.13854005932807922,0.1895975023508072,1.0667837858200073,18.24951171875,-71.044921875,-54.19921875
2.2437620162963867,1582678512,0,0.08596581965684891,-0.18247276544570923,1.3705264329910278,-52.24609375,38.39111328125,-3.2958984375
2.264826774597168,1582678516,1,0.17760255932807922,0.2218240648508072,1.0404165983200073,21.484375,-79.1015625,-42.6025390625
2.264831066131592,1582678535,1,0.22911623120307922,0.2093728929758072,1.0074576139450073,24.90234375,-76.2939453125,-34.1796875
2.2723469734191895,1582678531,0,0.2231728434562683,-0.16196495294570923,1.2567569017410278,-55.23681640625,42.66357421875,-0.54931640625
2.2723782062530518,1582678550,0,0.2449013590812683,-0.22177940607070923,1.1708194017410278,-27.16064453125,70.00732421875,-20.5078125
2.2889647483825684,1582678554,1,0.2535302937030792,0.2164529711008072,0.9793813824653625,27.16064453125,-70.6787109375,-33.69140625
2.3135228157043457,1582678569,0,0.2082802653312683,-0.06455283612012863,1.1119815111160278,-8.7890625,61.82861328125,-29.4189453125
2.318753957748413,1582678573,1,0.2750146687030792,0.259421706199646,0.9791372418403625,26.85546875,-70.4345703125,-28.6865234375
2.318800926208496,1582678592,1,0.3165185749530792,0.253074049949646,0.9979360699653625,19.8974609375,-74.5849609375,-21.05712890625
2.3465189933776855,1582678611,1,0.3162744343280792,0.251365065574646,1.0074576139450073,16.17431640625,-79.58984375,-19.53125
2.366250991821289,1582678588,0,0.1787392497062683,-0.12046103924512863,1.2259951829910278,-30.70068359375,23.25439453125,-37.04833984375
2.366255760192871,1582678607,0,0.2480751872062683,-0.21372276544570923,1.2076846361160278,-53.466796875,-59.9365234375,-57.2509765625
2.366260051727295,1582678626,0,0.020536132156848907,-0.14414268732070923,1.4054385423660278,-81.787109375,-24.2919921875,-60.6689453125
2.3662641048431396,1582678645,0,0.05666894465684891,-0.41172081232070923,1.3268252611160278,-62.56103515625,21.3623046875,-26.18408203125
2.3778939247131348,1582678647,1,0.3089502155780792,0.276023268699646,0.9996450543403625,18.9208984375,-84.28955078125,-22.76611328125
2.3937759399414062,1582678664,0,-0.06588964909315109,-0.45542198419570923,1.2479678392410278,-15.56396484375,27.16064453125,-14.83154296875
2.4169421195983887,1582678666,1,0.3016259968280792,0.284324049949646,0.9600942730903625,25.81787109375,-85.38818359375,-21.8505859375
2.416947841644287,1582678685,1,0.2899072468280792,0.265525221824646,0.9198110699653625,28.13720703125,-85.63232421875,-23.3154296875
2.423858880996704,1582678683,0,-0.09689550846815109,-0.32187706232070923,1.2064639329910278,16.7236328125,17.02880859375,-0.6103515625
2.4238898754119873,1582678702,0,-0.06027441471815109,-0.25302940607070923,1.1993838548660278,29.35791015625,18.6767578125,23.92578125
2.4386181831359863,1582678704,1,0.2779443562030792,0.268943190574646,0.8680532574653625,28.62548828125,-85.0830078125,-23.681640625
2.463080883026123,1582678738,0,-0.08664160221815109,-0.12802940607070923,1.0992861986160278,16.2353515625,34.97314453125,63.720703125
2.46881103515625,1582678723,1,0.22447755932807922,0.275534987449646,0.8294790387153625,22.88818359375,-84.41162109375,-22.216796875
2.4688408374786377,1582678742,1,0.23692873120307922,0.270408034324646,0.7789419293403625,20.3857421875,-87.21923828125,-16.9677734375
2.4838011264801025,1582678757,0,-0.1344931721687317,-0.10092978924512863,1.0492373704910278,-1.0986328125,46.630859375,67.32177734375
2.498538017272949,1582678761,1,0.21788576245307922,0.289695143699646,0.7469595074653625,22.5830078125,-81.48193359375,-14.5263671875
2.517327070236206,1582678776,0,-0.1403525471687317,-0.16684776544570923,1.0109072923660278,-12.5732421875,59.326171875,64.94140625
2.517331838607788,1582678795,0,-0.1882041096687317,-0.13803917169570923,0.9374209642410278,-13.671875,50.10986328125,74.89013671875
2.5287680625915527,1582678780,1,0.19811037182807922,0.302634596824646,0.6812856793403625,22.5830078125,-70.73974609375,-12.8173828125
2.528779983520508,1582678799,1,0.18517091870307922,0.307273268699646,0.6319692730903625,16.17431640625,-63.65966796875,-6.591796875
2.543617010116577,1582678814,0,-0.2795127034187317,-0.11948447674512863,0.8341494798660278,-12.63427734375,34.97314453125,78.2470703125
2.5657949447631836,1582678818,1,0.16783693432807922,0.294577956199646,0.5965688824653625,8.30078125,-56.396484375,-2.50244140625
2.5657999515533447,1582678837,1,0.15855959057807922,0.314109206199646,0.5628774762153625,-4.08935546875,-48.88916015625,4.69970703125
2.574492931365967,1582678833,0,-0.2834189534187317,-0.10654502362012863,0.8312197923660278,-18.06640625,27.64892578125,79.77294921875
2.5889949798583984,1582678856,1,0.16393068432807922,0.324851393699646,0.5440786480903625,-14.34326171875,-40.283203125,14.892578125
2.6131210327148438,1582678852,0,-0.1840537190437317,-0.11972861737012863,0.7982608079910278,-30.8837890625,41.748046875,90.6982421875
2.613125801086426,1582678871,0,-0.2458212971687317,-0.17783409357070923,0.8185244798660278,-51.26953125,66.89453125,109.2529296875
2.6189041137695312,1582678875,1,0.16270998120307922,0.298972487449646,0.5321157574653625,-23.8037109375,-27.2216796875,27.89306640625
2.6355559825897217,1582678890,0,-0.2204306721687317,-0.17392784357070923,0.8024111986160278,-63.90380859375,81.72607421875,130.615234375
2.635560989379883,1582678909,0,-0.1852744221687317,-0.17295128107070923,0.7801944017410278,-74.52392578125,89.29443359375,150.32958984375
2.6487748622894287,1582678911,1,0.20152834057807922,0.257224440574646,0.5953481793403625,-36.7431640625,5.43212890625,46.81396484375
2.666064977645874,1582678928,0,-0.1528037190437317,-0.12461142987012863,0.7733584642410278,-82.45849609375,87.40234375,166.259765625
2.666069984436035,1582678947,0,-0.08688574284315109,-0.07431846112012863,0.7743350267410278,-93.20068359375,83.8623046875,187.255859375
2.677206039428711,1582678930,1,0.18224123120307922,0.2435525804758072,0.6466177105903625,-49.560546875,18.4326171875,57.43408203125
2.6772401332855225,1582678949,1,0.20738771557807922,0.2435525804758072,0.6644399762153625,-65.4296875,25.81787109375,67.9931640625
2.693765878677368,1582678966,0,-0.029756836593151093,-0.07480674237012863,0.7972842454910278,-104.06494140625,90.8203125,187.6220703125
2.7158660888671875,1582678968,1,0.21910646557807922,0.2025369554758072,0.6759145855903625,-72.57080078125,30.76171875,71.044921875
2.7158708572387695,1582678987,1,0.17491701245307922,0.1773904711008072,0.6693227887153625,-69.64111328125,36.92626953125,70.98388671875
2.7238619327545166,1582679002,0,-0.027315430343151093,-0.11435752362012863,0.9291201829910278,-122.49755859375,104.8583984375,185.85205078125
2.7387728691101074,1582679006,1,0.07237794995307922,0.2169412523508072,0.7537954449653625,-60.1806640625,51.6357421875,83.740234375
2.7620019912719727,1582679021,0,-0.06076269596815109,-0.18271690607070923,0.9027529954910278,-107.11669921875,70.1904296875,196.47216796875
2.7686960697174072,1582679025,1,0.07945802807807922,0.284812331199646,0.8612173199653625,-66.89453125,62.5,122.1923828125
2.7687668800354004,1582679044,1,0.09557130932807922,0.253074049949646,0.9259145855903625,-80.2001953125,72.69287109375,153.50341796875
2.7823290824890137,1582679040,0,-0.05343847721815109,-0.20420128107070923,0.8990908861160278,-75.01220703125,26.0009765625,214.111328125
2.782406806945801,1582679059,0,0.04226464778184891,-0.17173057794570923,0.9728213548660278,-35.46142578125,-17.4560546875,230.712890625
2.8093650341033936,1582679063,1,0.14342287182807922,0.09609164297580719,0.9840200543403625,-93.75,67.3828125,170.41015625
2.8167998790740967,1582679078,0,0.1926552653312683,-0.09214072674512863,1.1385928392410278,-15.07568359375,-35.888671875,240.966796875
2.8168041706085205,1582679097,0,0.3369423747062683,-0.09751182049512863,1.3080264329910278,-13.24462890625,-32.5927734375,249.45068359375
2.828873872756958,1582679082,1,0.13634279370307922,-0.00791226327419281,0.9776723980903625,-90.75927734375,59.9365234375,162.29248046875
2.828886032104492,1582679101,1,0.024770528078079224,0.05776156485080719,1.0472525358200073,-75.98876953125,61.4013671875,168.51806640625
2.843778133392334,1582679116,0,0.4321572184562683,-0.08701377362012863,1.4405947923660278,-23.8037109375,-2.38037109375,258.056640625
2.865328788757324,1582679120,1,0.007436543703079224,0.10854281485080719,1.1312369108200073,-73.42529296875,76.416015625,197.57080078125
2.865334987640381,1582679139,1,-0.0013525187969207764,0.03920687735080719,1.2545279264450073,-80.2001953125,92.34619140625,226.318359375
2.8737969398498535,1582679135,0,0.4941689372062683,-0.07675986737012863,1.4557315111160278,-33.99658203125,40.52734375,267.15087890625
2.8738338947296143,1582679154,0,0.5967079997062683,-0.11289267987012863,1.4083682298660278,-21.17919921875,37.29248046875,272.03369140625
2.9124059677124023,1582679173,0,0.7629677653312683,-0.09311728924512863,1.4813662767410278,20.56884765625,4.69970703125,276.30615234375
2.918782949447632,1582679175,1,0.11168459057807922,-0.1690450757741928,1.3939322233200073,-88.623046875,59.38720703125,229.79736328125
2.918799877166748,1582679194,1,0.15221193432807922,-0.1541524976491928,1.4757193326950073,-80.2001953125,40.0390625,230.65185546875
2.9338748455047607,1582679192,0,1.027372121810913,-0.04990439862012863,1.6461611986160278,71.4111328125,-23.8037109375,263.18359375
2.9339420795440674,1582679211,0,1.345975637435913,-0.012062601745128632,1.8131533861160278,81.787109375,3.5400390625,238.1591796875
2.948728084564209,1582679213,1,0.20665529370307922,-0.1700216382741928,1.5694693326950073,-65.00244140625,37.353515625,236.63330078125
2.9667158126831055,1582679230,0,1.503446340560913,-0.03647666424512863,1.8441592454910278,60.72998046875,77.20947265625,217.28515625
2.9788668155670166,1582679232,1,0.3113916218280792,-0.2393575757741928,1.5846060514450073,-40.8935546875,37.109375,232.91015625
2.9789040088653564,1582679251,1,0.4647119343280792,-0.279396653175354,1.5511587858200073,8.11767578125,43.02978515625,208.19091796875
2.9937868118286133,1582679266,0,1.563260793685913,-0.04380088299512863,1.6207705736160278,58.65478515625,162.90283203125,184.75341796875
3.016403913497925,1582679270,1,0.4842431843280792,-0.2383810132741928,1.5445669889450073,60.11962890625,55.908203125,161.9873046875
3.016409158706665,1582679289,1,0.4451806843280792,-0.09482632577419281,1.7520865201950073,67.626953125,63.29345703125,158.02001953125
3.0238988399505615,1582679285,0,1.679227590560913,-0.07724814862012863,1.5577822923660278,88.623046875,149.96337890625,147.705078125
3.0239219665527344,1582679304,0,1.782254934310913,-0.18247276544570923,1.5292178392410278,119.44580078125,115.53955078125,110.7177734375
3.0385820865631104,1582679308,1,0.4654443562030792,-0.05454312264919281,2.0477406978607178,37.53662109375,74.40185546875,186.8896484375
3.0626180171966553,1582679323,0,1.886014699935913,-0.20273643732070923,1.5148135423660278,147.3388671875,82.82470703125,110.41259765625
3.068938970565796,1582679327,1,0.6424462795257568,-0.386574387550354,2.5064809322357178,15.13671875,96.74072265625,225.28076171875
3.0689709186553955,1582679346,1,0.8958642482757568,-0.799416184425354,2.7794301509857178,55.35888671875,66.46728515625,211.36474609375
3.083751916885376,1582679342,0,1.996122121810913,-0.16220909357070923,1.4203311204910278,166.07666015625,65.49072265625,102.35595703125
3.083770751953125,1582679361,0,2.122342824935913,-0.10605674237012863,1.2740908861160278,172.18017578125,57.43408203125,72.998046875
3.096895933151245,1582679365,1,1.0601708889007568,-0.970558762550354,2.6776235103607178,139.5263671875,-23.13232421875,178.77197265625
3.1174330711364746,1582679380,0,2.160184621810913,-0.15610557794570923,1.0961123704910278,150.87890625,55.96923828125,13.0615234375
3.16158390045166,1582679384,1,1.0386865139007568,-1.094826340675354,2.5758168697357178,178.5888671875,-93.3837890625,185.4248046875
3.1630210876464844,1582679403,1,1.0198876857757568,-1.336037278175354,2.4229848384857178,182.06787109375,-140.7470703125,188.04931640625
3.163048028945923,1582679439,1,0.7071435451507568,-1.718361496925354,2.2264516353607178,184.99755859375,-227.96630859375,137.3291015625
3.175398826599121,1582679399,0,2.112821340560913,-0.35141807794570923,1.0048037767410278,123.59619140625,47.42431640625,-26.3671875
3.1754040718078613,1582679418,0,2.035184621810913,-0.39829307794570923,0.9694033861160278,123.6572265625,42.54150390625,-34.1796875
3.175407886505127,1582679437,0,1.961454153060913,-0.41367393732070923,0.8697940111160278,135.986328125,23.193359375,-25.57373046875
3.1754119396209717,1582679456,0,1.897977590560913,-0.5696797966957092,0.8087588548660278,119.9951171875,-4.45556640625,-77.63671875
3.1880598068237305,1582679458,1,0.4954736530780792,-1.778664231300354,1.9452017545700073,186.03515625,-310.4248046875,75.01220703125
3.2130308151245117,1582679475,0,1.602079153060913,-0.6468282341957092,0.7753115892410278,87.70751953125,-8.4228515625,-117.919921875
3.218785047531128,1582679477,1,0.2669580280780792,-1.676369309425354,1.5999869108200073,196.83837890625,-364.31884765625,4.39453125
3.218809127807617,1582679496,1,0.039663106203079224,-1.500588059425354,1.2608755826950073,214.599609375,-384.58251953125,-49.9267578125
3.235234022140503,1582679494,0,1.344510793685913,-0.7017598748207092,0.7606631517410278,62.07275390625,-7.99560546875,-143.73779296875
3.259460926055908,1582679515,1,-0.15516111254692078,-1.321632981300354,1.0521353483200073,220.88623046875,-389.58740234375,-88.7451171875
3.2653298377990723,1582679530,0,0.9143349528312683,-0.7100606560707092,0.6271182298660278,67.9931640625,-29.60205078125,-127.9296875
3.279110908508301,1582679534,1,-0.3526708781719208,-1.042091965675354,0.7596548199653625,194.3359375,-404.11376953125,-134.09423828125
3.2791879177093506,1582679553,1,-0.4242040812969208,-0.803566575050354,0.5506704449653625,141.41845703125,-418.27392578125,-166.1376953125
3.292222023010254,1582679549,0,0.6743447184562683,-0.6282735466957092,0.47575104236602783,65.24658203125,-58.4716796875,-107.48291015625
3.2922911643981934,1582679568,0,0.4265419840812683,-0.6651387810707092,0.47379791736602783,37.109375,-100.52490234375,-86.9140625
3.316382884979248,1582679572,1,-0.4762060344219208,-0.630715012550354,0.36463531851768494,83.740234375,-422.18017578125,-189.94140625
3.324012041091919,1582679587,0,0.2192665934562683,-0.6382833123207092,0.49674713611602783,20.6298828125,-120.42236328125,-60.6689453125
3.3240890502929688,1582679606,0,0.06008691340684891,-0.5225606560707092,0.46671783924102783,19.8974609375,-129.638671875,-41.07666015625
3.3391730785369873,1582679591,1,-0.5777685642242432,-0.415871262550354,0.15272124111652374,43.8232421875,-392.88330078125,-196.6552734375
3.339179039001465,1582679610,1,-0.6048681735992432,-0.1888204663991928,-0.11851899325847626,13.427734375,-348.44970703125,-193.90869140625
3.362816095352173,1582679625,0,-0.014375977218151093,-0.40708214044570923,0.41251862049102783,1.0986328125,-149.23095703125,-47.05810546875
3.3687198162078857,1582679629,1,-0.5533545017242432,0.07241000235080719,-0.37633147835731506,-1.77001953125,-287.65869140625,-185.36376953125
3.368751049041748,1582679648,1,-0.4788915812969208,0.280661940574646,-0.5269662737846375,-17.4560546875,-240.41748046875,-165.52734375
3.3838798999786377,1582679644,0,-0.1542685627937317,-0.34751182794570923,0.37272369861602783,-5.9814453125,-168.701171875,-45.654296875
3.383983850479126,1582679663,0,-0.2135947346687317,-0.18344932794570923,0.28239166736602783,8.056640625,-196.83837890625,-45.47119140625
3.3972830772399902,1582679667,1,-0.4422704875469208,0.393454909324646,-0.5628549456596375,-38.02490234375,-210.99853515625,-148.0712890625
3.4176697731018066,1582679682,0,-0.2299521565437317,-0.06406455487012863,0.21110258996486664,21.17919921875,-205.62744140625,-12.939453125
3.428596019744873,1582679703,1,-0.4342138469219208,0.672751784324646,-0.38707366585731506,-132.01904296875,-158.75244140625,-110.595703125
3.4438729286193848,1582679701,0,-0.3727744221687317,-0.007423929870128632,0.27189362049102783,17.333984375,-205.56640625,10.1318359375
3.4439051151275635,1582679720,0,-0.3622763752937317,0.09096474200487137,0.28800690174102783,8.9111328125,-175.29296875,40.22216796875
3.464621067047119,1582679722,1,-0.3912450969219208,0.706687331199646,-0.17833344638347626,-149.35302734375,-120.54443359375,-91.24755859375
3.4738829135894775,1582679739,0,-0.4147666096687317,0.05190224200487137,0.30314362049102783,-25.57373046875,-172.66845703125,26.55029296875
3.488801956176758,1582679741,1,-0.3565771281719208,0.677878737449646,0.05018218234181404,-134.521484375,-96.923828125,-86.5478515625
3.488853931427002,1582679760,1,-0.3175146281719208,0.624167799949646,0.09022124111652374,-110.16845703125,-100.4638671875,-85.63232421875
3.517518997192383,1582679779,1,-0.3028661906719208,0.611960768699646,0.19764311611652374,-110.2294921875,-78.2470703125,-84.41162109375
3.5187859535217285,1582679798,1,-0.3292333781719208,0.668845534324646,0.29993805289268494,-101.62353515625,-58.7158203125,-79.40673828125
3.534075975418091,1582679758,0,-0.5429404377937317,0.01674599200487137,0.19254790246486664,-109.86328125,-181.57958984375,13.97705078125
3.534152030944824,1582679794,0,-0.5766318440437317,-0.0018086954951286316,0.39396393299102783,-190.97900390625,-195.98388671875,99.42626953125
3.5342259407043457,1582679813,0,-0.3691123127937317,0.37367957830429077,0.38151276111602783,-167.6025390625,-122.1923828125,145.08056640625
3.5488638877868652,1582679817,1,-0.3133642375469208,0.705710768699646,0.47962555289268494,-114.80712890625,-65.5517578125,-61.09619140625
3.5661890506744385,1582679832,0,-0.3717978596687317,0.43886512517929077,0.49113190174102783,-115.53955078125,-49.4384765625,104.8583984375
3.5789308547973633,1582679836,1,-0.23230955004692078,0.704978346824646,0.41688141226768494,-139.6484375,-68.90869140625,-48.828125
3.578968048095703,1582679855,1,-0.13343259692192078,0.669089674949646,0.45106109976768494,-150.20751953125,-57.7392578125,-34.11865234375
3.593740940093994,1582679851,0,-0.4264853596687317,0.34072059392929077,0.48966705799102783,-92.041015625,-79.04052734375,91.4306640625
3.593813896179199,1582679870,0,-0.2511923909187317,0.34242957830429077,0.6088076829910278,-136.77978515625,-129.45556640625,111.083984375
3.6159989833831787,1582679874,1,0.061147481203079224,0.614402174949646,0.42567047476768494,-140.13671875,-31.982421875,-23.98681640625
3.6238999366760254,1582679889,0,-0.2109091877937317,0.5675272345542908,0.7921572923660278,-206.97021484375,-111.63330078125,171.32568359375
3.638916015625,1582679893,1,0.046499043703079224,0.535056471824646,0.48328766226768494,-138.5498046875,-8.7890625,-47.9736328125
3.639002799987793,1582679912,1,-0.08069822192192078,0.535056471824646,0.8468130230903625,-141.29638671875,10.6201171875,-65.97900390625
3.6624839305877686,1582679908,0,-0.1969931721687317,0.6905741095542908,0.9752627611160278,-265.07568359375,-30.6396484375,228.94287109375
3.662489175796509,1582679927,0,-0.09958105534315109,0.7350077033042908,1.0668154954910278,-283.935546875,29.47998046875,240.234375
3.6685550212860107,1582679931,1,-0.026254862546920776,0.758201003074646,0.6182973980903625,-143.85986328125,29.47998046875,-46.56982421875
3.683773994445801,1582679946,0,0.12307519465684891,0.8131327033042908,1.0914736986160278,-291.8701171875,65.12451171875,240.53955078125
3.683806896209717,1582679965,0,0.2978798747062683,0.8971170783042908,1.1503115892410278,-296.0205078125,89.17236328125,257.14111328125
3.6987359523773193,1582679967,1,0.07262209057807922,0.666404128074646,0.9935415387153625,-166.015625,84.16748046875,-18.73779296875
3.7179441452026367,1582679984,0,0.4651162028312683,0.9332498908042908,1.2723819017410278,-295.7763671875,105.5908203125,260.8642578125
3.7288551330566406,1582679986,1,-0.016977518796920776,0.753074049949646,1.0675162076950073,-198.73046875,78.43017578125,-25.32958984375
3.728922128677368,1582680005,1,-0.21912595629692078,0.827048659324646,1.2982290983200073,-226.9287109375,60.36376953125,-1.953125
3.743746042251587,1582680003,0,0.5239540934562683,0.9583963751792908,1.3053408861160278,-285.0341796875,136.5966796875,244.44580078125
3.7438249588012695,1582680022,0,0.5032021403312683,0.9269022345542908,1.3558779954910278,-264.46533203125,186.767578125,203.125
3.7663609981536865,1582680024,1,-0.15955564379692078,0.734763503074646,1.2223013639450073,-225.5859375,37.9638671875,-2.99072265625
3.773935079574585,1582680058,0,0.4355751872062683,0.7093729376792908,1.2670108079910278,-271.17919921875,201.5380859375,180.23681640625
3.7888059616088867,1582680043,1,-0.08558103442192078,0.745261549949646,1.1878775358200073,-183.7158203125,50.4150390625,-16.6015625
3.7888901233673096,1582680062,1,-0.14661619067192078,0.848777174949646,1.3255728483200073,-144.83642578125,73.2421875,-10.009765625
3.813025951385498,1582680077,0,0.4866005778312683,0.5738748908042908,1.3549014329910278,-255.9814453125,180.84716796875,216.064453125
3.818892002105713,1582680081,1,-0.08143064379692078,0.860495924949646,1.4837759733200073,-129.69970703125,67.626953125,3.0517578125
3.8367669582366943,1582680096,0,0.7051064372062683,0.5978006720542908,1.4029971361160278,-209.04541015625,169.677734375,260.7421875
3.836773157119751,1582680115,0,0.9934365153312683,0.6202616095542908,1.5065127611160278,-169.7998046875,175.9033203125,294.43359375
3.848841905593872,1582680100,1,-0.048471659421920776,0.772605299949646,1.5472525358200073,-139.58740234375,27.099609375,7.01904296875
3.8488597869873047,1582680119,1,0.17662599682807922,0.755027174949646,1.3756216764450073,-158.14208984375,-6.16455078125,22.03369140625
3.866633892059326,1582680134,0,1.119168996810913,0.5814432501792908,1.5377627611160278,-160.64453125,206.298828125,298.64501953125
3.8787357807159424,1582680138,1,0.4161279499530792,0.706931471824646,1.3560904264450073,-157.89794921875,-1.40380859375,49.74365234375
3.8788139820098877,1582680157,1,0.3448388874530792,0.565574049949646,1.5340689420700073,-149.23095703125,17.08984375,72.69287109375
3.893854856491089,1582680153,0,1.169706106185913,0.5470194220542908,1.4676944017410278,-161.92626953125,237.4267578125,302.79541015625
3.893878936767578,1582680172,0,1.222440481185913,0.5145487189292908,1.3976260423660278,-149.0478515625,244.384765625,320.49560546875
3.915839910507202,1582680176,1,0.4654443562030792,0.527976393699646,1.7103384733200073,-158.50830078125,13.3056640625,97.412109375
3.9238059520721436,1582680191,0,1.383329153060913,0.5204080939292908,1.3177920579910278,-117.431640625,239.74609375,354.4921875
3.9385809898376465,1582680195,1,0.7164208889007568,0.475974440574646,1.7406119108200073,-189.697265625,-32.28759765625,134.765625
3.9615848064422607,1582680210,0,1.809354543685913,0.7892069220542908,1.4652529954910278,-91.064453125,247.74169921875,367.431640625
3.961590051651001,1582680229,0,2.041776418685913,1.0186991691589355,1.3961611986160278,-88.07373046875,277.4658203125,284.48486328125
3.968571901321411,1582680231,1,1.1844384670257568,0.1693338304758072,1.5462759733200073,-174.25537109375,-59.326171875,183.9599609375
3.9839401245117188,1582680248,0,1.928495168685913,0.8717264533042908,1.3841983079910278,-84.1064453125,273.4375,231.14013671875
3.984027862548828,1582680267,0,1.899930715560913,0.7682108283042908,1.3033877611160278,-41.93115234375,244.873046875,222.22900390625
3.9986507892608643,1582680250,1,1.5110986232757568,-0.08164273202419281,1.4727896451950073,-114.74609375,-1.220703125,190.91796875
3.9987239837646484,1582680269,1,1.6160790920257568,-0.1878439038991928,1.4359244108200073,-23.681640625,68.66455078125,167.17529296875
4.01751708984375,1582680286,0,1.848172903060913,0.7059549689292908,1.1307803392410278,17.27294921875,208.3740234375,182.4951171875
4.028860807418823,1582680288,1,1.4131982326507568,-0.11704312264919281,1.4464224576950073,6.4697265625,52.91748046875,172.9736328125
4.028893947601318,1582680307,1,0.9141747951507568,-0.278420090675354,1.5833853483200073,-16.90673828125,-19.83642578125,209.47265625
4.043787002563477,1582680322,0,2.049833059310913,0.29726356267929077,0.49870026111602783,-16.4794921875,214.90478515625,36.376953125
4.0661890506744385,1582680326,1,1.2139794826507568,-0.2100607007741928,1.5836294889450073,-35.94970703125,-157.8369140625,193.17626953125
4.073868036270142,1582680341,0,1.323270559310913,-0.08823447674512863,1.1510440111160278,14.5263671875,224.06005859375,-45.41015625
4.088748931884766,1582680345,1,1.1480615139007568,-0.897560715675354,0.9278677105903625,156.55517578125,-61.34033203125,138.36669921875
4.088791131973267,1582680364,1,0.5936181545257568,-0.2430196851491928,0.9212759137153625,265.68603515625,-16.41845703125,30.517578125
4.112936019897461,1582680360,0,0.6592079997062683,-0.31064659357070923,1.2194033861160278,106.8115234375,177.24609375,-7.32421875
4.112941026687622,1582680379,0,0.1838662028312683,-0.38901573419570923,1.0887881517410278,157.2265625,54.99267578125,55.35888671875
4.118003845214844,1582680383,1,0.5621240139007568,-0.643898606300354,1.4239615201950073,225.03662109375,-140.380859375,20.263671875
4.133825063705444,1582680398,0,0.6758095622062683,-0.31821495294570923,0.8019229173660278,232.36083984375,-5.9814453125,32.71484375
4.1339030265808105,1582680417,0,0.2810341715812683,0.06679482012987137,0.7406436204910278,256.53076171875,-80.74951171875,-9.33837890625
4.148936986923218,1582680402,1,-0.22132322192192078,0.359031081199646,0.8175161480903625,193.359375,-181.884765625,15.7470703125
4.148965835571289,1582680421,1,0.3924463093280792,0.1554178148508072,0.7130239605903625,251.8310546875,-166.3818359375,3.173828125
4.166353940963745,1582680436,0,0.4736611247062683,0.007956929504871368,0.8461123704910278,275.2685546875,-109.55810546875,-5.37109375
4.178960800170898,1582680440,1,0.20689943432807922,0.368796706199646,0.35731109976768494,286.865234375,-153.80859375,-41.07666015625
4.179029941558838,1582680459,1,0.19591310620307922,0.384665846824646,-0.00011078640818595886,217.4072265625,-146.3623046875,-72.93701171875
4.193950891494751,1582680455,0,0.1408974528312683,0.13246864080429077,0.6324893236160278,226.86767578125,-114.6240234375,-40.0390625
4.194019079208374,1582680474,0,0.0071083977818489075,0.13588660955429077,0.38322174549102783,125.42724609375,-117.431640625,-27.89306640625
4.221174955368042,1582680493,0,-0.06222753971815109,0.22939246892929077,0.32511627674102783,86.12060546875,-153.076171875,-33.87451171875
4.238692045211792,1582680495,1,0.13902834057807922,0.552146315574646,0.08338530361652374,71.59423828125,-112.1826171875,-54.74853515625
4.238774061203003,1582680514,1,0.15538576245307922,0.532859206199646,0.17933256924152374,57.80029296875,-105.712890625,-61.5234375
4.262645959854126,1582680512,0,-0.04538183659315109,0.38246864080429077,0.36222565174102783,68.90869140625,-173.76708984375,-57.2509765625
4.262650012969971,1582680531,0,-0.05270605534315109,0.34365028142929077,0.38541901111602783,56.70166015625,-167.90771484375,-74.40185546875
4.268651962280273,1582680533,1,0.029653340578079224,0.703513503074646,0.21155913174152374,83.31298828125,-81.48193359375,-66.89453125
4.283878803253174,1582680550,0,-0.1957724690437317,0.32265418767929077,0.5067569017410278,24.71923828125,-132.14111328125,-65.3076171875
4.29882287979126,1582680552,1,0.010122090578079224,0.712302565574646,0.17371733486652374,110.04638671875,-35.0341796875,-48.33984375
4.298840045928955,1582680571,1,0.022084981203079224,0.703513503074646,0.31409820914268494,69.76318359375,-32.53173828125,-31.18896484375
4.318965911865234,1582680586,0,-0.1845420002937317,0.43569129705429077,0.5072451829910278,-47.36328125,-51.025390625,-30.1513671875
4.328869104385376,1582680590,1,0.14928224682807922,0.541159987449646,0.44276031851768494,15.0146484375,-48.52294921875,-37.109375
4.328917026519775,1582680609,1,0.15538576245307922,0.426902174949646,0.45521149039268494,-34.3017578125,-49.8046875,-54.3212890625
4.343962907791138,1582680605,0,-0.1537802815437317,0.45961707830429077,0.44181549549102783,-94.6044921875,-4.0283203125,-29.4189453125
4.343981027603149,1582680624,0,-0.1781943440437317,0.44032996892929077,0.37711822986602783,-112.3046875,23.25439453125,-12.6953125
4.36667799949646,1582680628,1,0.15147951245307922,0.360007643699646,0.48255524039268494,-50.1708984375,-33.203125,-51.57470703125
4.373844861984253,1582680643,0,-0.09005957096815109,0.42714637517929077,0.35905182361602783,-108.2763671875,26.9775390625,10.43701171875
4.388819932937622,1582680647,1,0.12779787182807922,0.317283034324646,0.45325836539268494,-38.0859375,-4.33349609375,-30.6396484375
4.3888819217681885,1582680666,1,0.24034669995307922,0.342673659324646,0.39979156851768494,-27.34375,2.99072265625,-27.64892578125
4.414592027664185,1582680662,0,-0.03366308659315109,0.46376746892929077,0.31266510486602783,-102.47802734375,26.85546875,27.40478515625
4.414596796035767,1582680681,0,0.015653319656848907,0.5077127814292908,0.24894438683986664,-114.013671875,23.74267578125,44.00634765625
4.418543100357056,1582680685,1,0.18297365307807922,0.359275221824646,0.37684234976768494,-56.70166015625,1.0986328125,-24.84130859375
4.433748006820679,1582680700,0,0.11477441340684891,0.42543739080429077,0.08854399621486664,-138.671875,17.76123046875,49.01123046875
4.448824167251587,1582680704,1,0.20763185620307922,0.347556471824646,0.46082672476768494,-118.34716796875,-24.10888671875,-36.376953125
4.448857069015503,1582680723,1,0.3096826374530792,0.2235330492258072,0.46717438101768494,-146.05712890625,10.43701171875,-52.1240234375
4.466682195663452,1582680719,0,0.021756835281848907,0.5328592658042908,0.09025298058986664,-167.6025390625,-7.8125,48.03466796875
4.466686964035034,1582680738,0,0.1260048747062683,0.40248817205429077,0.29923737049102783,-195.49560546875,-12.39013671875,34.423828125
4.478845834732056,1582680759,1,0.13487794995307922,0.2459939867258072,0.7559927105903625,-124.20654296875,23.13232421875,-34.24072265625
4.493849039077759,1582680757,0,0.012479491531848907,0.42250770330429077,0.15690337121486664,-216.552734375,-6.77490234375,32.89794921875
4.493913173675537,1582680776,0,0.015165038406848907,0.23671668767929077,0.31486237049102783,-245.42236328125,-15.31982421875,65.3076171875
4.515830039978027,1582680778,1,0.17857912182807922,0.2228006273508072,0.7176626324653625,-138.00048828125,27.099609375,-26.123046875
4.522599935531616,1582680795,0,0.1928994059562683,0.25673621892929077,0.6083194017410278,-246.03271484375,-0.42724609375,113.09814453125
4.539429187774658,1582680797,1,0.15758302807807922,0.265525221824646,0.7183950543403625,-157.53173828125,23.8037109375,-23.0712890625
4.539433002471924,1582680816,1,0.19420412182807922,0.2196267992258072,0.7542837262153625,-176.025390625,35.33935546875,-17.333984375
4.562571048736572,1582680814,0,0.2204872965812683,0.18569129705429077,0.7301455736160278,-243.7744140625,30.70068359375,149.0478515625
4.567949056625366,1582680835,1,0.07066896557807922,0.2474588304758072,0.8353384137153625,-195.068359375,39.97802734375,-19.10400390625
4.583721876144409,1582680850,0,0.2329384684562683,0.16249793767929077,0.8483096361160278,-276.2451171875,106.26220703125,245.2392578125
4.5986738204956055,1582680854,1,0.062124043703079224,0.268943190574646,0.9430044293403625,-216.49169921875,24.658203125,16.7236328125
4.59874415397644,1582680873,1,0.21495607495307922,0.1759256273508072,1.1104849576950073,-222.2900390625,14.83154296875,45.8984375
4.617067098617554,1582680869,0,0.2136513590812683,-0.18711143732070923,1.1371279954910278,-322.44873046875,160.888671875,315.85693359375
4.617071866989136,1582680888,0,0.3874794840812683,-0.0025411173701286316,1.2115908861160278,-378.60107421875,186.70654296875,391.41845703125
4.627303838729858,1582680892,1,0.15196779370307922,0.363425612449646,1.2081412076950073,-214.66064453125,26.4892578125,99.853515625
4.643882989883423,1582680907,0,0.9492470622062683,0.08193153887987137,1.7631045579910278,-378.173828125,209.41162109375,454.833984375
4.643934965133667,1582680926,0,1.396268606185913,0.25136512517929077,2.0489931106567383,-320.73974609375,251.15966796875,457.33642578125
4.6669909954071045,1582680911,1,0.3558252155780792,0.1622537523508072,1.5206412076950073,-191.83349609375,40.22216796875,119.62890625
4.666995048522949,1582680930,1,0.6641747951507568,0.10390414297580719,1.8553580045700073,-139.16015625,51.3916015625,99.853515625
4.6739888191223145,1582680945,0,1.543241262435913,0.5499491095542908,2.2943544387817383,-252.0751953125,277.77099609375,409.48486328125
4.688778877258301,1582680949,1,0.8106591701507568,0.08144320547580719,2.0777699947357178,-72.69287109375,67.0166015625,96.435546875
4.6888508796691895,1582680968,1,1.1964013576507568,0.07704867422580719,2.1141469478607178,-13.7939453125,77.7587890625,95.03173828125
4.713207006454468,1582680964,0,1.767362356185913,0.7694315314292908,2.1461610794067383,-112.85400390625,226.318359375,355.89599609375
4.71321177482605,1582680983,0,1.695340871810913,1.0982890129089355,1.8439151048660278,4.150390625,127.197265625,294.73876953125
4.718253135681152,1582680987,1,1.3858544826507568,0.03115023672580719,1.9339712858200073,-16.90673828125,48.15673828125,78.30810546875
4.732975006103516,1582681002,0,2.604764699935913,1.5213847160339355,1.2233096361160278,51.33056640625,100.89111328125,204.345703125
4.760426044464111,1582681023,1,1.2286279201507568,0.02382601797580719,2.0836293697357178,-47.36328125,-53.5888671875,134.21630859375
4.766473054885864,1582681021,0,1.758085012435913,0.9193338751792908,1.3741885423660278,-24.7802734375,176.8798828125,31.79931640625
4.766478061676025,1582681040,0,1.482694387435913,0.7230448126792908,1.4794131517410278,75.74462890625,140.5029296875,79.1015625
4.778934001922607,1582681042,1,1.1771142482757568,0.01015414297580719,1.6402701139450073,144.775390625,-4.0283203125,6.4697265625
4.793828010559082,1582681059,0,1.234403371810913,0.8055643439292908,1.5238467454910278,143.1884765625,100.7080078125,-17.76123046875
4.816547155380249,1582681061,1,1.0618798732757568,-0.09384976327419281,1.4842642545700073,230.712890625,-22.76611328125,-12.39013671875
4.817637205123901,1582681080,1,0.3987939655780792,0.532859206199646,0.9347036480903625,161.9873046875,-80.26123046875,2.197265625
4.824226140975952,1582681078,0,0.5566689372062683,-0.9839864373207092,0.9518252611160278,192.19970703125,8.6669921875,-13.73291015625
4.8388590812683105,1582681099,1,0.4891259968280792,0.375388503074646,0.9964712262153625,144.04296875,-102.72216796875,20.3857421875
4.8388731479644775,1582681118,1,0.2637841999530792,0.410300612449646,0.9085806012153625,171.32568359375,-124.57275390625,0.42724609375
4.86319899559021,1582681114,0,0.5119912028312683,0.09462685137987137,0.9191104173660278,266.9677734375,-108.88671875,-42.17529296875
4.863203048706055,1582681133,0,0.4909951090812683,0.13881629705429077,0.6439639329910278,153.9306640625,-99.67041015625,-62.56103515625
4.871410846710205,1582681137,1,0.2640283405780792,0.374900221824646,0.9618032574653625,200.62255859375,-134.46044921875,4.39453125
4.883946895599365,1582681152,0,0.1531044840812683,0.05458778887987137,0.6261416673660278,106.8115234375,-80.9326171875,-75.50048828125
4.898768901824951,1582681156,1,0.3223779499530792,0.1815408617258072,0.6434438824653625,187.43896484375,-110.9619140625,36.56005859375
4.898782968521118,1582681175,1,0.13634279370307922,0.1300271898508072,0.6195181012153625,204.7119140625,-108.5205078125,-35.09521484375
4.917557954788208,1582681171,0,-0.07052832096815109,0.06508583575487137,0.6612979173660278,125.732421875,-70.86181640625,-72.81494140625
4.917562961578369,1582681190,0,0.3513466715812683,0.33241981267929077,0.36491119861602783,89.41650390625,-102.4169921875,-114.56298828125
4.928550958633423,1582681194,1,0.21446779370307922,0.1629861742258072,0.49451813101768494,177.24609375,-105.95703125,-27.64892578125
4.943758010864258,1582681209,0,0.2546669840812683,0.23183387517929077,0.26261627674102783,65.61279296875,-114.80712890625,-130.43212890625
4.965667009353638,1582681213,1,0.24864748120307922,0.371482253074646,0.42274078726768494,148.0712890625,-98.388671875,-24.23095703125
4.973904848098755,1582681228,0,0.05032128840684891,0.11879677325487137,0.40714752674102783,-5.18798828125,-114.68505859375,-131.8359375
4.973926782608032,1582681247,0,-0.022432617843151093,0.19545692205429077,0.37101471424102783,-35.2783203125,-82.763671875,-90.14892578125
4.988829851150513,1582681232,1,0.22813966870307922,0.266257643699646,0.37537750601768494,127.685546875,-104.6142578125,-39.00146484375
4.988847017288208,1582681251,1,0.14464357495307922,0.310447096824646,0.30262359976768494,120.7275390625,-83.31298828125,-67.07763671875
5.014287948608398,1582681266,0,0.019803710281848907,0.22499793767929077,0.31266510486602783,-50.47607421875,-58.41064453125,-60.48583984375
5.014293909072876,1582681285,0,-0.04709082096815109,0.27822059392929077,0.29288971424102783,-64.88037109375,-40.8935546875,-51.7578125
5.018841981887817,1582681287,1,0.18175294995307922,0.290183424949646,0.25037750601768494,49.9267578125,-62.31689453125,-76.66015625
5.033025026321411,1582681304,0,-0.04709082096815109,0.22084754705429077,0.22379790246486664,-100.4638671875,-31.43310546875,-41.6259765625
5.0487940311431885,1582681306,1,0.07359865307807922,0.420554518699646,0.15931303799152374,21.42333984375,-54.13818359375,-91.6748046875
5.048807859420776,1582681325,1,0.020864278078079224,0.376120924949646,0.22718413174152374,-0.18310546875,-42.90771484375,-88.37890625
5.06632399559021,1582681323,0,-0.1467002034187317,0.21181434392929077,0.36466705799102783,-131.34765625,-2.74658203125,-20.44677734375
5.066328048706055,1582681342,0,-0.12033300846815109,0.09877724200487137,0.43131744861602783,-144.6533203125,12.8173828125,15.31982421875
5.078742027282715,1582681344,1,-0.035532206296920776,0.288230299949646,0.27552399039268494,-6.28662109375,-37.841796875,-88.07373046875
5.093178749084473,1582681378,0,-0.06100683659315109,0.30849403142929077,0.46671783924102783,-159.11865234375,48.88916015625,78.91845703125
5.117255926132202,1582681363,1,-0.07654783129692078,0.287742018699646,0.22547514736652374,-22.39990234375,-17.9443359375,-86.669921875
5.117260932922363,1582681382,1,-0.08338376879692078,0.375632643699646,0.26795563101768494,-58.2275390625,-4.638671875,-65.673828125
5.1237828731536865,1582681397,0,-0.025850586593151093,0.33388465642929077,0.49430572986602783,-173.15673828125,52.978515625,95.15380859375
5.1369898319244385,1582681401,1,-0.047983378171920776,0.377829909324646,0.32777008414268494,-84.47265625,-3.47900390625,-55.96923828125
5.163002014160156,1582681416,0,-0.03610449284315109,0.31703895330429077,0.5221377611160278,-179.6875,57.6171875,108.88671875
5.163007020950317,1582681435,0,-0.009249024093151093,0.32826942205429077,0.5848819017410278,-186.6455078125,51.7578125,109.9853515625
5.168735027313232,1582681420,1,-0.10169431567192078,0.436911940574646,0.34632477164268494,-107.36083984375,1.46484375,-49.37744140625
5.168763875961304,1582681439,1,-0.08362790942192078,0.475486159324646,0.46009430289268494,-128.7841796875,10.07080078125,-37.65869140625
5.183812141418457,1582681454,0,0.08157128840684891,0.40395301580429077,0.6439639329910278,-183.41064453125,38.9404296875,115.90576171875
5.198820114135742,1582681458,1,-0.06678220629692078,0.453025221824646,0.5765493512153625,-138.7939453125,15.13671875,-30.82275390625
5.1988890171051025,1582681477,1,-0.047739237546920776,0.474265456199646,0.6534536480903625,-163.75732421875,23.98681640625,-9.1552734375
5.21776008605957,1582681473,0,0.2732216715812683,0.47841590642929077,0.7445498704910278,-192.3828125,55.35888671875,118.71337890625
5.217764139175415,1582681492,0,0.2888466715812683,0.5611795783042908,0.8431826829910278,-213.7451171875,85.3271484375,113.95263671875
5.228596925735474,1582681496,1,-0.07215330004692078,0.324851393699646,0.7974966168403625,-163.87939453125,17.88330078125,-14.7705078125
5.242341756820679,1582681511,0,0.3520790934562683,0.5582498908042908,0.8424502611160278,-228.08837890625,119.44580078125,116.5771484375
5.2661168575286865,1582681515,1,-0.11536619067192078,0.353904128074646,0.8714712262153625,-159.912109375,25.81787109375,-8.36181640625
5.273841857910156,1582681530,0,0.2661415934562683,0.43788856267929077,0.7352725267410278,-222.71728515625,114.990234375,129.8828125
5.273899078369141,1582681549,0,0.3586708903312683,0.44765418767929077,0.8590518236160278,-211.9140625,102.783203125,163.87939453125
5.289031982421875,1582681551,1,0.11070802807807922,0.282615065574646,1.0506705045700073,-173.4619140625,24.2919921875,-5.55419921875
5.313055038452148,1582681568,0,0.3406044840812683,0.5460428595542908,0.9034854173660278,-210.8154296875,109.4970703125,184.5703125
5.31306004524231,1582681587,0,0.5591103434562683,0.5262674689292908,0.9530459642410278,-242.431640625,133.30078125,223.0224609375
5.318767786026001,1582681570,1,0.09532716870307922,0.265525221824646,1.1253775358200073,-195.068359375,18.9208984375,13.916015625
5.31878399848938,1582681589,1,0.17979982495307922,0.268210768699646,1.2406119108200073,-212.58544921875,10.498046875,20.1416015625
5.3336451053619385,1582681606,0,0.5451943278312683,0.5416483283042908,0.9974795579910278,-279.296875,175.47607421875,225.15869140625
5.347394943237305,1582681608,1,0.19298341870307922,0.326560378074646,1.2030142545700073,-220.458984375,8.11767578125,50.59814453125
5.347411870956421,1582681627,1,0.3321435749530792,0.2249978929758072,1.2948111295700073,-231.26220703125,7.50732421875,57.6171875
5.366628170013428,1582681642,0,0.6216103434562683,0.48281043767929077,1.1356631517410278,-309.4482421875,174.13330078125,281.1279296875
5.378818988800049,1582681646,1,0.3414209187030792,0.2037576586008072,1.4198111295700073,-212.890625,13.916015625,71.77734375
5.393775939941406,1582681661,0,0.9204384684562683,0.5638651251792908,1.4877139329910278,-277.9541015625,131.591796875,298.40087890625
5.41643500328064,1582681665,1,0.5665185451507568,0.06386508047580719,1.6832388639450073,-170.2880859375,32.65380859375,74.21875
5.416439056396484,1582681684,1,0.7012841701507568,0.1410135179758072,1.9622915983200073,-148.86474609375,18.61572265625,67.5048828125
5.423955917358398,1582681680,0,1.380887746810913,0.7686991095542908,1.8395205736160278,-189.02587890625,83.251953125,276.67236328125
5.423983812332153,1582681699,0,1.700711965560913,1.0011210441589355,1.6869326829910278,-116.51611328125,89.05029296875,232.7880859375
5.438771963119507,1582681703,1,0.9835107326507568,-0.01841031014919281,2.0494496822357178,-135.6201171875,-6.2255859375,95.64208984375
5.4623308181762695,1582681718,0,1.498319387435913,0.7577127814292908,1.4950381517410278,-83.251953125,176.08642578125,214.53857421875
5.46233606338501,1582681737,0,1.370633840560913,0.7696756720542908,1.2367373704910278,-42.90771484375,197.021484375,228.1494140625
5.468728065490723,1582681722,1,1.1299951076507568,0.1681131273508072,2.1344106197357178,-88.80615234375,-17.27294921875,103.57666015625
5.4687418937683105,1582681741,1,1.3179833889007568,-0.02036343514919281,2.0660512447357178,-31.3720703125,-24.5361328125,73.05908203125
5.483844041824341,1582681756,0,1.415067434310913,0.7625955939292908,1.1307803392410278,-4.57763671875,142.27294921875,191.34521484375
5.4987781047821045,1582681760,1,1.1346337795257568,0.07118929922580719,1.8873404264450073,28.3203125,-23.01025390625,55.5419921875
5.4998719692230225,1582681779,1,0.8448388576507568,0.1790994554758072,1.7569693326950073,91.00341796875,-27.83203125,64.75830078125
5.517786979675293,1582681775,0,1.300565481185913,0.43959754705429077,1.3121768236160278,30.6396484375,118.65234375,105.04150390625
5.517791986465454,1582681794,0,1.288602590560913,0.13735145330429077,1.6202822923660278,66.95556640625,118.7744140625,26.85546875
5.542970180511475,1582681813,0,1.120145559310913,0.30385535955429077,1.2736026048660278,96.74072265625,111.51123046875,-35.400390625
5.5658860206604,1582681815,1,0.6358544826507568,-0.02695523202419281,1.3165396451950073,197.509765625,-74.5849609375,28.01513671875
5.5658910274505615,1582681834,1,0.3345849812030792,0.2235330492258072,0.7213247418403625,123.9013671875,-94.78759765625,32.71484375
5.573941946029663,1582681832,0,0.8799111247062683,0.18495887517929077,1.1185733079910278,72.998046875,111.99951171875,-57.55615234375
5.57402491569519,1582681851,0,0.4790322184562683,0.10439247637987137,1.0326358079910278,75.0732421875,97.65625,-88.0126953125
5.588852882385254,1582681853,1,0.3499658405780792,-0.06650601327419281,1.1226919889450073,120.4833984375,-123.71826171875,29.84619140625
5.613656044006348,1582681870,0,0.3894326090812683,-0.005470804870128632,0.9642764329910278,94.66552734375,66.2841796875,-99.365234375
5.618898868560791,1582681872,1,0.2945459187030792,-0.409523606300354,1.3441275358200073,225.52490234375,-118.408203125,-1.28173828125
5.618948936462402,1582681891,1,-0.12122556567192078,0.262351393699646,0.5277212262153625,264.2822265625,-107.60498046875,31.1279296875
5.6335649490356445,1582681906,0,0.11575097590684891,-0.09897666424512863,0.9713565111160278,167.54150390625,11.3525390625,-120.91064453125
5.647375822067261,1582681910,1,0.2947900593280792,-0.03696499764919281,0.5853384137153625,257.26318359375,-121.7041015625,-5.31005859375
5.6474549770355225,1582681929,1,0.024038106203079224,0.2281717211008072,0.33045563101768494,221.0693359375,-111.38916015625,-40.4052734375
5.666433095932007,1582681925,0,0.1745888590812683,0.07363075762987137,0.6056338548660278,186.09619140625,-42.66357421875,-77.45361328125
5.666438817977905,1582681944,0,0.029325194656848907,0.11904091387987137,0.5858584642410278,124.32861328125,-92.46826171875,-39.4287109375
5.678601026535034,1582681948,1,0.08653810620307922,0.288474440574646,0.25233063101768494,130.0048828125,-105.95703125,-11.29150390625
5.693605184555054,1582681963,0,-0.1784384846687317,0.20156043767929077,0.6451846361160278,99.609375,-101.6845703125,-59.2041015625
5.716516017913818,1582681967,1,0.026479512453079224,0.400290846824646,0.44251617789268494,127.44140625,-95.64208984375,-33.99658203125
5.7165210247039795,1582681986,1,0.14024904370307922,0.480124831199646,0.22254545986652374,138.00048828125,-80.87158203125,-50.96435546875
5.7241411209106445,1582681982,0,-0.031221680343151093,0.26552528142929077,0.34855377674102783,78.79638671875,-107.11669921875,-53.89404296875
5.724170923233032,1582682001,0,-0.03390722721815109,0.21376746892929077,0.44279205799102783,40.34423828125,-111.75537109375,-90.02685546875
5.74147891998291,1582682005,1,0.09044435620307922,0.438132643699646,0.20789702236652374,108.45947265625,-84.65576171875,-57.861328125
5.762074947357178,1582682020,0,-0.1733115315437317,0.14614051580429077,0.35026276111602783,31.982421875,-90.02685546875,-59.6923828125
5.76882004737854,1582682024,1,0.12779787182807922,0.410544753074646,0.17615874111652374,73.18115234375,-67.87109375,-63.8427734375
5.768851041793823,1582682043,1,0.06822755932807922,0.490134596824646,0.22962553799152374,43.76220703125,-54.3212890625,-76.23291015625
5.783869981765747,1582682039,0,-0.1405966877937317,0.16762489080429077,0.37467682361602783,-9.6435546875,-80.6884765625,-12.51220703125
5.7839438915252686,1582682058,0,-0.10983496159315109,0.30556434392929077,0.35392487049102783,-50.537109375,-52.3681640625,4.39453125
5.799206972122192,1582682079,1,0.0030420124530792236,0.352927565574646,0.38953766226768494,-17.51708984375,-46.2646484375,-86.42578125
5.818502902984619,1582682077,0,-0.11203222721815109,0.40785926580429077,0.37174713611602783,-94.6044921875,-17.76123046875,19.59228515625
5.818509101867676,1582682096,0,-0.11569433659315109,0.35024207830429077,0.38200104236602783,-115.234375,15.2587890625,44.73876953125
5.828763961791992,1582682098,1,0.043081074953079224,0.370993971824646,0.37903961539268494,-21.30126953125,-35.46142578125,-85.87646484375
5.843785047531128,1582682115,0,-0.06320410221815109,0.31850379705429077,0.44279205799102783,-123.10791015625,29.11376953125,64.63623046875
5.863707780838013,1582682117,1,0.018667012453079224,0.412742018699646,0.29700836539268494,-32.28759765625,-18.61572265625,-86.5478515625
5.8637120723724365,1582682136,1,-0.032846659421920776,0.432517409324646,0.33094391226768494,-55.6640625,-6.34765625,-70.37353515625
5.8740479946136475,1582682134,0,-0.05783300846815109,0.40151160955429077,0.44108307361602783,-126.15966796875,26.55029296875,85.51025390625
5.888921022415161,1582682155,1,-0.048227518796920776,0.508201003074646,0.33729156851768494,-67.32177734375,1.708984375,-61.21826171875
5.913238048553467,1582682170,0,-0.008760742843151093,0.47963660955429077,0.5375186204910278,-142.08984375,20.6298828125,116.0888671875
5.919013023376465,1582682174,1,-0.07532712817192078,0.495261549949646,0.38880524039268494,-103.6376953125,13.12255859375,-40.71044921875
5.9190709590911865,1582682193,1,-0.033579081296920776,0.452292799949646,0.5389516949653625,-128.5400390625,15.19775390625,-35.5224609375
5.934009075164795,1582682189,0,0.06301660090684891,0.46596473455429077,0.5843936204910278,-144.4091796875,29.23583984375,126.52587890625
5.934063911437988,1582682208,0,0.1487099528312683,0.49599403142929077,0.5892764329910278,-148.13232421875,44.5556640625,129.0283203125
5.949144124984741,1582682212,1,-0.08704587817192078,0.457908034324646,0.47962555289268494,-141.90673828125,19.83642578125,-28.4423828125
5.96641993522644,1582682227,0,0.2314736247062683,0.5423807501792908,0.6576358079910278,-164.36767578125,57.6171875,120.78857421875
5.966425180435181,1582682246,0,0.2326943278312683,0.6261209845542908,0.6522647142410278,-192.626953125,86.42578125,107.0556640625
5.978736877441406,1582682231,1,0.028432637453079224,0.337058424949646,0.6685903668403625,-149.0478515625,21.78955078125,-38.39111328125
5.978771924972534,1582682250,1,-0.005014628171920776,0.294333815574646,0.8551138043403625,-140.5029296875,30.57861328125,-41.015625
5.993872880935669,1582682265,0,0.2803017497062683,0.6395487189292908,0.7479678392410278,-219.66552734375,106.201171875,105.46875
6.0164899826049805,1582682269,1,0.09410646557807922,0.295310378074646,0.8809927105903625,-157.2265625,25.0244140625,-14.70947265625
6.016494989395142,1582682288,1,0.08800294995307922,0.481589674949646,1.0245474576950073,-184.5703125,-7.9345703125,15.93017578125
6.024016857147217,1582682284,0,0.3955361247062683,0.35317176580429077,0.6100283861160278,-195.49560546875,103.759765625,141.90673828125
6.024075031280518,1582682303,0,0.2920204997062683,0.6129373908042908,0.7465029954910278,-186.767578125,75.50048828125,171.20361328125
6.039648056030273,1582682307,1,0.10436037182807922,0.380515456199646,1.1129263639450073,-167.54150390625,22.94921875,7.26318359375
6.061411142349243,1582682322,0,0.5591103434562683,0.6795877814292908,0.8346377611160278,-180.2978515625,107.2998046875,178.28369140625
6.06886887550354,1582682343,1,0.2803857624530792,0.369284987449646,1.2340201139450073,-220.458984375,-21.66748046875,18.310546875
6.0839948654174805,1582682341,0,0.4858681559562683,0.7577127814292908,0.8050967454910278,-245.60546875,149.10888671875,175.9033203125
6.084079027175903,1582682360,0,0.6067177653312683,0.7301248908042908,0.9327822923660278,-310.72998046875,204.52880859375,185.11962890625
6.096246957778931,1582682362,1,0.13634279370307922,0.460105299949646,1.3726919889450073,-229.43115234375,-23.193359375,57.92236328125
6.118072986602783,1582682379,0,0.5542275309562683,0.6510233283042908,1.1185733079910278,-334.3505859375,225.40283203125,194.03076171875
6.118076801300049,1582682398,0,0.7004677653312683,0.6942362189292908,1.1427432298660278,-320.00732421875,197.08251953125,234.19189453125
6.128756046295166,1582682381,1,0.3692529499530792,0.1700662523508072,1.4366568326950073,-208.0078125,-23.25439453125,83.67919921875
6.128817796707153,1582682400,1,0.5211083889007568,0.1280740648508072,1.4408072233200073,-171.93603515625,8.48388671875,92.6513671875
6.164785861968994,1582682419,1,0.6356103420257568,0.1971658617258072,1.6056021451950073,-169.12841796875,9.765625,120.54443359375
6.164791107177734,1582682438,1,0.9232079982757568,0.03188265860080719,1.7948111295700073,-174.74365234375,-19.47021484375,141.4794921875
6.176100015640259,1582682434,0,1.329862356185913,0.9959940314292908,1.5167666673660278,-198.6083984375,148.62060546875,205.56640625
6.17610502243042,1582682453,0,1.199979543685913,0.8861307501792908,1.3854190111160278,-141.66259765625,123.47412109375,183.53271484375
6.188881874084473,1582682457,1,1.0965478420257568,-0.2149435132741928,1.9671744108200073,-123.22998046875,-12.5732421875,138.5498046875
6.213887929916382,1582682472,0,1.123563528060913,0.7423319220542908,1.2198916673660278,-88.31787109375,134.27734375,194.64111328125
6.218888998031616,1582682476,1,1.1392724514007568,-0.2159200757741928,2.0233266353607178,-16.05224609375,0.54931640625,117.37060546875
6.2189719676971436,1582682495,1,1.0833642482757568,-0.08628140389919281,1.7010611295700073,48.4619140625,-4.150390625,102.783203125
6.233785152435303,1582682491,0,1.325956106185913,0.8377909064292908,1.2132998704910278,-45.41015625,162.90283203125,190.12451171875
6.233824968338013,1582682510,0,1.323758840560913,0.6651834845542908,1.1642276048660278,-33.38623046875,184.6923828125,131.34765625
6.260420799255371,1582682514,1,0.9764306545257568,-0.05478726327419281,1.5511587858200073,63.96484375,-24.96337890625,99.4873046875
6.2661449909210205,1582682529,0,1.125760793685913,0.36611121892929077,1.2653018236160278,-31.3720703125,186.1572265625,72.69287109375
6.2661497592926025,1582682548,0,0.9944130778312683,0.25917762517929077,1.2587100267410278,7.32421875,174.6826171875,39.9169921875
6.278752088546753,1582682533,1,0.9012353420257568,-0.03452359139919281,1.2791861295700073,73.2421875,-51.6357421875,67.93212890625
6.2787840366363525,1582682552,1,0.7664697170257568,-0.06015835702419281,1.1588248014450073,86.24267578125,-66.7724609375,24.96337890625
6.29375696182251,1582682567,0,0.9035927653312683,0.46425575017929077,1.2303897142410278,76.96533203125,123.71826171875,-10.43701171875
6.317935943603516,1582682571,1,0.6478173732757568,-0.09873257577419281,1.0308951139450073,148.8037109375,-82.94677734375,-9.765625
6.323883056640625,1582682586,0,0.5725380778312683,0.11415810137987137,1.0184756517410278,90.27099609375,69.88525390625,-37.7197265625
6.3239428997039795,1582682605,0,0.5744912028312683,0.12880653142929077,0.9549990892410278,84.5947265625,77.57568359375,-57.31201171875
6.340610980987549,1582682607,1,0.3226220905780792,0.05434359610080719,0.9852407574653625,126.46484375,-104.55322265625,-21.17919921875
6.362035036087036,1582682624,0,0.3125283122062683,0.12172646075487137,0.8800479173660278,85.693359375,76.0498046875,-84.3505859375
6.3674328327178955,1582682626,1,0.3030908405780792,-0.310890793800354,1.2315787076950073,151.79443359375,-110.83984375,-25.7568359375
6.367469072341919,1582682645,1,0.057485371828079224,0.1727517992258072,0.7030141949653625,172.8515625,-104.8583984375,-10.1318359375
6.383896112442017,1582682643,0,0.2700478434562683,0.22377723455429077,0.8983584642410278,80.26123046875,81.1767578125,-108.3984375
6.383924961090088,1582682662,0,0.025663085281848907,0.12367958575487137,0.9820986986160278,104.3701171875,43.9453125,-99.12109375
6.398629188537598,1582682664,1,0.20909669995307922,0.09706820547580719,0.7435415387153625,173.15673828125,-111.02294921875,-46.69189453125
6.421085834503174,1582682698,0,0.10427636653184891,0.27187293767929077,0.6864444017410278,123.84033203125,-16.05224609375,-71.8994140625
6.428804874420166,1582682683,1,0.15050294995307922,0.256247878074646,0.6385610699653625,175.23193359375,-96.0693359375,-60.1806640625
6.428856134414673,1582682702,1,0.13561037182807922,0.277243971824646,0.5416372418403625,153.1982421875,-99.12109375,-57.18994140625
6.443674802780151,1582682717,0,-0.1935752034187317,0.36000770330429077,0.5592471361160278,114.8681640625,-51.513671875,-80.810546875
6.466287136077881,1582682721,1,0.12120607495307922,0.352927565574646,0.5728872418403625,163.57421875,-97.412109375,-66.83349609375
6.472455978393555,1582682736,0,-0.2914755940437317,0.27358192205429077,0.49723541736602783,90.27099609375,-94.66552734375,-37.17041015625
6.47254204750061,1582682755,0,0.025907225906848907,0.49892371892929077,0.44205963611602783,63.65966796875,-104.4921875,-49.13330078125
6.488083839416504,1582682740,1,0.2635400593280792,0.293357253074646,0.48011383414268494,181.7626953125,-94.8486328125,-56.7626953125
6.48812198638916,1582682759,1,0.2610986530780792,0.254050612449646,0.20643217861652374,140.19775390625,-83.06884765625,-87.2802734375
6.513622999191284,1582682774,0,-0.1662314534187317,0.27602332830429077,0.46964752674102783,54.5654296875,-102.9052734375,-56.21337890625
6.5188939571380615,1582682778,1,0.06383302807807922,0.579978346824646,0.15711577236652374,93.1396484375,-71.6552734375,-84.716796875
6.518898010253906,1582682797,1,0.14854982495307922,0.475730299949646,0.29798492789268494,61.5234375,-57.2509765625,-74.03564453125
6.533935070037842,1582682793,0,-0.2228720784187317,0.24428504705429077,0.40861237049102783,41.1376953125,-134.33837890625,-18.1884765625
6.533998012542725,1582682812,0,-0.2292197346687317,0.33803504705429077,0.40714752674102783,18.85986328125,-115.17333984375,8.056640625
6.5487260818481445,1582682816,1,0.11314943432807922,0.420554518699646,0.22596342861652374,58.89892578125,-46.875,-112.1826171875
6.568057060241699,1582682831,0,-0.1547568440437317,0.5306620001792908,0.26090729236602783,-30.70068359375,-97.47314453125,33.87451171875
6.5770509243011475,1582682835,1,0.027700215578079224,0.500632643699646,0.28504547476768494,47.79052734375,-34.11865234375,-121.52099609375
6.5921289920806885,1582682850,0,-0.09030371159315109,0.38759559392929077,0.31486237049102783,-77.81982421875,-72.8759765625,20.44677734375
6.592191934585571,1582682869,0,-0.03756933659315109,0.31484168767929077,0.48112213611602783,-105.77392578125,-30.3955078125,42.17529296875
6.616031885147095,1582682871,1,-0.051645487546920776,0.415427565574646,0.31409820914268494,27.2216796875,-12.0849609375,-116.69921875
6.623950004577637,1582682888,0,-0.06564550846815109,0.47060340642929077,0.42472565174102783,-129.150390625,14.0380859375,74.89013671875
6.624032020568848,1582682907,0,-0.03976660221815109,0.46620887517929077,0.5143252611160278,-156.73828125,42.236328125,101.37939453125
6.638741970062256,1582682890,1,-0.14832517504692078,0.588279128074646,0.26868805289268494,-1.89208984375,-9.70458984375,-102.294921875
6.6387739181518555,1582682909,1,-0.052377909421920776,0.585105299949646,0.31531891226768494,-50.47607421875,-12.0849609375,-84.16748046875
6.662498950958252,1582682926,0,-0.06442480534315109,0.44570106267929077,0.5372744798660278,-171.08154296875,36.376953125,129.57763671875
6.668694972991943,1582682928,1,-0.058237284421920776,0.554831862449646,0.23450835049152374,-69.15283203125,-7.01904296875,-90.75927734375
6.668724060058594,1582682947,1,-0.09388181567192078,0.636130690574646,0.29529938101768494,-85.3271484375,-3.72314453125,-92.041015625
6.682288885116577,1582682962,0,0.009305663406848907,0.5094217658042908,0.6398135423660278,-151.611328125,20.8740234375,139.58740234375
6.698563098907471,1582682966,1,-0.12000486254692078,0.548972487449646,0.43226227164268494,-108.642578125,-21.3623046875,-99.30419921875
6.717895984649658,1582682981,0,0.10574121028184891,0.46157020330429077,0.6561709642410278,-147.216796875,31.25,141.41845703125
6.728774785995483,1582682985,1,-0.14490720629692078,0.476462721824646,0.46229156851768494,-131.103515625,-22.15576171875,-87.46337890625
6.728790998458862,1582683004,1,-0.14148923754692078,0.255515456199646,0.5431020855903625,-131.591796875,-8.60595703125,-114.56298828125
6.743788003921509,1582683000,0,0.12429589778184891,0.5296854376792908,0.6940127611160278,-161.31591796875,52.24609375,157.40966796875
6.743818998336792,1582683019,0,0.1826454997062683,0.5628885626792908,0.7765322923660278,-180.48095703125,66.22314453125,179.443359375
6.764753818511963,1582683023,1,-0.17566892504692078,0.298484206199646,0.8709829449653625,-131.77490234375,11.53564453125,-114.3798828125
6.774944067001343,1582683038,0,0.1987587809562683,0.6024393439292908,0.8248721361160278,-161.07177734375,72.6318359375,203.4912109375
6.774954080581665,1582683057,0,0.3630654215812683,0.49208778142929077,0.6571475267410278,-138.36669921875,65.5517578125,212.890625
6.788103818893433,1582683042,1,-0.18006345629692078,0.526755690574646,0.9083364605903625,-138.5498046875,-3.2958984375,-82.82470703125
6.78816294670105,1582683061,1,-0.21766111254692078,0.314841628074646,1.1185415983200073,-137.6953125,6.40869140625,-56.396484375
6.81490683555603,1582683076,0,0.8896767497062683,0.13686317205429077,0.45744049549102783,-156.67724609375,74.15771484375,209.89990234375
6.818988084793091,1582683080,1,-0.2838232219219208,0.803855299949646,1.0777701139450073,-166.32080078125,27.52685546875,-6.16455078125
6.8189918994903564,1582683099,1,-0.3053075969219208,0.609275221824646,1.0997427701950073,-220.21484375,19.4091796875,27.4658203125
6.833680868148804,1582683095,0,0.5676552653312683,0.5956034064292908,1.0367861986160278,-219.66552734375,147.8271484375,225.03662109375
6.833766937255859,1582683114,0,0.6091591715812683,0.6153787970542908,1.0096865892410278,-256.16455078125,192.32177734375,251.3427734375
6.866100072860718,1582683133,0,0.7424599528312683,0.5453104376792908,1.1188174486160278,-238.22021484375,193.4814453125,284.3017578125
6.877429962158203,1582683135,1,-0.06849119067192078,0.484519362449646,1.4195669889450073,-246.58203125,-31.55517578125,45.22705078125
6.87744402885437,1582683154,1,0.14195802807807922,0.338279128074646,1.6522330045700073,-226.13525390625,-33.5693359375,68.90869140625
6.893009901046753,1582683152,0,0.9472939372062683,0.6734842658042908,1.1656924486160278,-193.90869140625,169.921875,287.65869140625
6.893089056015015,1582683171,0,1.210965871810913,0.7264627814292908,1.1722842454910278,-163.0859375,135.43701171875,276.611328125
6.914825916290283,1582683173,1,0.3267724812030792,0.316306471824646,1.8040884733200073,-198.6083984375,-25.146484375,101.07421875
6.923862934112549,1582683190,0,1.488309621810913,0.8102030158042908,1.2311221361160278,-136.16943359375,132.01904296875,267.63916015625
6.940507888793945,1582683192,1,0.5555322170257568,0.364158034324646,1.8521841764450073,-172.42431640625,-26.67236328125,125.42724609375
6.940514087677002,1582683211,1,0.7503564357757568,0.353415846824646,1.7271841764450073,-186.5234375,-43.76220703125,150.20751953125
6.9623401165008545,1582683226,0,1.552762746810913,0.7569803595542908,1.0077334642410278,-61.8896484375,138.18359375,258.7890625
6.981657028198242,1582683245,0,1.526639699935913,0.7374491095542908,0.8597842454910278,4.82177734375,150.57373046875,204.77294921875
6.98233699798584,1582683264,0,1.563016653060913,0.46157020330429077,0.6991397142410278,7.50732421875,131.9580078125,146.78955078125
6.998805046081543,1582683230,1,0.9586083889007568,0.2386697679758072,1.9718130826950073,-165.83251953125,-45.22705078125,173.88916015625
6.998837947845459,1582683249,1,0.8809716701507568,-0.00937710702419281,2.2584340572357178,-72.509765625,-22.15576171875,176.20849609375
7.011245012283325,1582683268,1,0.8900048732757568,-0.11289273202419281,1.8827017545700073,33.75244140625,0.06103515625,140.380859375
7.018202781677246,1582683283,0,1.545194387435913,0.5172342658042908,0.8187686204910278,17.2119140625,158.935546875,82.82470703125
7.028681039810181,1582683287,1,0.9778954982757568,0.1935037523508072,1.4981802701950073,110.595703125,-16.17431640625,122.49755859375
7.028709888458252,1582683306,1,0.8809716701507568,0.11513461172580719,1.1656607389450073,106.26220703125,-46.20361328125,89.599609375
7.044600963592529,1582683302,0,1.490262746810913,0.34291785955429077,0.8241397142410278,37.04833984375,151.42822265625,39.794921875
7.04460597038269,1582683321,0,1.250760793685913,0.17519325017929077,0.7677432298660278,31.25,99.79248046875,21.8505859375
7.065871000289917,1582683325,1,0.7759912014007568,0.06728304922580719,1.2240103483200073,108.7646484375,-72.1435546875,65.85693359375
7.074779987335205,1582683340,0,1.072538137435913,0.15907996892929077,0.7779971361160278,64.14794921875,64.39208984375,-37.59765625
7.0873191356658936,1582683344,1,0.4610498249530792,0.00136508047580719,0.9005239605903625,125.42724609375,-77.94189453125,49.31640625
7.087337970733643,1582683363,1,0.3602197468280792,-0.06357632577419281,1.0382193326950073,104.3701171875,-102.72216796875,43.9453125
7.112662076950073,1582683359,0,0.8301064372062683,0.16567176580429077,0.7826358079910278,68.54248046875,34.36279296875,-62.56103515625
7.112667798995972,1582683378,0,0.8113076090812683,0.09877724200487137,0.7665225267410278,79.04052734375,20.8740234375,-76.66015625
7.1189680099487305,1582683399,1,0.18858888745307922,0.03627718985080719,1.1629751920700073,229.43115234375,-129.5166015625,-5.0048828125
7.133871078491211,1582683397,0,0.7890908122062683,0.05190224200487137,0.8192569017410278,86.3037109375,16.54052734375,-73.79150390625
7.133953094482422,1582683416,0,0.7195107340812683,0.12660926580429077,0.9122744798660278,103.759765625,-1.0986328125,-121.2158203125
7.148745059967041,1582683418,1,0.22813966870307922,0.06166781485080719,0.8455923199653625,212.158203125,-123.84033203125,31.1279296875
7.166033983230591,1582683435,0,0.5273720622062683,0.12001747637987137,0.7198916673660278,148.3154296875,-37.17041015625,-123.4130859375
7.178738832473755,1582683437,1,0.2654931843280792,0.1300271898508072,0.8285024762153625,218.81103515625,-149.35302734375,-11.16943359375
7.17877197265625,1582683456,1,0.15270021557807922,0.259421706199646,0.6090200543403625,224.2431640625,-140.2587890625,-16.4794921875
7.192453861236572,1582683454,0,0.2568642497062683,0.29653114080429077,0.6334658861160278,122.98583984375,-79.1015625,-116.51611328125
7.215328931808472,1582683475,1,0.18858888745307922,0.388083815574646,0.5120962262153625,187.01171875,-131.16455078125,-19.287109375
7.223813772201538,1582683490,0,0.2720009684562683,0.39296668767929077,0.45866119861602783,9.09423828125,-92.8955078125,-124.57275390625
7.23885703086853,1582683494,1,0.2693994343280792,0.456443190574646,0.35657867789268494,148.5595703125,-135.6201171875,-30.6396484375
7.238890886306763,1582683513,1,0.2576806843280792,0.421042799949646,0.32117828726768494,123.779296875,-140.380859375,-47.7294921875
7.262071132659912,1582683509,0,0.2109658122062683,0.10121864825487137,0.37003815174102783,-14.0380859375,-94.482421875,-152.03857421875
7.2620768547058105,1582683528,0,0.014676757156848907,0.29335731267929077,0.33683502674102783,0.1220703125,-115.66162109375,-104.6142578125
7.268584966659546,1582683532,1,0.22203615307807922,0.397605299949646,0.22816069424152374,122.98583984375,-122.25341796875,-68.17626953125
7.283876180648804,1582683547,0,-0.04196386784315109,0.30629676580429077,0.29240143299102783,0.3662109375,-124.32861328125,-93.6279296875
7.283908843994141,1582683566,0,-0.1264365315437317,0.31850379705429077,0.17008696496486664,-41.259765625,-128.662109375,-72.509765625
7.297259092330933,1582683551,1,0.19737794995307922,0.451560378074646,0.13270170986652374,99.9755859375,-118.46923828125,-95.39794921875
7.297316074371338,1582683570,1,0.17076662182807922,0.504783034324646,0.08240874111652374,69.27490234375,-106.689453125,-103.08837890625
7.326413154602051,1582683589,1,0.09825685620307922,0.428855299949646,0.08924467861652374,43.76220703125,-95.88623046875,-113.525390625
7.345574855804443,1582683585,0,-0.1474326252937317,0.23549598455429077,0.24674712121486664,-88.31787109375,-116.943359375,-53.40576171875
7.3455810546875,1582683604,0,-0.2050498127937317,0.23085731267929077,0.30558502674102783,-113.46435546875,-87.09716796875,-33.0810546875
7.345585823059082,1582683623,0,-0.3066123127937317,0.23866981267929077,0.25944244861602783,-126.64794921875,-66.162109375,-4.21142578125
7.3657050132751465,1582683608,1,-0.0006200969219207764,0.474509596824646,0.10560210049152374,28.9306640625,-86.5478515625,-123.22998046875
7.365710973739624,1582683627,1,-0.010874003171920776,0.464255690574646,0.012096244841814041,15.44189453125,-67.87109375,-129.57763671875
7.375363111495972,1582683642,0,-0.3100302815437317,0.31679481267929077,0.38444244861602783,-143.00537109375,-43.39599609375,31.005859375
7.387372016906738,1582683663,1,-0.12342283129692078,0.605124831199646,-0.03282563015818596,-12.26806640625,-29.72412109375,-110.7177734375
7.413640022277832,1582683661,0,-0.3639853596687317,0.31825965642929077,0.43082916736602783,-163.26904296875,-20.3857421875,67.87109375
7.413645029067993,1582683680,0,-0.3175986409187317,0.35805457830429077,0.5182315111160278,-183.53271484375,-2.01416015625,94.05517578125
7.419049024581909,1582683682,1,-0.21863767504692078,0.558249831199646,-0.008899848908185959,-16.11328125,-9.6435546875,-117.00439453125
7.433978080749512,1582683699,0,-0.3237021565437317,0.29726356267929077,0.5162783861160278,-189.453125,8.6669921875,106.38427734375
7.434046983718872,1582683718,0,-0.2990439534187317,0.29116004705429077,0.5128604173660278,-176.3916015625,5.615234375,136.41357421875
7.448885917663574,1582683701,1,-0.2760107219219208,0.514060378074646,-0.008167427033185959,-23.74267578125,6.103515625,-126.89208984375
7.448908090591431,1582683720,1,-0.2923681437969208,0.490134596824646,0.03724272921681404,-23.3154296875,25.87890625,-136.5966796875
7.478604078292847,1582683739,1,-0.2957861125469208,0.455954909324646,0.05164702609181404,-14.892578125,54.62646484375,-151.42822265625
7.4786810874938965,1582683758,1,-0.3675634562969208,0.414451003074646,0.11243803799152374,-14.95361328125,74.3408203125,-164.794921875
7.49231481552124,1582683754,0,-0.1286337971687317,0.33925575017929077,0.5726748704910278,-148.62060546875,4.0283203125,195.49560546875
7.492369890213013,1582683773,0,-0.05661230534315109,0.30019325017929077,0.6481143236160278,-156.31103515625,25.390625,230.77392578125
7.515601873397827,1582683777,1,-0.4173681437969208,0.349265456199646,0.22816069424152374,-23.86474609375,85.63232421875,-177.06298828125
7.523780822753906,1582683792,0,0.04006738215684891,0.30483192205429077,0.5892764329910278,-174.01123046875,45.0439453125,262.26806640625
7.5631020069122314,1582683811,0,0.1741005778312683,0.30116981267929077,0.6327334642410278,-209.716796875,67.87109375,296.630859375
7.563110828399658,1582683830,0,0.2932412028312683,0.27455848455429077,0.7487002611160278,-220.64208984375,83.19091796875,337.34130859375
7.5680718421936035,1582683796,1,-0.4085790812969208,0.1869119554758072,0.34266266226768494,-26.18408203125,84.53369140625,-203.43017578125
7.568150043487549,1582683815,1,-0.3385107219219208,0.01991976797580719,0.42298492789268494,-19.95849609375,91.1865234375,-261.474609375
7.5681610107421875,1582683834,1,-0.4932958781719208,-0.04550991952419281,0.48011383414268494,-11.1083984375,87.82958984375,-331.72607421875
7.583932876586914,1582683849,0,0.5742470622062683,0.16689246892929077,0.8187686204910278,-210.8154296875,95.703125,391.11328125
7.584007978439331,1582683868,0,0.7090126872062683,0.03749794512987137,0.8226748704910278,-195.4345703125,99.42626953125,448.486328125
7.59714412689209,1582683853,1,-0.7457373142242432,0.04531039297580719,0.48621734976768494,-12.39013671875,82.3974609375,-354.00390625
7.597172021865845,1582683872,1,-0.8009130954742432,-0.00840054452419281,0.5086782574653625,-18.37158203125,95.52001953125,-342.46826171875
7.617671012878418,1582683887,0,1.005887746810913,-0.12241416424512863,0.8744326829910278,-160.46142578125,108.33740234375,526.2451171875
7.62851881980896,1582683891,1,-0.7979834079742432,-0.258888840675354,0.6021841168403625,-17.9443359375,125.79345703125,-353.94287109375
7.643702030181885,1582683906,0,1.169950246810913,-0.46225792169570923,0.9872256517410278,-159.60693359375,137.451171875,646.484375
7.6437859535217285,1582683925,0,1.941190481185913,-0.09092002362012863,1.4105654954910278,-141.66259765625,209.3505859375,637.26806640625
7.665365934371948,1582683927,1,-1.0252783298492432,-0.2295919507741928,0.7642934918403625,35.5224609375,168.15185546875,-382.26318359375
7.674880027770996,1582683944,0,2.733426809310913,0.30483192205429077,1.0106631517410278,-84.16748046875,227.60009765625,496.09375
7.688766002655029,1582683946,1,-0.7476904392242432,-0.717384934425354,0.7701528668403625,40.6494140625,215.14892578125,-470.21484375
7.688794136047363,1582683965,1,-1.0401709079742432,-1.133156418800354,1.5164908170700073,186.5234375,140.625,-691.650390625
7.712755918502808,1582683963,0,2.530790090560913,-0.03159385174512863,1.0323916673660278,0.9765625,137.451171875,324.3408203125
7.712759971618652,1582683982,0,2.312528371810913,-0.09873252362012863,0.8268252611160278,21.728515625,-16.17431640625,296.93603515625
7.7187819480896,1582683984,1,-1.4527685642242432,-0.915382981300354,1.2381705045700073,257.38525390625,169.37255859375,-693.9697265625
7.73204493522644,1582684018,0,2.617948293685913,-0.07627158612012863,1.3329287767410278,91.064453125,101.98974609375,256.16455078125
7.749002933502197,1582684003,1,-1.6744482517242432,-1.242287278175354,1.5521353483200073,261.29150390625,142.15087890625,-706.4208984375
7.749050140380859,1582684022,1,-2.179819345474243,-1.218117356300354,1.7269400358200073,323.1201171875,51.7578125,-741.51611328125
7.76612401008606,1582684037,0,2.615018606185913,-0.33603721857070923,1.1935244798660278,119.32373046875,194.2138671875,176.45263671875
7.778618812561035,1582684041,1,-2.489633798599243,-1.726418137550354,2.0130727291107178,355.65185546875,-51.6357421875,-697.3876953125
7.793826103210449,1582684056,0,2.772489309310913,-0.06723838299512863,1.1857119798660278,219.6044921875,177.79541015625,77.880859375
7.793860197067261,1582684075,0,2.862821340560913,-0.6722188591957092,1.3844424486160278,239.8681640625,106.8115234375,23.62060546875
7.815479040145874,1582684060,1,-2.502817392349243,-1.455666184425354,2.2987172603607178,429.01611328125,-144.1650390625,-704.65087890625
7.815483808517456,1582684079,1,-2.834604501724243,-1.437843918800354,1.9740103483200073,571.71630859375,-189.02587890625,-546.0205078125
7.823931932449341,1582684094,0,2.918241262435913,-0.7242208123207092,1.6278506517410278,247.13134765625,110.595703125,-58.89892578125
7.840356111526489,1582684098,1,-2.667124032974243,-2.7417988777160645,2.2186391353607178,649.90234375,-217.7734375,-404.23583984375
7.840367794036865,1582684117,1,-2.030893564224243,-2.2681660652160645,2.0658071041107178,690.49072265625,-329.833984375,-360.29052734375
7.8628740310668945,1582684113,0,2.374540090560913,-0.7042012810707092,1.4366885423660278,252.197265625,166.259765625,-135.68115234375
7.862879037857056,1582684132,0,2.218534231185913,-0.26938682794570923,1.1573916673660278,234.2529296875,105.712890625,-168.8232421875
7.868563890457153,1582684136,1,-1.9928076267242432,-2.2867207527160645,1.3194693326950073,531.55517578125,-392.27294921875,-278.3203125
7.883703947067261,1582684151,0,1.153104543685913,-1.1146016120910645,1.3837100267410278,281.982421875,64.51416015625,-215.51513671875
7.897752046585083,1582684155,1,-1.2596533298492432,-2.7039570808410645,1.0999869108200073,404.84619140625,-326.59912109375,-262.63427734375
7.9183030128479,1582684170,0,0.9929482340812683,-0.7413106560707092,0.8641787767410278,322.44873046875,31.3720703125,-122.00927734375
7.9183080196380615,1582684189,0,-0.04464941471815109,-1.4332051277160645,0.5536319017410278,236.02294921875,-39.9169921875,-60.60791015625
7.928573846817017,1582684191,1,-1.8433935642242432,-1.039406418800354,1.2877310514450073,438.3544921875,-181.396484375,-63.29345703125
7.943691968917847,1582684208,0,0.4455849528312683,-0.33115440607070923,0.5892764329910278,170.59326171875,-88.68408203125,-130.2490234375
7.9437339305877686,1582684227,0,0.3796669840812683,-0.46592003107070923,0.38126862049102783,171.5087890625,-130.2490234375,-93.81103515625
7.964989900588989,1582684210,1,-1.1485693454742432,-1.834816575050354,1.9459341764450073,384.70458984375,-244.873046875,146.42333984375
7.9649951457977295,1582684229,1,-1.1678564548492432,-1.394386887550354,1.0601919889450073,377.86865234375,-261.23046875,236.75537109375
7.974994897842407,1582684246,0,0.5918251872062683,-0.38950401544570923,0.23722563683986664,128.11279296875,-139.58740234375,-153.3203125
7.989285945892334,1582684248,1,-0.3983251750469208,-1.947121262550354,0.6178091168403625,297.66845703125,-199.0966796875,159.85107421875
7.989306926727295,1582684267,1,-0.4867040812969208,-0.671730637550354,0.5240591168403625,310.24169921875,-104.736328125,119.7509765625
8.012394905090332,1582684282,0,0.6977822184562683,-0.35263878107070923,0.21793852746486664,8.11767578125,-107.97119140625,-292.3583984375
8.01882791519165,1582684286,1,0.21300294995307922,-0.425392746925354,0.7889516949653625,266.9677734375,-148.62060546875,50.4150390625
8.033793926239014,1582684301,0,0.3186318278312683,-0.7930684685707092,0.5663272142410278,18.85986328125,-118.22509765625,-289.55078125
8.048949003219604,1582684305,1,-0.8350927829742432,0.274802565574646,0.7962759137153625,345.39794921875,-123.4130859375,245.1171875
8.04898190498352,1582684324,1,-0.5919287204742432,-0.537209153175354,0.6534536480903625,311.34033203125,-173.88916015625,418.15185546875
8.066095113754272,1582684320,0,-0.06588964909315109,-0.6683126091957092,0.8099795579910278,36.4990234375,-95.947265625,-228.45458984375
8.066390037536621,1582684339,0,-0.1657431721687317,-0.32871299982070923,0.8221865892410278,39.85595703125,-61.21826171875,-181.7626953125
8.078625917434692,1582684343,1,-0.19617673754692078,-0.778908371925354,0.07654936611652374,302.6123046875,-156.3720703125,381.9580078125
8.093898057937622,1582684358,0,0.1296669840812683,-0.02524619549512863,0.43400299549102783,13.12255859375,-82.21435546875,-247.86376953125
8.093920946121216,1582684377,0,0.3130165934562683,-0.40439659357070923,0.42545807361602783,-45.654296875,-88.92822265625,-315.673828125
8.114470958709717,1582684362,1,0.036489278078079224,-0.667824387550354,-0.5801889300346375,189.39208984375,-61.279296875,211.9140625
8.114475965499878,1582684381,1,-0.19422361254692078,-0.11240445077419281,-0.6072885394096375,118.71337890625,58.04443359375,94.66552734375
8.137015104293823,1582684400,1,-0.12146970629692078,0.05751742422580719,-0.5486947894096375,100.09765625,61.1572265625,130.859375
8.160949945449829,1582684396,0,0.2134072184562683,-0.6780782341957092,0.22453032433986664,-137.75634765625,-67.19970703125,-301.69677734375
8.16095495223999,1582684415,0,0.2007119059562683,-0.5875020623207092,-0.029864206910133362,-138.916015625,-65.97900390625,-226.25732421875
8.160958051681519,1582684434,0,0.2954384684562683,-0.46592003107070923,-0.20930756628513336,-114.990234375,-119.44580078125,-199.15771484375
8.168604850769043,1582684419,1,0.07896974682807922,0.01796664297580719,-0.7669565081596375,105.8349609375,25.5126953125,207.8857421875
8.183865070343018,1582684453,0,0.3474404215812683,-0.49008995294570923,-0.25154387950897217,-130.126953125,-208.984375,-211.24267578125
8.197886943817139,1582684455,1,1.0706689357757568,-0.693947434425354,-1.0650521516799927,-34.66796875,85.44921875,201.11083984375
8.197952032089233,1582684474,1,1.0186669826507568,-0.492775559425354,-0.5826303362846375,-86.9140625,197.021484375,67.9931640625
8.217823028564453,1582684472,0,0.4289833903312683,-0.8846212029457092,0.03727446496486664,-181.94580078125,-264.7705078125,-226.62353515625
8.217828035354614,1582684491,0,0.2075478434562683,-0.9307637810707092,0.33781158924102783,-214.7216796875,-281.06689453125,-178.40576171875
8.228600978851318,1582684493,1,1.3714501857757568,1.341208815574646,1.9691275358200073,90.8203125,151.42822265625,2.197265625
8.243577003479004,1582684510,0,0.2839638590812683,-0.9671407341957092,0.5099307298660278,-232.36083984375,-301.6357421875,-148.01025390625
8.266310930252075,1582684512,1,0.051625996828079224,0.373435378074646,-0.6282846331596375,-171.44775390625,85.9375,316.95556640625
8.266315937042236,1582684531,1,0.4295556843280792,-1.114357590675354,0.12586577236652374,-230.224609375,79.89501953125,385.92529296875
8.274677991867065,1582684546,0,0.8391396403312683,-1.0054707527160645,1.2328311204910278,-297.18017578125,-393.00537109375,-195.49560546875
8.288841009140015,1582684550,1,0.9493310451507568,-1.452248215675354,0.18177397549152374,-165.46630859375,196.2890625,281.8603515625
8.288872957229614,1582684569,1,0.6563622951507568,-1.667824387550354,0.29432281851768494,-185.48583984375,284.0576171875,145.99609375
8.313509225845337,1582684565,0,0.8867470622062683,-1.0860371589660645,1.7355166673660278,-350.4638671875,-382.99560546875,-216.12548828125
8.314491987228394,1582684584,0,1.011991262435913,-1.0127949714660645,1.9127627611160278,-384.3994140625,-332.1533203125,-177.42919921875
8.319241046905518,1582684588,1,0.4984033405780792,-1.317726731300354,1.0072134733200073,-142.39501953125,277.2216796875,84.228515625
8.332247018814087,1582684603,0,1.298856496810913,-0.9617696404457092,2.0917177200317383,-368.0419921875,-320.4345703125,-182.861328125
8.348876953125,1582684607,1,0.044790059328079224,-1.281349778175354,0.9791372418403625,-162.109375,220.8251953125,135.19287109375
8.348906993865967,1582684626,1,-0.4478857219219208,-1.381447434425354,1.0643423795700073,-278.13720703125,228.45458984375,265.56396484375
8.367549896240234,1582684622,0,1.437772512435913,-0.9822774529457092,2.2411317825317383,-320.556640625,-341.6748046875,-230.52978515625
8.378613948822021,1582684645,1,-1.0218603610992432,-1.914162278175354,1.2640494108200073,-309.38720703125,234.55810546875,338.07373046875
8.393882036209106,1582684641,0,1.309842824935913,-0.9666524529457092,2.4564638137817383,-267.51708984375,-373.84033203125,-253.90625
8.393958806991577,1582684660,0,1.221463918685913,-0.7266622185707092,2.4462099075317383,-261.71875,-342.6513671875,-216.97998046875
8.416754007339478,1582684664,1,-1.5970556735992432,-1.666603684425354,1.4984244108200073,-343.81103515625,230.712890625,322.1435546875
8.416758060455322,1582684683,1,-1.9859716892242432,-1.206398606300354,1.5042837858200073,-422.91259765625,164.6728515625,348.2666015625
8.42395806312561,1582684679,0,1.283963918685913,-0.7281270623207092,2.7357606887817383,-292.78564453125,-310.72998046875,-213.623046875
8.424034118652344,1582684698,0,1.272245168685913,-0.9371114373207092,3.2948427200317383,-314.88037109375,-313.4765625,-245.05615234375
8.438480854034424,1582684719,1,-3.459116220474243,-0.770119309425354,0.9820669293403625,-518.12744140625,75.3173828125,670.59326171875
8.463238954544067,1582684717,0,1.130399465560913,-1.5433125495910645,3.9415712356567383,-364.1357421875,-256.9580078125,-298.03466796875
8.463243007659912,1582684736,0,0.6848427653312683,-1.9324727058410645,3.9559755325317383,-377.5634765625,-123.6572265625,-354.6142578125
8.481733798980713,1582684755,0,0.4604775309562683,-1.7767109870910645,3.7684755325317383,-319.51904296875,-37.4755859375,-389.16015625
8.497878074645996,1582684738,1,-3.249643564224243,-1.787209153175354,1.8956412076950073,-522.76611328125,51.1474609375,829.58984375
8.497905969619751,1582684757,1,-2.951547861099243,-1.346535325050354,2.7347524166107178,-468.93310546875,-38.87939453125,840.02685546875
8.497968912124634,1582684776,1,-2.842417001724243,-1.314308762550354,2.7957875728607178,-442.19970703125,-225.830078125,906.92138671875
8.516865015029907,1582684774,0,0.4604775309562683,-1.7605977058410645,3.4261903762817383,-216.1865234375,41.015625,-440.4296875
8.528563022613525,1582684795,1,-2.851938486099243,-1.713966965675354,2.5631215572357178,-353.69873046875,-332.82470703125,879.21142578125
8.543734073638916,1582684810,0,0.4192177653312683,-1.5882344245910645,3.2069520950317383,47.8515625,111.02294921875,-453.06396484375
8.565095901489258,1582684814,1,-2.092172861099243,-2.1739277839660645,2.7264516353607178,-202.33154296875,-343.20068359375,774.90234375
8.56510305404663,1582684833,1,-1.7367041110992432,-1.716896653175354,2.2142446041107178,7.26318359375,-349.91455078125,552.18505859375
8.576452016830444,1582684829,0,0.3440224528312683,-1.6907734870910645,3.0008974075317383,109.92431640625,161.80419921875,-378.90625
8.576457023620605,1582684848,0,0.6096474528312683,-1.0589375495910645,1.9061709642410278,86.24267578125,213.9892578125,-335.51025390625
8.588958978652954,1582684852,1,-1.8653662204742432,-1.911965012550354,1.6402701139450073,98.0224609375,-395.93505859375,467.1630859375
8.614366054534912,1582684867,0,0.4355751872062683,-1.2747578620910645,1.7552920579910278,8.23974609375,227.96630859375,-343.75
8.614371061325073,1582684886,0,0.06936425715684891,-1.6063008308410645,1.8339053392410278,34.423828125,248.59619140625,-205.99365234375
8.618535995483398,1582684871,1,-1.7252295017242432,-1.664650559425354,1.1456412076950073,150.87890625,-404.84619140625,391.9677734375
8.618539094924927,1582684890,1,-1.4596045017242432,-1.029884934425354,-0.04747406765818596,166.1376953125,-404.96826171875,283.935546875
8.632121086120605,1582684905,0,0.1675087809562683,-1.7181172370910645,1.8502627611160278,74.8291015625,335.51025390625,-41.56494140625
8.648742914199829,1582684909,1,-1.1683447360992432,-0.871681809425354,0.9808462262153625,182.55615234375,-481.93359375,278.4423828125
8.648768901824951,1582684928,1,-1.5911962985992432,-1.699074387550354,0.5235708355903625,220.88623046875,-437.19482421875,101.86767578125
8.666167974472046,1582684924,0,0.4043251872062683,-1.4258809089660645,1.4552432298660278,118.7744140625,337.890625,45.47119140625
8.666172981262207,1582684943,0,0.2927529215812683,-1.2513203620910645,1.4567080736160278,179.50439453125,328.79638671875,84.65576171875
8.678591012954712,1582684947,1,-1.2584326267242432,-1.168556809425354,0.23524077236652374,182.7392578125,-422.42431640625,120.361328125
8.693691968917847,1582684962,0,0.3425576090812683,-0.9512715935707092,1.2706729173660278,231.14013671875,324.70703125,122.6806640625
8.716133832931519,1582684983,1,-2.176645517349243,0.809714674949646,-0.37120452523231506,273.25439453125,-294.61669921875,116.0888671875
8.722280025482178,1582684981,0,0.4682900309562683,-0.6602559685707092,1.1080752611160278,229.736328125,325.68359375,122.4365234375
8.722336053848267,1582685000,0,0.5718056559562683,-0.36386924982070923,0.9764834642410278,222.22900390625,330.810546875,99.54833984375
8.73711109161377,1582685002,1,-1.1168310642242432,2.4601054191589355,0.33704742789268494,367.61474609375,-203.4912109375,607.60498046875
8.762825965881348,1582685019,0,0.4975869059562683,-0.36313682794570923,0.9803897142410278,242.431640625,318.66455078125,92.10205078125
8.762830972671509,1582685038,0,0.4348427653312683,-0.19394737482070923,0.9620791673660278,297.91259765625,294.5556640625,99.4873046875
8.768903017044067,1582685021,1,0.6378076076507568,-0.332619309425354,0.9762075543403625,456.0546875,-265.625,65.00244140625
8.768935918807983,1582685040,1,-0.4566747844219208,-0.07212124764919281,0.5150259137153625,337.0361328125,-413.87939453125,-103.08837890625
8.796884059906006,1582685059,1,-0.7037451267242432,0.11635531485080719,0.37171539664268494,85.205078125,-444.82421875,-94.54345703125
8.811162948608398,1582685078,1,-0.4886572062969208,0.09462679922580719,0.39905914664268494,-60.4248046875,-449.462890625,-3.60107421875
8.818127870559692,1582685074,0,0.5124794840812683,0.10756630450487137,0.8546572923660278,351.1962890625,275.45166015625,84.5947265625
8.818132877349854,1582685093,0,0.3135048747062683,0.01601357012987137,0.6971865892410278,308.349609375,289.794921875,93.6279296875
8.827076196670532,1582685097,1,-0.10193845629692078,-0.292824387550354,0.38465484976768494,-105.95703125,-420.41015625,40.95458984375
8.843842029571533,1582685112,0,0.1770302653312683,-0.15561729669570923,0.5799990892410278,234.55810546875,310.1806640625,118.34716796875
8.865798950195312,1582685116,1,0.004018574953079224,-0.479836106300354,0.17200835049152374,-63.232421875,-344.8486328125,-27.03857421875
8.865803956985474,1582685135,1,0.008413106203079224,-0.431007981300354,0.15613920986652374,-24.96337890625,-283.26416015625,-143.00537109375
