sync_time,timestamp_ms,device_id,ax,ay,az,gx,gy,gz
0.0040819644927978516,-147740041,0,-0.27238571643829346,0.1630377620458603,0.7522986531257629,-7.080078125,30.1513671875,21.54541015625
0.01427006721496582,-147740045,1,-0.6034840941429138,0.3489242494106293,0.27969616651535034,-58.4716796875,-14.46533203125,-26.0009765625
0.03760099411010742,-147740022,0,-0.30998337268829346,0.07148502767086029,0.7313025593757629,-20.01953125,41.44287109375,32.65380859375
0.04398798942565918,-147740009,1,-0.6303395628929138,0.3359847962856293,0.38077038526535034,-83.6181640625,10.43701171875,-25.69580078125
0.044122934341430664,-147739990,1,-0.6886891722679138,0.3206039369106293,0.5226160883903503,-93.20068359375,30.33447265625,-23.37646484375
0.05887889862060547,-147739986,0,-0.20475874841213226,-0.06035091355443001,0.7127478718757629,-39.0625,63.8427734375,94.3603515625
0.08552289009094238,-147739971,1,-0.7511891722679138,0.2986312806606293,0.6102625727653503,-97.900390625,42.724609375,-20.6298828125
0.08923006057739258,-147739967,0,-0.19523726403713226,-0.10527278482913971,0.7547400593757629,-54.62646484375,76.171875,135.19287109375
0.08923697471618652,-147739948,0,-0.10637007653713226,-0.1851067692041397,0.8311560750007629,-69.27490234375,95.21484375,171.56982421875
0.10384702682495117,-147739952,1,-0.8410329222679138,0.2710433900356293,0.6878992915153503,-97.0458984375,49.01123046875,-15.80810546875
0.10393810272216797,-147739933,1,-0.8840016722679138,0.2637191712856293,0.7445399165153503,-96.923828125,44.43359375,-10.986328125
0.13045692443847656,-147739929,0,0.02741898223757744,-0.2485833317041397,0.9087927937507629,-89.78271484375,117.67578125,207.45849609375
0.1304640769958496,-147739910,0,0.11970414221286774,-0.3184075653553009,0.9373572468757629,-108.70361328125,129.8828125,229.6142578125
0.13523101806640625,-147739914,1,-0.9374684691429138,0.24028167128562927,0.7982508540153503,-102.23388671875,37.841796875,-4.33349609375
0.14918088912963867,-147739891,0,0.28230178356170654,-0.4534173309803009,1.0716345310211182,-141.17431640625,142.15087890625,260.7421875
0.1639399528503418,-147739895,1,-0.9264821410179138,0.2742172181606293,0.8378016352653503,-106.62841796875,29.78515625,2.86865234375
0.1640777587890625,-147739876,1,-0.8871755003929138,0.22783049941062927,0.8839442133903503,-125.9765625,18.4326171875,8.36181640625
0.1853179931640625,-147739872,0,0.36530959606170654,-0.6067376136779785,1.3335974216461182,-178.5888671875,147.64404296875,301.513671875
0.18532586097717285,-147739853,0,0.5244892835617065,-0.6787590980529785,1.6531774997711182,-220.947265625,188.3544921875,370.60546875
0.1940770149230957,-147739857,1,-0.8683766722679138,0.2510238587856293,0.9200770258903503,-139.892578125,20.263671875,19.04296875
0.20922398567199707,-147739834,0,0.6297138929367065,-0.8259758949279785,1.6753942966461182,-241.455078125,207.6416015625,447.3876953125
0.23211908340454102,-147739838,1,-0.9235524535179138,0.2895980775356293,0.9947840571403503,-148.92578125,31.6162109375,36.92626953125
0.23212504386901855,-147739819,1,-0.9508962035179138,0.3562484681606293,1.0965907573699951,-153.99169921875,35.15625,53.466796875
0.23904705047607422,-147739815,0,0.9153584241867065,-1.0823235511779785,1.7569372653961182,-248.4130859375,173.15673828125,569.82421875
0.23906993865966797,-147739796,0,1.3225849866867065,-0.9634270668029785,1.9544470310211182,-243.896484375,134.94873046875,681.70166015625
0.25403690338134766,-147739800,1,-0.9701833128929138,0.3696762025356293,1.2435634136199951,-159.24072265625,31.18896484375,76.904296875
0.2541489601135254,-147739781,1,-0.8735036253929138,0.3755355775356293,1.3268153667449951,-153.13720703125,21.66748046875,96.923828125
0.2803189754486084,-147739777,0,1.4812763929367065,-0.5623040199279785,1.9480993747711182,-202.5146484375,123.84033203125,695.86181640625
0.2979569435119629,-147739758,0,1.2600849866867065,-0.3513665497303009,1.7847692966461182,-158.02001953125,113.58642578125,611.328125
0.3140218257904053,-147739745,1,-0.7431325316429138,0.4141097962856293,1.3590419292449951,-132.4462890625,33.75244140625,133.056640625
0.314100980758667,-147739726,1,-0.6300954222679138,0.4119125306606293,1.3539149761199951,-132.99560546875,36.4990234375,149.5361328125
0.3360860347747803,-147739722,0,0.9270771741867065,-0.4436517059803009,1.6880896091461182,-118.71337890625,81.72607421875,465.576171875
0.33863091468811035,-147739703,0,0.7124775648117065,-0.5381340980529785,1.4876501560211182,-83.8623046875,50.47607421875,423.7060546875
0.3438448905944824,-147739707,1,-0.5597829222679138,0.4092269837856293,1.3841884136199951,-134.21630859375,35.82763671875,164.4287109375
0.3588988780975342,-147739684,0,0.5657490491867065,-0.6362786293029785,1.3592321872711182,-55.72509765625,6.77490234375,393.85986328125
0.3834109306335449,-147739688,1,-0.42306414246559143,0.3552719056606293,1.4422938823699951,-124.20654296875,30.33447265625,173.828125
0.38341784477233887,-147739669,1,-0.25900164246559143,0.3354965150356293,1.4413173198699951,-106.8115234375,24.47509765625,168.45703125
0.3893280029296875,-147739665,0,0.42585647106170654,-0.7056145668029785,1.3296911716461182,-41.50390625,-17.27294921875,377.197265625
0.38933396339416504,-147739646,0,0.26106154918670654,-0.7710442543029785,1.2220251560211182,-22.216796875,-39.00146484375,363.1591796875
0.40397000312805176,-147739650,1,-0.11813250929117203,0.3994613587856293,1.3841884136199951,-85.0830078125,30.6396484375,150.81787109375
0.4040699005126953,-147739631,1,-0.026091493666172028,0.5361801385879517,1.2494227886199951,-66.89453125,35.5224609375,137.8173828125
0.433549165725708,-147739627,0,0.21687211096286774,-0.8289055824279785,1.0489294528961182,-10.009765625,-64.27001953125,345.458984375
0.4408729076385498,-147739612,1,-0.10372821241617203,0.6738754510879517,1.0392177104949951,-47.8515625,54.0771484375,142.08984375
0.4492518901824951,-147739608,0,0.19001664221286774,-0.9658684730529785,0.8353064656257629,-12.20703125,-106.8115234375,330.26123046875
0.449268102645874,-147739589,0,0.18635453283786774,-0.9194817543029785,0.6724646687507629,1.52587890625,-142.578125,339.9658203125
0.4641139507293701,-147739593,1,0.03250225633382797,0.6311508417129517,0.9725672602653503,-38.4521484375,60.97412109375,135.6201171875
0.46421313285827637,-147739574,1,0.29300031065940857,0.6936508417129517,1.0021083354949951,-36.92626953125,64.27001953125,116.76025390625
0.48566102981567383,-147739570,0,0.16584672033786774,-0.7529778480529785,0.7413123250007629,44.5556640625,-161.07177734375,327.392578125
0.4856710433959961,-147739551,0,0.14216507971286774,-0.7954583168029785,0.5980017781257629,28.62548828125,-102.72216796875,253.35693359375
0.49412107467651367,-147739555,1,0.28689679503440857,0.7771469354629517,0.8295008540153503,-21.728515625,87.158203125,82.51953125
0.5091650485992432,-147739532,0,0.32356154918670654,-1.1895012855529785,0.8772986531257629,6.16455078125,-60.11962890625,231.93359375
0.5332880020141602,-147739536,1,-0.21163836121559143,0.9126449823379517,0.6993739008903503,-18.49365234375,113.46435546875,79.52880859375
0.5332949161529541,-147739517,1,-0.07833758741617203,0.9492660760879517,0.8951746821403503,-11.65771484375,123.35205078125,84.41162109375
0.5426139831542969,-147739513,0,0.35359084606170654,-0.8606438636779785,0.9839881062507629,33.99658203125,-53.22265625,254.0283203125
0.5426220893859863,-147739494,0,0.41975295543670654,-0.8936028480529785,1.1690466403961182,34.423828125,-52.91748046875,224.7314453125
0.5542547702789307,-147739481,1,0.03152569383382797,0.9556137323379517,0.9681727290153503,31.18896484375,99.12109375,83.984375
0.5858218669891357,-147739462,1,0.42996320128440857,0.9683090448379517,0.6256434321403503,72.20458984375,126.64794921875,19.4091796875
0.5989570617675781,-147739458,0,0.30329787731170654,-0.7180657386779785,1.0367224216461182,18.73779296875,-38.87939453125,178.16162109375
0.5990841388702393,-147739439,0,0.35407912731170654,-0.6240715980529785,1.0633337497711182,22.705078125,-44.00634765625,147.27783203125
0.6140830516815186,-147739443,1,0.15579327940940857,0.5989242792129517,-0.04501086473464966,51.08642578125,213.56201171875,-77.20947265625
0.6141798496246338,-147739424,1,-0.29440203309059143,0.24321135878562927,-0.6204503178596497,11.77978515625,335.14404296875,-199.89013671875
0.6358511447906494,-147739420,0,0.49030959606170654,-0.3464837372303009,1.2332556247711182,53.89404296875,-58.77685546875,107.177734375
0.6358590126037598,-147739401,0,0.6013935804367065,-0.1594720035791397,1.5135290622711182,109.31396484375,-65.73486328125,30.09033203125
0.64400315284729,-147739405,1,-1.519499659538269,1.3630844354629517,0.5350672602653503,114.07470703125,358.58154296875,-111.51123046875
0.6592121124267578,-147739382,0,0.5674580335617065,-0.08696223795413971,1.8267614841461182,190.185546875,-51.26953125,-41.68701171875
0.6848258972167969,-147739386,1,-1.777556300163269,1.6992660760879517,0.6378504633903503,69.091796875,250.1220703125,65.61279296875
0.6848330497741699,-147739367,1,-1.323210597038269,1.1367660760879517,0.42715710401535034,-24.47509765625,96.923828125,222.65625
0.6890838146209717,-147739363,0,0.5259541273117065,-0.08134700357913971,1.9153845310211182,276.42822265625,1.5869140625,-92.4072265625
0.689216136932373,-147739344,0,0.41535842418670654,-0.03227474167943001,1.8721716403961182,308.65478515625,63.90380859375,-136.3525390625
0.7041847705841064,-147739348,1,-0.9284352660179138,0.9167953729629517,0.17984265089035034,10.8642578125,103.69873046875,262.3291015625
0.7351229190826416,-147739325,0,0.33259475231170654,0.08881901204586029,1.7178747653961182,303.28369140625,110.4736328125,-179.50439453125
0.7423229217529297,-147739329,1,-0.5070485472679138,1.0503402948379517,-0.06503039598464966,40.8935546875,197.75390625,213.8671875
0.742332935333252,-147739310,1,-0.45846453309059143,1.2471176385879517,-0.22201281785964966,45.47119140625,330.56640625,150.634765625
0.7490880489349365,-147739306,0,0.29182326793670654,0.2191901057958603,1.5879919528961182,299.86572265625,88.5009765625,-206.35986328125
0.7491860389709473,-147739287,0,0.20832718908786774,0.1552252620458603,1.5320837497711182,326.416015625,44.49462890625,-215.2099609375
0.768359899520874,-147739291,1,-0.5717458128929138,1.1748520135879517,-0.12240344285964966,29.4189453125,434.4482421875,117.7978515625
0.7683708667755127,-147739272,1,-0.6654958128929138,0.8735824823379517,0.16128796339035034,11.90185546875,454.1015625,99.79248046875
0.7856640815734863,-147739268,0,0.11701859533786774,0.1527838557958603,1.5003454685211182,335.0830078125,14.5263671875,-205.56640625
0.794152021408081,-147739253,1,-0.49630632996559143,0.5725570917129517,0.35025280714035034,33.14208984375,412.9638671875,46.56982421875
0.8091850280761719,-147739249,0,0.08308304846286774,0.2045416682958603,1.4632360935211182,319.091796875,-5.43212890625,-171.0205078125
0.8091928958892822,-147739230,0,-0.04582320526242256,0.2348151057958603,1.3025915622711182,303.955078125,4.08935546875,-142.4560546875
0.8338069915771484,-147739217,1,-0.30514422059059143,0.7400375604629517,0.027254760265350342,157.53173828125,351.86767578125,-41.015625
0.8387210369110107,-147739194,0,-0.05705367401242256,0.2963385283946991,1.0384314060211182,259.46044921875,22.4609375,-87.646484375
0.8544588088989258,-147739198,1,-0.34005632996559143,0.9541488885879517,-0.14462023973464966,137.0849609375,309.08203125,-44.677734375
0.8819210529327393,-147739175,0,-0.11247359216213226,0.3314947783946991,0.8584998250007629,246.76513671875,22.8271484375,-53.77197265625
0.8864290714263916,-147739179,1,-0.34811297059059143,0.9512192010879517,-0.19149523973464966,60.85205078125,258.97216796875,-19.83642578125
0.8864350318908691,-147739160,1,-0.28732195496559143,0.7173324823379517,-0.14266711473464966,10.7421875,240.05126953125,-0.67138671875
0.8989708423614502,-147739156,0,-0.05412398651242256,0.2587408721446991,0.7059119343757629,237.60986328125,-4.94384765625,-45.166015625
0.8990778923034668,-147739137,0,-0.01725875213742256,0.2934088408946991,0.7066443562507629,207.58056640625,-30.76171875,-35.888671875
0.9140338897705078,-147739141,1,-0.21334734559059143,0.4629379212856293,-0.07528430223464966,-4.5166015625,241.14990234375,8.11767578125
0.9141151905059814,-147739122,1,-0.23287859559059143,0.3218246400356293,0.04751843214035034,-5.67626953125,243.0419921875,10.68115234375
0.9349570274353027,-147739118,0,-0.012131799012422562,0.2936529815196991,0.7115271687507629,179.62646484375,-33.38623046875,-41.8701171875
0.9439818859100342,-147739103,1,-0.30319109559059143,0.2532211244106293,0.19497936964035034,-27.52685546875,240.78369140625,12.87841796875
0.9591119289398193,-147739099,0,0.05207718536257744,0.1730475276708603,0.6556189656257629,157.53173828125,-38.14697265625,-51.513671875
0.9591927528381348,-147739080,0,0.05134476348757744,0.027539711445569992,0.6067908406257629,104.1259765625,-55.7861328125,-51.45263671875
0.9833719730377197,-147739084,1,-0.47262468934059143,0.18510589003562927,0.35196179151535034,-70.1904296875,222.83935546875,11.41357421875
0.9833788871765137,-147739065,1,-0.5514821410179138,0.11284027248620987,0.5245692133903503,-111.26708984375,200.927734375,2.01416015625
0.9889118671417236,-147739061,0,0.09211625158786774,-0.1357903629541397,0.5662634968757629,53.7109375,-73.2421875,-48.15673828125
0.9889328479766846,-147739042,0,0.12361039221286774,-0.2947259247303009,0.5272009968757629,-7.32421875,-79.1015625,-69.15283203125
1.003798007965088,-147739046,1,-0.5688161253929138,0.00956878811120987,0.6556727290153503,-143.98193359375,179.8095703125,-22.27783203125
1.0322041511535645,-147739023,0,0.16340531408786774,-0.3354974091053009,0.5376990437507629,-54.26025390625,-80.078125,-85.9375
1.03826904296875,-147739027,1,-0.5070485472679138,-0.00898589938879013,0.7430750727653503,-134.521484375,157.8369140625,-50.29296875
1.0382750034332275,-147739008,1,-0.5697926878929138,0.09257660061120987,0.8226649165153503,-105.89599609375,128.84521484375,-71.1669921875
1.0491127967834473,-147739004,0,0.25031936168670654,-0.3887200653553009,0.5560095906257629,-107.0556640625,-90.39306640625,-103.69873046875
1.049189805984497,-147738985,0,0.36286818981170654,-0.4565911591053009,0.5447791218757629,-163.87939453125,-99.54833984375,-123.47412109375
1.0637929439544678,-147738989,1,-0.5824880003929138,0.14286956191062927,0.8465906977653503,-95.8251953125,91.85791015625,-86.73095703125
1.0856549739837646,-147738966,0,0.41633498668670654,-0.5549798011779785,0.5870154500007629,-208.80126953125,-106.38427734375,-139.09912109375
1.0941340923309326,-147738953,1,-0.5004567503929138,0.18779143691062927,0.7171961665153503,-55.48095703125,18.49365234375,-87.09716796875
1.1105201244354248,-147738930,0,0.21491898596286774,-0.5771965980529785,1.0032751560211182,-97.0458984375,-64.94140625,-75.0732421875
1.1326498985290527,-147738934,1,-0.5114430785179138,0.20366057753562927,0.6515223383903503,-33.87451171875,-10.68115234375,-90.39306640625
1.1326568126678467,-147738915,1,-0.5209645628929138,0.2607894837856293,0.5611903071403503,-29.541015625,-34.912109375,-102.294921875
1.1390810012817383,-147738911,0,0.22932328283786774,-0.4468255341053009,0.9588416218757629,-56.884765625,-66.40625,-11.53564453125
1.1391639709472656,-147738892,0,0.36335647106170654,-0.2300286442041397,0.8675330281257629,-54.8095703125,-95.52001953125,42.1142578125
1.1540858745574951,-147738896,1,-0.5966481566429138,0.20146331191062927,0.5326258540153503,-26.55029296875,-34.423828125,-109.92431640625
1.181535005569458,-147738873,0,0.5171650648117065,-0.1963372379541397,0.8838904500007629,-82.82470703125,-99.853515625,43.02978515625
1.1862759590148926,-147738877,1,-0.6340016722679138,0.12431488186120987,0.5353114008903503,-10.80322265625,-28.9306640625,-118.59130859375
1.1862831115722656,-147738858,1,-0.6686696410179138,0.13554534316062927,0.5887781977653503,2.9296875,-33.26416015625,-129.150390625
1.1992530822753906,-147738854,0,0.5991963148117065,-0.1282220035791397,0.9222205281257629,-121.03271484375,-75.86669921875,22.94921875
1.199321985244751,-147738835,0,0.6485127210617065,-0.1799798160791397,0.9466345906257629,-143.12744140625,-60.4248046875,18.73779296875
1.2138738632202148,-147738839,1,-0.7846364378929138,0.16655120253562927,0.6478602290153503,-4.8828125,-56.15234375,-145.08056640625
1.2139620780944824,-147738820,1,-0.8910817503929138,0.13993987441062927,0.7218348383903503,-14.70947265625,-85.3271484375,-163.9404296875
1.2351608276367188,-147738816,0,0.7332295179367065,-0.2258782535791397,0.9749549031257629,-140.68603515625,-67.07763671875,19.287109375
1.2442481517791748,-147738801,1,-0.9828786253929138,0.08769378811120987,0.7931239008903503,-14.16015625,-101.4404296875,-177.734375
1.2591209411621094,-147738797,0,0.8645771741867065,-0.2546868622303009,1.0247595310211182,-119.873046875,-105.5908203125,26.18408203125
1.2592079639434814,-147738778,0,0.9082783460617065,-0.2917962372303009,1.0816442966461182,-105.95703125,-135.25390625,28.9306640625
1.2833218574523926,-147738782,1,-1.148894190788269,0.08964691311120987,0.8968836665153503,6.53076171875,-114.013671875,-187.3779296875
1.283329963684082,-147738763,1,-1.383025050163269,0.0029769912362098694,0.9066492915153503,47.18017578125,-141.357421875,-203.43017578125
1.2889978885650635,-147738759,0,0.9519795179367065,-0.3394036591053009,1.2354528903961182,-111.083984375,-144.1650390625,5.79833984375
1.2891080379486084,-147738740,0,0.9693135023117065,-0.3782220184803009,1.3882849216461182,-137.75634765625,-127.62451171875,-48.52294921875
1.3038721084594727,-147738744,1,-1.595183253288269,-0.07075347751379013,0.8592860102653503,103.08837890625,-166.259765625,-228.6376953125
1.3325130939483643,-147738721,0,1.0718525648117065,-0.4084954559803009,1.5440466403961182,-166.015625,-104.98046875,-105.16357421875
1.3386919498443604,-147738725,1,-1.741423487663269,-0.05000152438879013,0.8224207758903503,137.02392578125,-167.6025390625,-240.66162109375
1.3492629528045654,-147738702,0,1.0928486585617065,-0.4853997528553009,1.6514685153961182,-171.630859375,-98.6328125,-141.357421875
1.364043951034546,-147738689,1,-1.950652003288269,-0.14204254746437073,0.9191004633903503,176.513671875,-166.748046875,-210.99853515625
1.3641140460968018,-147738670,1,-2.0622243881225586,-0.3544448912143707,0.9191004633903503,194.88525390625,-200.5615234375,-218.1396484375
1.3872079849243164,-147738666,0,1.0545185804367065,-0.7830071449279785,1.7759802341461182,-163.14697265625,-109.43603515625,-219.78759765625
1.3941168785095215,-147738651,1,-2.1750173568725586,-0.5775893926620483,0.8570887446403503,226.98974609375,-234.619140625,-231.14013671875
1.4088478088378906,-147738647,0,1.0674580335617065,-0.9641594886779785,1.8279821872711182,-156.6162109375,-117.919921875,-246.826171875
1.4089679718017578,-147738628,0,1.0999287366867065,-1.0063958168029785,1.8389685153961182,-152.4658203125,-132.9345703125,-260.8642578125
1.4325950145721436,-147738632,1,-2.1484060287475586,-0.6713393926620483,0.7538172602653503,249.93896484375,-262.6953125,-262.26806640625
1.4326019287109375,-147738613,1,-2.2904958724975586,-0.7448257207870483,0.6927821040153503,270.01953125,-271.484375,-283.87451171875
1.439011812210083,-147738609,0,1.1350849866867065,-1.0781731605529785,2.003031015396118,-145.1416015625,-163.9404296875,-258.72802734375
1.4391298294067383,-147738590,0,1.1150654554367065,-1.0930657386779785,2.170267343521118,-134.09423828125,-196.22802734375,-265.93017578125
1.456244945526123,-147738594,1,-2.2946462631225586,-0.7987807989120483,0.5223719477653503,286.865234375,-256.28662109375,-281.6162109375
1.4825470447540283,-147738571,0,1.0205830335617065,-1.1914544105529785,2.412454843521118,-110.90087890625,-236.4501953125,-272.52197265625
1.4876108169555664,-147738575,1,-2.0998220443725586,-0.7890151739120483,0.5167567133903503,276.30615234375,-227.60009765625,-271.8505859375
1.4876179695129395,-147738556,1,-2.0805349349975586,-0.9135268926620483,0.5682703852653503,272.88818359375,-195.9228515625,-273.4375
1.4991199970245361,-147738552,0,0.9380635023117065,-1.1580071449279785,2.680765390396118,-94.66552734375,-252.38037109375,-278.6865234375
1.4992311000823975,-147738533,0,0.8355244398117065,-1.1521477699279785,2.837747812271118,-80.810546875,-225.40283203125,-296.0205078125
1.5140469074249268,-147738537,1,-2.3222341537475586,-0.9931167364120483,0.47036999464035034,297.91259765625,-155.1513671875,-278.13720703125
1.5343718528747559,-147738514,0,0.8023213148117065,-1.0713372230529785,2.934915781021118,-69.2138671875,-192.9931640625,-312.3779296875
1.5439927577972412,-147738518,1,-2.4230642318725586,-0.8395522832870483,0.20840710401535034,338.9892578125,-114.501953125,-263.5498046875
1.5441129207611084,-147738499,1,-2.4945974349975586,-0.5250991582870483,0.10537976026535034,340.576171875,-52.8564453125,-198.05908203125
1.559190034866333,-147738495,0,0.8013447523117065,-1.0124993324279785,2.958597421646118,-41.259765625,-153.6865234375,-320.25146484375
1.5592961311340332,-147738476,0,0.8069599866867065,-0.9446282386779785,2.838968515396118,-4.21142578125,-127.685546875,-312.31689453125
1.5833799839019775,-147738480,1,-2.6747732162475586,-0.5756362676620483,0.26382702589035034,291.44287109375,-3.90625,-121.4599609375
1.583385944366455,-147738461,1,-2.5043630599975586,-0.7345718145370483,0.5792567133903503,264.16015625,15.7470703125,-75.86669921875
1.5899829864501953,-147738457,0,0.7168720960617065,-0.8149895668029785,2.746195077896118,8.6669921875,-119.2626953125,-300.6591796875
1.6307399272918701,-147738438,0,0.6238545179367065,-0.6438469886779785,2.832864999771118,31.494140625,-91.1865234375,-291.3818359375
1.6370079517364502,-147738425,1,-2.3283376693725586,-0.7006362676620483,1.0626552104949951,278.38134765625,57.9833984375,5.18798828125
1.6370151042938232,-147738406,1,-2.1161794662475586,-0.8134292364120483,1.4415614604949951,268.00537109375,49.37744140625,43.51806640625
1.648972988128662,-147738402,0,0.20515336096286774,-0.8728508949279785,2.607523202896118,109.375,-69.82421875,-236.328125
1.6490769386291504,-147738383,0,0.14314164221286774,-0.8235344886779785,2.262064218521118,152.64892578125,-102.294921875,-161.1328125
1.663827896118164,-147738387,1,-1.734099268913269,-1.1195815801620483,1.5401942729949951,257.568359375,14.09912109375,25.7568359375
1.6865930557250977,-147738364,0,0.21565140783786774,-0.4294915497303009,1.9900915622711182,164.6728515625,-110.595703125,-163.330078125
1.6939220428466797,-147738368,1,-1.320769190788269,-0.7060073614120483,1.2142665386199951,288.26904296875,-5.0048828125,19.53125
1.6940491199493408,-147738349,1,-0.5248708128929138,-1.1977065801620483,0.6410242915153503,250.79345703125,53.955078125,-47.05810546875
1.70918607711792,-147738345,0,0.15754593908786774,-0.4556145966053009,1.7400915622711182,151.4892578125,-82.51953125,-194.9462890625
1.7092280387878418,-147738326,0,0.27912795543670654,-0.2893548309803009,1.4219763278961182,151.123046875,-49.8046875,-209.8388671875
1.7330539226531982,-147738330,1,-1.165495753288269,-0.6911147832870483,0.28140515089035034,268.73779296875,130.7373046875,-107.666015625
1.7330608367919922,-147738311,1,-1.339079737663269,0.4368148744106293,-0.12997180223464966,247.0703125,205.810546875,-38.4521484375
1.7393391132354736,-147738307,0,0.37824904918670654,-0.2329583317041397,1.1932165622711182,168.51806640625,-39.306640625,-252.74658203125
1.753938913345337,-147738292,1,-2.0815114974975586,-0.04487457126379013,0.49087780714035034,112.12158203125,200.74462890625,61.8896484375
1.7816500663757324,-147738288,0,0.27131545543670654,-0.3159661591053009,1.0445349216461182,183.89892578125,-53.89404296875,-264.70947265625
1.7816567420959473,-147738269,0,0.26154983043670654,-0.2353997379541397,0.8685095906257629,201.59912109375,-85.63232421875,-272.88818359375
1.7861828804016113,-147738273,1,-1.548796534538269,0.2739730775356293,0.31802624464035034,113.70849609375,207.275390625,110.9619140625
1.786189079284668,-147738254,1,-1.529021143913269,0.12626799941062927,0.46328991651535034,53.03955078125,220.27587890625,117.67578125
1.8018670082092285,-147738250,0,0.12190140783786774,-0.3303704559803009,0.5992224812507629,200.01220703125,-118.10302734375,-283.87451171875
1.8018791675567627,-147738231,0,-0.11515913903713226,-0.3643060028553009,0.5462439656257629,205.2001953125,-117.00439453125,-275.57373046875
1.8141660690307617,-147738235,1,-1.462370753288269,0.5791488885879517,0.7469813227653503,97.7783203125,305.7861328125,138.85498046875
1.8363420963287354,-147738212,0,-0.26164352893829346,-0.3401360809803009,0.35483771562576294,190.4296875,-96.74072265625,-260.7421875
1.8440477848052979,-147738216,1,-1.423064112663269,0.7185531854629517,0.9501063227653503,69.82421875,345.458984375,187.68310546875
1.8440799713134766,-147738197,1,-1.377653956413269,0.5784164667129517,1.0687587261199951,42.6025390625,348.5107421875,254.08935546875
1.8593358993530273,-147738193,0,-0.34391891956329346,-0.2595696747303009,0.20957404375076294,172.54638671875,-80.87158203125,-252.0751953125
1.8594648838043213,-147738174,0,-0.45524704456329346,-0.1685052067041397,-0.02162712812423706,158.8134765625,-75.439453125,-242.98095703125
1.8829681873321533,-147738161,1,-0.9213551878929138,-0.17524567246437073,1.0868251323699951,46.20361328125,272.76611328125,264.70947265625
1.9029219150543213,-147738142,1,-0.6664723753929138,-0.22602692246437073,0.9046961665153503,88.43994140625,258.11767578125,223.08349609375
1.9308319091796875,-147738138,0,-0.5873271226882935,-0.1270013004541397,-0.35194939374923706,111.02294921875,-135.55908203125,-192.5048828125
1.930840015411377,-147738119,0,-0.5424052476882935,0.009229164570569992,-0.19423454999923706,125.0,-130.4931640625,-177.55126953125
1.9364259243011475,-147738123,1,-0.5121755003929138,-0.18598785996437073,0.5951258540153503,130.92041015625,268.24951171875,173.828125
1.9364328384399414,-147738104,1,-0.43746843934059143,-0.09004058688879013,0.33658093214035034,163.26904296875,292.41943359375,149.47509765625
1.9489428997039795,-147738100,0,-0.5587626695632935,0.1488776057958603,-0.07802361249923706,137.63427734375,-92.22412109375,-193.66455078125
1.949012041091919,-147738081,0,-0.6503154039382935,0.11738346517086029,-0.14442986249923706,117.85888671875,-31.1279296875,-225.40283203125
1.9637870788574219,-147738085,1,-0.39889422059059143,-0.02607574313879013,0.18911999464035034,159.72900390625,309.75341796875,148.98681640625
1.9891400337219238,-147738062,0,-0.7718974351882935,-0.03593685105443001,-0.21620720624923706,69.4580078125,2.13623046875,-216.796875
1.9939568042755127,-147738066,1,-0.47457781434059143,-0.04731597751379013,0.18008679151535034,133.97216796875,320.49560546875,141.11328125
1.994070053100586,-147738047,1,-0.5053395628929138,-0.08808746188879013,0.20913952589035034,96.19140625,308.837890625,117.919921875
2.0090298652648926,-147738043,0,-0.8822489976882935,-0.10063411295413971,-0.20326775312423706,53.955078125,0.9765625,-153.3203125
2.0091159343719482,-147738024,0,-0.9430400133132935,-0.05400325730443001,-0.13319939374923706,75.0732421875,-8.056640625,-93.32275390625
2.036870002746582,-147738028,1,-0.5165700316429138,-0.11567535251379013,0.23648327589035034,56.09130859375,299.62158203125,93.26171875
2.040661096572876,-147738005,0,-0.7858134508132935,0.05976627394556999,0.00889045000076294,121.7041015625,-7.38525390625,-33.3251953125
2.0540590286254883,-147738009,1,-0.6257008910179138,-0.12006988376379013,0.24917858839035034,24.71923828125,291.259765625,74.15771484375
2.054187059402466,-147737990,1,-0.7362965941429138,-0.13032379746437073,0.27774304151535034,3.662109375,263.671875,60.05859375
2.0828309059143066,-147737986,0,-0.6268779039382935,0.2379889339208603,-0.11342400312423706,150.32958984375,-1.40380859375,-29.11376953125
2.0828380584716797,-147737967,0,-0.5111552476882935,0.2028326839208603,-0.28456658124923706,115.966796875,-23.62060546875,-78.0029296875
2.0882339477539062,-147737971,1,-0.6823415160179138,-0.15351715683937073,0.29971569776535034,-14.70947265625,242.1875,55.72509765625
2.0882420539855957,-147737952,1,-0.6901540160179138,-0.20991364121437073,0.29727429151535034,-41.6259765625,221.8017578125,56.640625
2.098888874053955,-147737948,0,-0.5333720445632935,0.1686529964208603,-0.29506462812423706,88.31787109375,-46.0205078125,-128.35693359375
2.1141440868377686,-147737933,1,-0.7160329222679138,-0.2716812193393707,0.26089733839035034,-69.580078125,206.23779296875,47.119140625
2.136443853378296,-147737929,0,-0.6168681383132935,0.11152409017086029,-0.33510369062423706,61.82861328125,-61.1572265625,-149.35302734375
2.1364519596099854,-147737910,0,-0.6613017320632935,0.06294010579586029,-0.29994744062423706,30.70068359375,-43.8232421875,-144.04296875
2.14382004737854,-147737897,1,-0.6855153441429138,-0.3441909849643707,0.20279186964035034,-104.67529296875,218.1396484375,25.146484375
2.1590049266815186,-147737874,0,-0.7067118883132935,0.08247135579586029,-0.37953728437423706,-25.57373046875,-1.46484375,-162.841796875
2.1842169761657715,-147737878,1,-0.6620778441429138,-0.3629898130893707,0.22647351026535034,-113.22021484375,250.0,2.38037109375
2.1894609928131104,-147737855,0,-0.7797099351882935,0.020215492695569992,-0.30190056562423706,-30.029296875,3.11279296875,-214.53857421875
2.204252004623413,-147737859,1,-0.6466969847679138,-0.3666519224643707,0.27603405714035034,-124.32861328125,282.8369140625,-15.56396484375
2.2043700218200684,-147737840,1,-0.6918630003929138,-0.3883804380893707,0.38272351026535034,-150.08544921875,329.16259765625,-27.77099609375
2.231428861618042,-147737836,0,-0.8629618883132935,-0.06645442545413971,-0.23329704999923706,-13.73291015625,8.36181640625,-253.23486328125
2.2314369678497314,-147737817,0,-0.9752665758132935,-0.1699700504541397,-0.16542595624923706,3.11279296875,9.70458984375,-269.34814453125
2.236927032470703,-147737821,1,-0.9098805785179138,-0.3815445005893707,0.5448328852653503,-182.12890625,382.568359375,-47.79052734375
2.2369978427886963,-147737802,1,-1.169890284538269,-0.3197769224643707,0.7377039790153503,-199.951171875,433.7158203125,-66.650390625
2.249213933944702,-147737798,0,-1.1244364976882935,-0.2717767059803009,-0.15077751874923706,-2.9296875,2.685546875,-252.3193359375
2.2638659477233887,-147737783,1,-1.361784815788269,-0.22505035996437073,0.9320399165153503,-212.7685546875,484.80224609375,-61.6455078125
2.2870311737060547,-147737779,0,-1.2618876695632935,-0.3289056122303009,-0.28505486249923706,-23.37646484375,-10.8642578125,-219.23828125
2.2870380878448486,-147737760,0,-1.4003154039382935,-0.2847161591053009,-0.40981072187423706,-76.416015625,-38.75732421875,-155.1513671875
2.293922185897827,-147737764,1,-1.734587550163269,-0.13496246933937073,1.3331630229949951,-248.47412109375,544.43359375,-53.8330078125
2.2939388751983643,-147737745,1,-2.0778493881225586,0.09648285061120987,1.7701747417449951,-304.5654296875,572.57080078125,-55.11474609375
2.309032917022705,-147737741,0,-1.4572001695632935,-0.1377434879541397,-0.37587517499923706,-152.83203125,-86.73095703125,-96.61865234375
2.3091180324554443,-147737722,0,-1.4620829820632935,0.04560611769556999,-0.07582634687423706,-213.9892578125,-156.67724609375,-89.90478515625
2.335333824157715,-147737726,1,-2.3256521224975586,0.2722640931606293,2.038973569869995,-364.2578125,594.78759765625,-23.01025390625
2.339279890060425,-147737703,0,-1.5436259508132935,0.2187018245458603,0.21128302812576294,-245.05615234375,-194.580078125,-122.6806640625
2.3540639877319336,-147737707,1,-2.5766286849975586,0.3889633119106293,2.320467710494995,-404.1748046875,609.68017578125,41.748046875
2.3541529178619385,-147737688,1,-2.7546072006225586,0.3086410462856293,2.776278257369995,-464.9658203125,581.54296875,128.60107421875
2.3820669651031494,-147737684,0,-1.8622294664382935,0.2521490752696991,0.5789588093757629,-249.0234375,-217.6513671875,-186.4013671875
2.3820738792419434,-147737665,0,-2.295578956604004,0.1339850276708603,1.0293982028961182,-231.689453125,-210.8154296875,-214.53857421875
2.386502981185913,-147737669,1,-2.3344411849975586,0.21806487441062927,3.242586851119995,-490.17333984375,503.7841796875,231.26220703125
2.398872137069702,-147737646,0,-2.727952003479004,0.1554694026708603,1.5120642185211182,-195.73974609375,-142.578125,-200.25634765625
2.41418194770813,-147737633,1,-1.258757472038269,-0.22016754746437073,4.065584659576416,-367.0654296875,405.517578125,331.48193359375
2.436706066131592,-147737610,0,-2.865891456604004,-0.05424739792943001,1.8428747653961182,-162.2314453125,42.8466796875,-143.49365234375
2.4440159797668457,-147737614,1,-0.7756032347679138,-0.11469879001379013,4.084871768951416,-247.37548828125,402.2216796875,295.41015625
2.444100856781006,-147737595,1,-1.046843409538269,0.17680510878562927,3.554598569869995,-218.75,415.83251953125,278.80859375
2.459083080291748,-147737591,0,-2.574387550354004,-0.1770501285791397,1.7325232028961182,-145.32470703125,117.919921875,-85.693359375
2.459204912185669,-147737572,0,-2.239914894104004,-0.2258782535791397,1.5176794528961182,-133.48388671875,172.607421875,-56.82373046875
2.484506845474243,-147737576,1,-1.991911768913269,-0.004347227513790131,2.904940366744995,-335.44921875,335.9375,373.53515625
2.489032030105591,-147737553,0,-1.7872782945632935,-0.2161126285791397,1.2420446872711182,-149.10888671875,219.3603515625,-54.62646484375
2.5040969848632812,-147737557,1,-1.854460597038269,-0.5688003301620483,2.749666929244995,-409.97314453125,150.146484375,512.75634765625
2.5042150020599365,-147737538,1,-1.837614893913269,-1.4359878301620483,2.895663022994995,-313.65966796875,6.53076171875,553.7109375
2.531420946121216,-147737534,0,-1.4271708726882935,-0.1833977848291397,0.9686072468757629,-182.92236328125,230.40771484375,-66.2841796875
2.531428813934326,-147737515,0,-1.3417216539382935,-0.2051263004541397,0.7615759968757629,-225.9521484375,225.4638671875,-63.29345703125
2.5365970134735107,-147737519,1,-1.602751612663269,-1.7790054082870483,2.913485288619995,-117.67578125,-81.0546875,495.66650390625
2.5366029739379883,-147737500,1,-1.324675440788269,0.7458969354629517,1.0338466167449951,86.0595703125,-163.4521484375,433.04443359375
2.5491740703582764,-147737496,0,-1.2596904039382935,-0.2615227997303009,0.6924842000007629,-302.67333984375,216.4306640625,-42.29736328125
2.56377911567688,-147737481,1,-0.8256520628929138,-1.7292007207870483,2.556551694869995,23.25439453125,-218.3837890625,463.92822265625
2.5874738693237305,-147737477,0,-1.1178447008132935,-0.2568841278553009,0.8172400593757629,-387.02392578125,229.3701171875,-19.4091796875
2.5874807834625244,-147737458,0,-0.9952861070632935,-0.2607903778553009,0.9517615437507629,-425.29296875,224.2431640625,10.19287109375
2.5939137935638428,-147737462,1,-0.7170094847679138,-1.7460464239120483,2.167635679244995,149.71923828125,-194.4580078125,356.93359375
2.594000816345215,-147737443,1,-0.5248708128929138,-1.4521011114120483,1.9164149761199951,192.07763671875,-194.3359375,217.041015625
2.6090049743652344,-147737439,0,-0.8300029039382935,-0.1377434879541397,1.1846716403961182,-414.55078125,224.42626953125,45.41015625
2.6090471744537354,-147737420,0,-0.6329814195632935,0.05317447707056999,1.3494665622711182,-359.86328125,229.98046875,68.29833984375
2.6331698894500732,-147737424,1,-0.49166765809059143,-1.2682632207870483,1.7294032573699951,200.62255859375,-199.40185546875,162.29248046875
2.638741970062256,-147737401,0,-0.46281540393829346,0.2279791682958603,1.2862341403961182,-294.00634765625,233.3984375,88.5009765625
2.6689138412475586,-147737382,0,-0.29045212268829346,0.3620123565196991,1.1355993747711182,-264.6484375,227.23388671875,93.8720703125
2.688910961151123,-147737405,1,-0.39669695496559143,-1.1508315801620483,1.5199306011199951,210.0830078125,-201.7822265625,120.9716796875
2.6889190673828125,-147737369,1,-0.25631609559059143,-0.9032729864120483,1.2945888042449951,232.60498046875,-175.47607421875,93.81103515625
2.6889238357543945,-147737350,1,-0.17965593934059143,-0.7951186895370483,1.2289149761199951,238.58642578125,-162.59765625,82.58056640625
2.6988728046417236,-147737346,0,0.05158890411257744,0.4242682158946991,0.7649939656257629,-309.326171875,242.85888671875,28.3203125
2.7141430377960205,-147737331,1,-0.12740984559059143,-0.6874526739120483,1.1878993511199951,229.1259765625,-160.888671875,61.5234375
2.7354891300201416,-147737327,0,-0.02897750213742256,0.3715338408946991,0.8721717000007629,-289.0625,216.12548828125,49.25537109375
2.735496997833252,-147737308,0,0.13679398596286774,0.7106451988220215,0.8987830281257629,-197.44873046875,201.35498046875,99.91455078125
2.7439889907836914,-147737312,1,-0.05807391554117203,-0.6520522832870483,1.0978114604949951,221.37451171875,-177.30712890625,40.283203125
2.744102954864502,-147737293,1,0.03323467820882797,-0.6491225957870483,0.9559656977653503,182.373046875,-199.27978515625,1.03759765625
2.75907301902771,-147737289,0,0.27497756481170654,1.0036139488220215,0.5660193562507629,-126.708984375,178.28369140625,89.05029296875
2.7591679096221924,-147737270,0,0.25862014293670654,0.8776373863220215,0.28061896562576294,-124.20654296875,158.203125,64.453125
2.7842910289764404,-147737274,1,0.10989483445882797,-0.6354507207870483,0.7967860102653503,144.34814453125,-213.9892578125,-28.6865234375
2.789283037185669,-147737251,0,-0.05461226776242256,0.5954108238220215,0.0025427937507629395,-179.3212890625,135.498046875,41.1376953125
2.804154872894287,-147737255,1,0.18899640440940857,-0.5941909551620483,0.6749598383903503,112.73193359375,-203.4912109375,-55.17578125
2.8042807579040527,-147737236,1,0.20022687315940857,-0.4862808287143707,0.6253992915153503,92.59033203125,-187.07275390625,-64.88037109375
2.832396984100342,-147737232,0,-0.13273726403713226,0.12080143392086029,0.22446662187576294,-250.67138671875,136.90185546875,57.2509765625
2.8324050903320312,-147737213,0,-0.19377242028713226,0.08808659017086029,0.5142615437507629,-261.16943359375,206.54296875,140.0146484375
2.8376920223236084,-147737217,1,0.26223859190940857,-0.4799331724643707,0.6205164790153503,79.40673828125,-170.654296875,-74.5849609375
2.8492419719696045,-147737194,0,-0.03581343963742256,0.2318854182958603,0.48642951250076294,-232.60498046875,212.95166015625,192.2607421875
2.8640120029449463,-147737198,1,0.32156476378440857,-0.4823745787143707,0.6307703852653503,81.1767578125,-161.2548828125,-98.32763671875
2.864114999771118,-147737179,1,0.26736554503440857,-0.4298843443393707,0.6503016352653503,71.8994140625,-168.9453125,-131.7138671875
2.885495185852051,-147737175,0,0.12458695471286774,0.1466803401708603,0.28867560625076294,-169.7998046875,156.6162109375,201.5380859375
2.8855018615722656,-147737156,0,0.18440140783786774,-0.03349544480443001,0.21689826250076294,-144.59228515625,61.767578125,185.4248046875
2.894047975540161,-147737160,1,0.20828351378440857,-0.3864273130893707,0.6503016352653503,52.18505859375,-182.18994140625,-160.15625
2.894134998321533,-147737141,1,0.09329327195882797,-0.3483413755893707,0.6586024165153503,32.958984375,-201.2939453125,-197.75390625
2.909118890762329,-147737137,0,0.26081740856170654,-0.05302669480443001,0.40171271562576294,-175.9033203125,16.54052734375,188.53759765625
2.938041925430298,-147737118,0,0.44294631481170654,-0.06547786295413971,0.6966345906257629,-234.06982421875,30.2734375,203.30810546875
2.9542908668518066,-147737105,1,-0.24899187684059143,-0.2653335630893707,0.7577235102653503,29.84619140625,-221.37451171875,-280.57861328125
2.9543700218200684,-147737086,1,-0.5922536253929138,-0.21528473496437073,0.8202235102653503,33.14208984375,-229.6142578125,-332.58056640625
2.9844930171966553,-147737082,0,1.1668232679367065,-0.08867122232913971,1.0052282810211182,-298.52294921875,72.8759765625,214.90478515625
2.9845011234283447,-147737063,0,1.5025166273117065,0.07514713704586029,1.1358435153961182,-311.6455078125,22.64404296875,210.44921875
2.988903045654297,-147737067,1,-1.094450831413269,-0.17475739121437073,0.8861414790153503,27.34375,-256.40869140625,-373.71826171875
2.9993510246276855,-147737044,0,1.5850361585617065,0.08466862142086029,1.3682653903961182,-331.4208984375,-26.0009765625,157.65380859375
3.0141048431396484,-147737048,1,-1.474089503288269,-0.17866364121437073,0.9762293696403503,18.4326171875,-286.31591796875,-403.80859375
3.0142321586608887,-147737029,1,-2.1069021224975586,-0.20625153183937073,1.1075770854949951,35.46142578125,-296.875,-438.41552734375
3.0340590476989746,-147737025,0,1.5874775648117065,-0.004442710429430008,1.7598669528961182,-371.9482421875,-28.564453125,85.99853515625
3.035245895385742,-147737006,0,1.5835713148117065,-0.11162044107913971,1.9617712497711182,-425.1708984375,7.99560546875,55.84716796875
3.0439717769622803,-147737010,1,-2.7843923568725586,-0.09492339938879013,1.0968348979949951,96.923828125,-309.63134765625,-453.43017578125
3.044050931930542,-147736991,1,-3.1444997787475586,0.15629729628562927,0.9679285883903503,161.4990234375,-351.07421875,-459.16748046875
3.0594570636749268,-147736987,0,1.8406513929367065,0.06001041457056999,2.129007577896118,-400.390625,-27.83203125,79.28466796875
3.0832200050354004,-147736972,1,-3.0798025131225586,0.18193206191062927,0.7247645258903503,165.6494140625,-370.91064453125,-447.021484375
3.089102029800415,-147736968,0,2.096755027770996,0.1806158870458603,2.311380624771118,-310.48583984375,-137.87841796875,60.11962890625
3.089216947555542,-147736949,0,2.197096824645996,0.1803717464208603,2.538675546646118,-289.85595703125,-203.79638671875,20.8740234375
3.1040608882904053,-147736953,1,-2.9347829818725586,-0.00923004001379013,0.45059460401535034,116.63818359375,-356.689453125,-453.125
3.104153871536255,-147736934,1,-2.6733083724975586,-0.4989761412143707,0.37881726026535034,50.1708984375,-322.57080078125,-526.7333984375
3.13175892829895,-147736930,0,2.183424949645996,0.2064947932958603,2.921976327896118,-304.19921875,-228.6376953125,-25.7568359375
3.1317660808563232,-147736911,0,2.140700340270996,0.3048834502696991,3.273782968521118,-324.89013671875,-199.40185546875,-90.33203125
3.1365950107574463,-147736915,1,-2.4508962631225586,-0.9447768926620483,0.6283289790153503,100.89111328125,-265.80810546875,-610.2294921875
3.1494998931884766,-147736892,0,1.9456318616867065,0.3561529815196991,3.482279062271118,-319.82421875,-208.31298828125,-165.771484375
3.164247989654541,-147736896,1,-2.3959646224975586,-1.1479018926620483,0.5838953852653503,269.1650390625,-172.91259765625,-655.21240234375
3.164339065551758,-147736877,1,-2.5453786849975586,-1.0290054082870483,0.7294031977653503,389.58740234375,-60.60791015625,-654.35791015625
3.1854469776153564,-147736873,0,1.6575459241867065,0.3122076690196991,3.582620859146118,-301.8798828125,-240.78369140625,-198.486328125
3.185454845428467,-147736854,0,1.3924092054367065,0.3515143096446991,3.535501718521118,-255.67626953125,-273.37646484375,-172.42431640625
3.1943728923797607,-147736841,1,-2.9010915756225586,0.3188949525356293,2.061434507369995,522.15576171875,-50.78125,-362.60986328125
3.2323970794677734,-147736822,1,-2.3041677474975586,-0.2892593443393707,1.9964931011199951,470.15380859375,-174.49951171875,-205.74951171875
3.2388930320739746,-147736818,0,1.2378681898117065,0.7077155113220215,3.396829843521118,-185.85205078125,-341.00341796875,-130.615234375
3.2389450073242188,-147736799,0,1.0791767835617065,0.5104498863220215,3.229593515396118,-163.0859375,-360.53466796875,-120.66650390625
3.254072904586792,-147736803,1,-3.3322439193725586,0.20024260878562927,1.8334071636199951,494.62890625,-276.91650390625,-102.294921875
3.254088878631592,-147736784,1,-3.5297536849975586,0.4614730775356293,1.0243251323699951,416.07666015625,-221.86279296875,-43.51806640625
3.2834599018096924,-147736780,0,1.3877705335617065,0.9540534019470215,3.106058359146118,-137.63427734375,-381.28662109375,-150.81787109375
3.283468008041382,-147736761,0,1.3887470960617065,0.6266608238220215,3.005228281021118,-97.412109375,-405.2734375,-205.078125
3.290256977081299,-147736765,1,-3.1708669662475586,0.10698089748620987,1.1691005229949951,389.09912109375,-96.19140625,19.775390625
3.299175977706909,-147736742,0,1.1311787366867065,0.4757818877696991,2.741312265396118,-72.32666015625,-412.2314453125,-196.22802734375
3.3138160705566406,-147736746,1,-2.8373708724975586,-0.07270660251379013,1.6627528667449951,447.6318359375,85.44921875,56.82373046875
3.313960075378418,-147736727,1,-2.5173025131225586,-0.6063979864120483,2.152498960494995,447.81494140625,187.6220703125,72.3876953125
3.3345248699188232,-147736723,0,1.1177510023117065,0.1801276057958603,2.510355234146118,-65.4296875,-423.88916015625,-200.439453125
3.3345329761505127,-147736704,0,1.0086201429367065,0.3646979033946991,2.424417734146118,-25.08544921875,-387.14599609375,-241.0888671875
3.3439760208129883,-147736708,1,-2.5173025131225586,-0.4149917662143707,2.273348569869995,435.85205078125,209.41162109375,190.61279296875
3.3601980209350586,-147736685,0,0.9810322523117065,0.3417486846446991,1.8589880466461182,-14.892578125,-378.11279296875,-324.951171875
3.383368968963623,-147736689,1,-1.698698878288269,-1.3773940801620483,2.233553647994995,457.763671875,226.98974609375,146.05712890625
3.383375883102417,-147736670,1,-2.3251638412475586,-1.1837905645370483,1.2923915386199951,461.9140625,298.64501953125,119.2626953125
3.3891358375549316,-147736666,0,1.1543720960617065,-0.3018060028553009,1.8326208591461182,-40.4052734375,-391.845703125,-385.1318359375
3.389309883117676,-147736647,0,0.7371357679367065,-0.1763177067041397,1.9507849216461182,28.564453125,-317.0166015625,-409.3017578125
3.406867027282715,-147736651,1,-2.0710134506225586,-0.005567930638790131,1.3548915386199951,416.1376953125,315.5517578125,209.228515625
3.40687894821167,-147736632,1,-1.656462550163269,-0.4069351255893707,1.6517665386199951,318.54248046875,294.921875,241.27197265625
3.4331278800964355,-147736628,0,0.40022170543670654,-0.4136224091053009,1.6346228122711182,39.97802734375,-258.056640625,-375.3662109375
3.4331347942352295,-147736609,0,0.10237015783786774,-0.3447747528553009,1.1622107028961182,56.15234375,-227.783203125,-322.021484375
3.4383270740509033,-147736613,1,-1.272185206413269,-0.2663101255893707,1.5987880229949951,286.68212890625,283.5693359375,241.8212890625
3.4510490894317627,-147736590,0,-0.04313765838742256,-0.2603020966053009,0.8475134968757629,68.4814453125,-231.0791015625,-325.86669921875
3.463958978652954,-147736577,1,-1.234587550163269,-0.03193511813879013,1.1468837261199951,240.234375,276.67236328125,309.99755859375
3.4861440658569336,-147736554,0,-0.43937790393829346,-0.3093743622303009,0.49790412187576294,20.1416015625,-168.5791015625,-400.87890625
3.495267868041992,-147736558,1,-0.9892262816429138,-0.12959137558937073,0.8358485102653503,180.72509765625,255.55419921875,298.9501953125
3.5094218254089355,-147736535,0,-0.5729228258132935,-0.4124017059803009,0.24570685625076294,-22.216796875,-103.45458984375,-403.25927734375
3.5335569381713867,-147736539,1,-0.8432301878929138,-0.22431793808937073,0.5921961665153503,134.33837890625,256.16455078125,285.46142578125
3.533565044403076,-147736520,1,-0.8095387816429138,-0.3556655943393707,0.45938366651535034,103.271484375,241.3330078125,241.88232421875
3.5441348552703857,-147736516,0,-0.5616923570632935,-0.3450188934803009,0.21860724687576294,-23.74267578125,-68.66455078125,-368.71337890625
3.544144868850708,-147736497,0,-0.36052048206329346,-0.2659173309803009,0.5833533406257629,41.93115234375,-38.57421875,-330.26123046875
3.554163932800293,-147736501,1,-0.6962575316429138,-0.3700698912143707,0.33633679151535034,84.53369140625,226.9287109375,189.63623046875
3.554232120513916,-147736482,1,-0.5151051878929138,-0.3395523130893707,0.20498913526535034,81.1767578125,234.375,133.97216796875
3.582404851913452,-147736478,0,-0.42009079456329346,0.05146549269556999,0.5127967000007629,98.0224609375,-22.216796875,-294.12841796875
3.5824131965637207,-147736459,0,-0.42472946643829346,-0.04838802292943001,0.44858771562576294,100.7080078125,-16.11328125,-285.33935546875
3.5892391204833984,-147736463,1,-0.45968523621559143,-0.3112320005893707,0.06192272901535034,90.39306640625,268.798828125,105.52978515625
3.5988259315490723,-147736440,0,-0.6122294664382935,-0.013720054179430008,0.25547248125076294,94.3603515625,-8.60595703125,-267.2119140625
3.61398983001709,-147736444,1,-0.37423601746559143,-0.17646637558937073,0.028963744640350342,97.47314453125,295.8984375,91.73583984375
3.614072799682617,-147736425,1,-0.5434255003929138,-0.18379059433937073,-0.07284289598464966,90.8203125,313.65966796875,70.12939453125
3.6404149532318115,-147736421,0,-0.6808329820632935,-0.11113215982913971,0.20932990312576294,108.58154296875,-29.1748046875,-244.07958984375
3.640423059463501,-147736402,0,-0.7172099351882935,-0.09013606607913971,0.24570685625076294,150.69580078125,-43.45703125,-225.09765625
3.644963026046753,-147736406,1,-0.5788258910179138,-0.2572769224643707,0.022371947765350342,76.7822265625,280.6396484375,65.3076171875
3.658723831176758,-147736383,0,-0.7530986070632935,-0.04350521042943001,0.41855841875076294,205.38330078125,-41.68701171875,-224.67041015625
3.6820600032806396,-147736387,1,-0.5336598753929138,-0.2611831724643707,0.05826061964035034,37.41455078125,233.3984375,67.87109375
3.6828019618988037,-147736368,1,-0.49069109559059143,-0.3354019224643707,0.05166882276535034,4.8828125,175.6591796875,48.76708984375
3.689054012298584,-147736364,0,-0.8400126695632935,-0.3533196747303009,0.6226599812507629,280.94482421875,-0.732421875,-207.70263671875
3.6891729831695557,-147736345,0,-0.8312236070632935,-0.7493157386779785,0.34971076250076294,277.83203125,25.5126953125,-155.33447265625
3.706477165222168,-147736349,1,-0.42892351746559143,-0.4167007505893707,-0.009122192859649658,-11.90185546875,136.53564453125,10.80322265625
3.731348991394043,-147736326,0,-0.9703837633132935,-0.5386223793029785,-0.09804314374923706,236.9384765625,55.35888671875,-159.97314453125
3.7360520362854004,-147736313,1,-0.25094500184059143,-0.3861831724643707,-0.25594836473464966,-24.4140625,163.2080078125,-53.16162109375
3.751246929168701,-147736290,0,-0.8556376695632935,-0.5188469886779785,-0.20107048749923706,110.90087890625,76.23291015625,-235.77880859375
3.7641549110412598,-147736294,1,-0.35128679871559143,-0.4413589537143707,-0.22713977098464966,-14.34326171875,209.3505859375,-69.4580078125
3.7642760276794434,-147736275,1,-0.45236101746559143,-0.4145034849643707,-0.08822375535964966,-2.38037109375,246.15478515625,-89.90478515625
3.7859158515930176,-147736271,0,-0.8483134508132935,-0.5349602699279785,-0.26259392499923706,55.11474609375,85.38818359375,-252.13623046875
3.785923957824707,-147736252,0,-0.7740947008132935,-0.5872063636779785,-0.30385369062423706,2.01416015625,82.763671875,-249.45068359375
3.7978129386901855,-147736256,1,-0.5802907347679138,-0.2763198912143707,0.03995007276535034,-24.96337890625,267.822265625,-110.7177734375
3.8092949390411377,-147736233,0,-0.6456767320632935,-0.5681633949279785,-0.28456658124923706,-25.146484375,69.03076171875,-216.6748046875
3.834078073501587,-147736237,1,-0.7585133910179138,-0.08320464938879013,0.09073132276535034,-73.8525390625,278.3203125,-104.18701171875
3.8340909481048584,-147736218,1,-0.9555348753929138,0.12846526503562927,-0.017178833484649658,-136.53564453125,307.0068359375,-94.970703125
3.839123010635376,-147736214,0,-0.5712138414382935,-0.5649895668029785,-0.37734001874923706,-26.79443359375,37.7197265625,-177.734375
3.8391308784484863,-147736195,0,-0.6866923570632935,-0.6147942543029785,-0.5907189249992371,1.46484375,1.03759765625,-165.95458984375
3.854076862335205,-147736199,1,-1.267302393913269,0.2673812806606293,-0.08236438035964966,-218.32275390625,355.95703125,-47.607421875
3.854203939437866,-147736180,1,-1.667937159538269,0.3711410462856293,0.016512572765350342,-272.64404296875,422.7294921875,-6.591796875
3.883465051651001,-147736176,0,-0.8092509508132935,-0.8674798011779785,-0.8448693156242371,50.59814453125,-118.5302734375,-146.30126953125
3.8908638954162598,-147736161,1,-2.0986013412475586,0.4499984681606293,0.28726452589035034,-305.60302734375,502.62451171875,24.169921875
3.8990180492401123,-147736157,0,-0.8912822008132935,-0.9453606605529785,-0.9171349406242371,26.4892578125,-213.5009765625,-85.3271484375
3.8990988731384277,-147736138,0,-0.9696513414382935,-0.8508782386779785,-0.9598595499992371,-53.40576171875,-241.14990234375,-36.07177734375
3.91399884223938,-147736142,1,-2.5878591537475586,0.5237289667129517,0.6769129633903503,-305.908203125,579.345703125,70.61767578125
3.91408109664917,-147736123,1,-3.0031423568725586,0.7651840448379517,1.4000575542449951,-312.01171875,674.1943359375,160.33935546875
3.9386649131774902,-147736119,0,-1.1715556383132935,-0.7017083168029785,-0.9896447062492371,-206.60400390625,-236.02294921875,-59.87548828125
3.9386730194091797,-147736100,0,-1.5089579820632935,-0.5659661293029785,-0.9688927531242371,-336.12060546875,-248.046875,-140.2587890625
3.9437899589538574,-147736104,1,-3.2211599349975586,0.8394027948379517,2.051668882369995,-414.24560546875,743.1640625,234.619140625
3.958796977996826,-147736081,0,-1.8654032945632935,-0.3965325653553009,-0.7110802531242371,-398.74267578125,-299.49951171875,-196.83837890625
3.982874870300293,-147736085,1,-3.4933767318725586,0.3440414369106293,3.072420835494995,-503.173828125,732.36083984375,328.2470703125
3.989074945449829,-147736062,0,-2.307541847229004,-0.2351555973291397,-0.39150017499923706,-416.80908203125,-349.30419921875,-210.0830078125
4.003826856613159,-147736049,1,-1.524626612663269,-0.8017104864120483,5.475252628326416,-243.5302734375,524.90234375,408.447265625
4.003907203674316,-147736030,1,-1.451872706413269,-0.7768081426620483,5.182039737701416,-90.576171875,465.576171875,396.8505859375
4.0321269035339355,-147736026,0,-3.226243019104004,-0.4458489716053009,1.4827673435211182,-429.3212890625,-334.65576171875,-227.783203125
4.037251949310303,-147736011,1,-1.481413722038269,-0.6059097051620483,4.926180362701416,-80.87158203125,380.79833984375,415.8935546875
4.048954963684082,-147736007,0,-3.489670753479004,-0.9133782386779785,2.604593515396118,-416.44287109375,-125.30517578125,-252.3193359375
4.049076080322266,-147735988,0,-3.366623878479004,-1.3650383949279785,2.781351327896118,-294.12841796875,66.10107421875,-169.86083984375
4.064223051071167,-147735992,1,-1.671355128288269,-0.7062515020370483,5.147615909576416,-83.67919921875,234.55810546875,450.1953125
4.064346790313721,-147735973,1,-2.1025075912475586,-1.3000015020370483,4.973787784576416,-11.5966796875,14.70947265625,481.201171875
4.086233854293823,-147735969,0,-2.516037940979004,-1.3555169105529785,2.280374765396118,-145.32470703125,167.724609375,-12.02392578125
4.086243152618408,-147735950,0,-2.000657081604004,-1.2144036293029785,1.8831579685211182,-140.56396484375,225.7080078125,42.3583984375
4.094148874282837,-147735954,1,-1.541472315788269,0.5803695917129517,3.193758726119995,105.28564453125,-194.39697265625,466.4306640625
4.109326124191284,-147735931,0,-1.3488017320632935,-0.9460930824279785,1.4197790622711182,-241.3330078125,292.96875,32.1044921875
4.135699987411499,-147735935,1,-1.500456690788269,-1.9083999395370483,3.139803647994995,26.123046875,-269.71435546875,512.3291015625
4.141645193099976,-147735912,0,-0.9628154039382935,-0.7727532386779785,1.0242712497711182,-334.716796875,313.65966796875,52.3681640625
4.141654968261719,-147735893,0,-0.6757060289382935,-0.6011223793029785,0.9241736531257629,-385.55908203125,293.39599609375,100.40283203125
4.154433965682983,-147735916,1,-1.100798487663269,-1.9357436895370483,2.334139585494995,123.84033203125,-253.72314453125,413.26904296875
4.15459418296814,-147735897,1,-0.9987477660179138,-1.7150405645370483,1.8190028667449951,180.11474609375,-254.7607421875,377.99072265625
4.155494928359985,-147735878,1,-0.8944997191429138,-1.7711929082870483,1.5375087261199951,203.43017578125,-233.45947265625,379.8828125
4.18250298500061,-147735874,0,-0.48161423206329346,-0.5225090980529785,1.0130407810211182,-419.12841796875,272.27783203125,143.1884765625
4.189860820770264,-147735859,1,-0.6325368285179138,-1.8859390020370483,1.4005458354949951,254.33349609375,-204.77294921875,333.92333984375
4.199038982391357,-147735855,0,-0.27385056018829346,-0.3774895966053009,1.1780798435211182,-443.66455078125,267.39501953125,169.73876953125
4.199129819869995,-147735836,0,-0.04679976776242256,-0.1753411442041397,1.3348181247711182,-439.5751953125,265.93017578125,157.28759765625
4.213717937469482,-147735840,1,-0.40426531434059143,-1.7755874395370483,1.2999598979949951,295.71533203125,-182.31201171875,262.5732421875
4.213774919509888,-147735821,1,-0.29464617371559143,-1.5138686895370483,1.1717860698699951,272.4609375,-178.3447265625,201.7822265625
4.237469911575317,-147735817,0,0.008620154112577438,-0.010790366679430008,1.4561560153961182,-418.212890625,250.8544921875,146.91162109375
4.258124113082886,-147735798,0,0.14265336096286774,0.2428717464208603,1.4449255466461182,-356.201171875,237.9150390625,118.65234375
4.283459186553955,-147735785,1,-0.06613055616617203,-1.2062515020370483,0.9647547602653503,139.83154296875,-182.0068359375,80.2001953125
4.283466100692749,-147735766,1,0.07278545945882797,-1.1532729864120483,0.8934656977653503,95.15380859375,-179.8095703125,6.591796875
4.28941011428833,-147735762,0,0.26106154918670654,0.2633795440196991,0.9214881062507629,-332.33642578125,215.51513671875,24.90234375
4.289528131484985,-147735743,0,0.20808304846286774,0.3073248565196991,1.1063024997711182,-255.615234375,171.9970703125,83.80126953125
4.30408501625061,-147735747,1,0.11160381883382797,-1.0890640020370483,0.8739344477653503,72.3876953125,-181.0302734375,-53.22265625
4.332582950592041,-147735724,0,0.6248310804367065,1.2221198081970215,1.2073767185211182,-124.69482421875,181.7626953125,41.32080078125
4.337471008300781,-147735728,1,0.09134014695882797,-0.9323257207870483,0.8241297602653503,49.62158203125,-187.3779296875,-106.5673828125
4.337477922439575,-147735709,1,0.05056866258382797,-0.7819350957870483,0.7748133540153503,39.73388671875,-191.162109375,-139.5263671875
4.348881006240845,-147735705,0,0.33991897106170654,2.0387701988220215,1.0743200778961182,-27.4658203125,196.71630859375,-64.39208984375
4.348985910415649,-147735686,0,0.05403031036257744,0.3974127471446991,0.8099158406257629,-37.04833984375,170.654296875,-111.9384765625
4.3641579151153564,-147735690,1,0.11941631883382797,-0.7265151739120483,0.7608973383903503,40.58837890625,-183.9599609375,-169.43359375
4.3642308712005615,-147735671,1,0.16800031065940857,-0.6696304082870483,0.7716395258903503,46.56982421875,-180.48095703125,-196.2890625
4.384856939315796,-147735667,0,-0.15861617028713226,0.12373112142086029,0.5193884968757629,-134.94873046875,117.37060546875,54.6875
4.398607969284058,-147735652,1,0.13186749815940857,-0.4938491880893707,0.7684656977653503,49.98779296875,-180.0537109375,-229.98046875
4.409096002578735,-147735648,0,0.05573929473757744,0.3141607940196991,0.5691931843757629,-219.3603515625,115.234375,172.30224609375
4.409224987030029,-147735629,0,0.29548537731170654,0.5602545738220215,0.6377967000007629,-241.2109375,132.26318359375,185.85205078125
4.4329118728637695,-147735633,1,0.009064756333827972,-0.3498062193393707,0.7357508540153503,36.19384765625,-194.03076171875,-255.615234375
4.432919979095459,-147735614,1,-0.04904071241617203,-0.22700348496437073,0.7401453852653503,13.3056640625,-218.017578125,-288.87939453125
4.442624092102051,-147735610,0,0.22614945471286774,0.5114264488220215,0.43638068437576294,-213.19580078125,106.14013671875,111.02294921875
4.442631959915161,-147735591,0,0.27741897106170654,0.07124088704586029,0.38926154375076294,-214.53857421875,54.38232421875,57.7392578125
4.454102039337158,-147735595,1,-0.13717547059059143,-0.17060700058937073,0.7501551508903503,2.38037109375,-233.45947265625,-318.359375
4.482594013214111,-147735572,0,0.5301045179367065,-0.03788997605443001,0.6426795125007629,-284.97314453125,6.89697265625,133.97216796875
4.489351034164429,-147735576,1,-0.33175554871559143,-0.16621246933937073,0.7545496821403503,-7.01904296875,-257.6904296875,-343.505859375
4.489358901977539,-147735557,1,-0.49728289246559143,-0.13130035996437073,0.7574793696403503,-4.45556640625,-293.15185546875,-371.4599609375
4.4989259243011475,-147735553,0,0.9793232679367065,0.3534674346446991,1.0501501560211182,-311.279296875,-27.83203125,229.67529296875
4.49904990196228,-147735534,0,1.4605244398117065,0.7506842613220215,1.2527868747711182,-269.71435546875,-70.37353515625,250.3662109375
4.514062166213989,-147735521,1,-1.024870753288269,-0.01240386813879013,0.7643153071403503,-14.34326171875,-326.2939453125,-441.162109375
4.542979001998901,-147735502,1,-1.498259425163269,-0.01753082126379013,0.8470789790153503,-19.10400390625,-316.22314453125,-485.9619140625
4.559147119522095,-147735498,0,1.4304951429367065,0.7179694175720215,1.5010778903961182,-349.42626953125,-62.19482421875,77.08740234375
4.559165000915527,-147735479,0,1.4734638929367065,0.7018561363220215,1.7254431247711182,-377.38037109375,-71.10595703125,89.4775390625
4.586030960083008,-147735483,1,-2.0216970443725586,0.02446136623620987,1.0033290386199951,-7.14111328125,-310.85205078125,-512.3291015625
4.586038112640381,-147735464,1,-2.4120779037475586,0.16191253066062927,1.0768153667449951,32.89794921875,-308.349609375,-516.41845703125
4.590134143829346,-147735460,0,1.5891865491867065,0.8422369956970215,1.9039099216461182,-338.7451171875,-111.75537109375,109.375
4.590139865875244,-147735441,0,1.6197041273117065,0.9601569175720215,2.048441171646118,-289.36767578125,-159.5458984375,84.16748046875
4.603749990463257,-147735445,1,-2.6969900131225586,0.3464828431606293,1.0846278667449951,83.43505859375,-298.7060546875,-503.84521484375
4.631904125213623,-147735422,0,1.5996845960617065,0.8292975425720215,2.209329843521118,-281.79931640625,-177.67333984375,48.52294921875
4.637008905410767,-147735426,1,-2.8515310287475586,0.4529281556606293,0.9012781977653503,129.7607421875,-290.8935546875,-472.47314453125
4.63701605796814,-147735407,1,-2.6879568099975586,0.4182601869106293,0.8404871821403503,138.3056640625,-280.2734375,-464.599609375
4.6490278244018555,-147735403,0,1.7051533460617065,0.8407721519470215,2.288919687271118,-275.81787109375,-199.70703125,23.681640625
4.6491310596466064,-147735384,0,1.6343525648117065,0.7101569175720215,2.365335702896118,-269.59228515625,-221.86279296875,-10.986328125
4.664026975631714,-147735388,1,-2.5981130599975586,0.3823715150356293,0.6459071040153503,132.6904296875,-224.12109375,-476.4404296875
4.685529947280884,-147735365,0,1.4700459241867065,0.4450201690196991,2.413919687271118,-278.6865234375,-242.5537109375,-66.162109375
4.694000005722046,-147735369,1,-2.5465993881225586,0.18412932753562927,0.6634852290153503,108.7646484375,-189.39208984375,-500.67138671875
4.6940999031066895,-147735350,1,-2.2914724349975586,-0.13081207871437073,0.8815028071403503,169.5556640625,-154.23583984375,-498.1689453125
4.709085941314697,-147735346,0,1.3872822523117065,0.3754400908946991,2.585062265396118,-266.05224609375,-266.2353515625,-95.8251953125
4.709203004837036,-147735327,0,1.4077900648117065,0.4254889190196991,2.774515390396118,-246.39892578125,-284.1796875,-122.86376953125
4.734111070632935,-147735331,1,-2.1506032943725586,-0.2794937193393707,1.0707118511199951,270.263671875,-108.09326171875,-492.24853515625
4.7341179847717285,-147735312,1,-2.1620779037475586,0.18242034316062927,1.3966395854949951,383.85009765625,-59.326171875,-432.67822265625
4.73889684677124,-147735308,0,1.4551533460617065,0.5543951988220215,2.946634531021118,-229.736328125,-297.54638671875,-142.63916015625
4.738997936248779,-147735289,0,1.4632099866867065,0.6618170738220215,3.138773202896118,-196.1669921875,-339.17236328125,-140.2587890625
4.754173994064331,-147735293,1,-2.2902517318725586,0.6819320917129517,1.8690516948699951,415.4052734375,-53.52783203125,-282.53173828125
4.781708002090454,-147735270,0,1.5686787366867065,0.8466315269470215,3.221536874771118,-152.64892578125,-376.52587890625,-110.41259765625
4.787785053253174,-147735257,1,-3.1503591537475586,0.4758773744106293,1.9964931011199951,592.46826171875,-86.85302734375,-80.01708984375
4.79904580116272,-147735234,0,1.9973896741867065,0.8605475425720215,2.972757577896118,-107.7880859375,-409.7900390625,-220.703125
4.815717935562134,-147735238,1,-3.5282888412475586,0.6182113885879517,1.1517665386199951,573.73046875,-62.255859375,-13.48876953125
4.837881803512573,-147735215,0,1.7398213148117065,0.3495611846446991,2.838236093521118,-116.0888671875,-404.78515625,-310.85205078125
4.845510959625244,-147735219,1,-3.2404470443725586,0.23027190566062927,1.0672938823699951,512.6953125,43.64013671875,40.283203125
4.8456199169158936,-147735200,1,-2.7682790756225586,0.08134613186120987,1.8304774761199951,544.5556640625,140.0146484375,69.76318359375
4.860512018203735,-147735196,0,1.4187763929367065,0.1496100276708603,2.702005624771118,-104.06494140625,-399.658203125,-323.486328125
4.860594987869263,-147735177,0,1.2578877210617065,-0.2148919254541397,2.708597421646118,-94.3603515625,-406.6162109375,-341.85791015625
4.88615083694458,-147735181,1,-3.4574880599975586,0.16313323378562927,1.8053309917449951,603.33251953125,196.96044921875,179.8095703125
4.8861589431762695,-147735162,1,-3.1239919662475586,-0.3800796568393707,1.9332606792449951,493.408203125,185.4248046875,293.88427734375
4.890436887741089,-147735158,0,1.0032490491867065,-0.06303645670413971,2.842630624771118,-7.568359375,-372.13134765625,-411.07177734375
4.890550136566162,-147735139,0,0.8050068616867065,-0.1858391910791397,2.295267343521118,18.61572265625,-355.28564453125,-441.650390625
4.905323028564453,-147735143,1,-1.802946925163269,-1.4672378301620483,1.7875087261199951,561.5234375,211.7919921875,171.20361328125
4.934148788452148,-147735120,0,0.7774189710617065,-0.6130852699279785,2.000101327896118,19.10400390625,-362.97607421875,-437.19482421875
4.938807010650635,-147735124,1,-2.4159841537475586,-1.4032729864120483,0.18667858839035034,522.15576171875,296.20361328125,98.08349609375
4.938813924789429,-147735105,1,-2.0373220443725586,0.20805510878562927,-0.09237414598464966,349.9755859375,353.57666015625,168.27392578125
4.950578927993774,-147735101,0,0.48078811168670654,-0.5256829261779785,1.9900915622711182,74.64599609375,-321.4111328125,-446.8994140625
4.950661897659302,-147735082,0,-0.02970992401242256,-0.6020989418029785,1.6309607028961182,89.78271484375,-236.6943359375,-386.3525390625
4.965471982955933,-147735086,1,-1.921599268913269,-0.11982574313879013,0.49600476026535034,197.32666015625,411.92626953125,241.27197265625
4.986067056655884,-147735063,0,-0.21720992028713226,-0.7368645668029785,1.2344763278961182,81.787109375,-217.28515625,-302.001953125
4.995382070541382,-147735067,1,-2.2511892318725586,-0.3029312193393707,0.7088953852653503,127.5634765625,397.88818359375,326.72119140625
4.995480060577393,-147735048,1,-2.1391286849975586,-0.4909195005893707,0.9156824946403503,92.46826171875,316.22314453125,309.4482421875
5.010616064071655,-147735044,0,-0.30900681018829346,-0.4597649872303009,1.0247595310211182,94.78759765625,-219.05517578125,-266.05224609375
5.010695934295654,-147735025,0,-0.42277634143829346,-0.2681145966053009,0.8501990437507629,89.90478515625,-194.64111328125,-292.05322265625
5.032701015472412,-147735029,1,-1.484587550163269,-0.5067886114120483,0.6849696040153503,90.39306640625,222.5341796875,218.75
5.040248870849609,-147735006,0,-0.5331279039382935,-0.1780266910791397,0.5843299031257629,49.98779296875,-133.6669921875,-323.2421875
5.05574107170105,-147734993,1,-1.130339503288269,-0.12348785251379013,0.09195202589035034,147.3388671875,268.12744140625,174.74365234375
5.081501007080078,-147734970,0,-0.23405562341213226,-0.2202630192041397,0.6460974812507629,13.0615234375,-31.55517578125,-385.6201171875
5.08669114112854,-147734974,1,-1.197234034538269,-0.01093902438879013,-0.12875109910964966,121.27685546875,335.51025390625,190.73486328125
5.086698055267334,-147734955,1,-1.494109034538269,-0.12666168808937073,-0.10091906785964966,61.6455078125,336.181640625,171.5087890625
5.099920988082886,-147734951,0,-0.31144821643829346,-0.06230403855443001,0.8738806843757629,92.7734375,17.02880859375,-427.79541015625
5.100056886672974,-147734932,0,-0.25016891956329346,-0.2292962223291397,0.6319373250007629,125.8544921875,30.57861328125,-427.91748046875
5.115586996078491,-147734936,1,-1.414763331413269,-0.18964996933937073,0.05996960401535034,30.1513671875,296.142578125,103.33251953125
5.138231992721558,-147734913,0,-0.41276657581329346,-0.4177727997303009,0.26182013750076294,152.9541015625,-23.62060546875,-398.3154296875
5.1454668045043945,-147734917,1,-1.143278956413269,-0.2567886412143707,0.09366101026535034,6.4697265625,259.33837890625,69.39697265625
5.145539045333862,-147734898,1,-0.9237965941429138,-0.24726715683937073,0.09463757276535034,-14.16015625,256.4697265625,78.67431640625
5.1605141162872314,-147734894,0,-0.6617900133132935,-0.6433587074279785,0.15293341875076294,163.4521484375,-94.29931640625,-317.68798828125
5.160597085952759,-147734875,0,-0.8541728258132935,-0.7024407386779785,0.21982795000076294,181.33544921875,-127.99072265625,-253.11279296875
5.187294960021973,-147734879,1,-0.8539723753929138,-0.3183120787143707,0.12369030714035034,-48.15673828125,263.427734375,104.00390625
5.1873040199279785,-147734860,1,-0.8529958128929138,-0.4108413755893707,0.20791882276535034,-62.3779296875,261.23046875,105.46875
5.190680027008057,-147734856,0,-1.0551005601882935,-0.6094231605529785,0.5118201375007629,215.576171875,-130.31005859375,-198.73046875
5.2038609981536865,-147734841,1,-0.8637380003929138,-0.5653823614120483,0.34512585401535034,-61.34033203125,252.0751953125,80.13916015625
5.2220540046691895,-147734837,0,-1.3365947008132935,-0.4172845184803009,0.7120154500007629,256.16455078125,-68.9697265625,-127.38037109375
5.222066879272461,-147734818,0,-1.1632548570632935,-0.9438958168029785,0.6749060750007629,255.67626953125,-24.4140625,-75.74462890625
5.240712881088257,-147734822,1,-0.7377614378929138,-0.6068862676620483,0.42203015089035034,-35.15625,243.34716796875,36.80419921875
5.241966962814331,-147734803,1,-0.6220387816429138,-0.6369155645370483,0.35000866651535034,-21.3623046875,260.19287109375,-4.57763671875
5.250627040863037,-147734799,0,-1.1224833726882935,-0.7786126136779785,0.24033576250076294,197.44873046875,-12.0849609375,-73.3642578125
5.250746965408325,-147734780,0,-1.1161357164382935,-0.7837395668029785,0.09116584062576294,141.2353515625,-15.19775390625,-120.361328125
5.263836860656738,-147734784,1,-0.6525563597679138,-0.7038100957870483,0.25259655714035034,-25.32958984375,278.564453125,-31.31103515625
5.2843918800354,-147734761,0,-1.1625224351882935,-0.7478508949279785,0.01450568437576294,78.0029296875,-16.17431640625,-187.6220703125
5.294035911560059,-147734765,1,-0.6498708128929138,-0.7851089239120483,0.23941296339035034,-34.0576171875,288.0859375,-82.09228515625
5.309112787246704,-147734742,0,-1.1603251695632935,-0.8079094886779785,-0.05067986249923706,30.3955078125,-31.494140625,-214.111328125
5.3340208530426025,-147734729,1,-0.7399587035179138,-0.7487319707870483,0.22036999464035034,-47.66845703125,319.39697265625,-166.56494140625
5.334029197692871,-147734710,1,-0.8483571410179138,-0.5377944707870483,0.12954968214035034,-70.73974609375,353.57666015625,-180.908203125
5.338754177093506,-147734706,0,-1.2379618883132935,-0.9009270668029785,-0.17299431562423706,-77.69775390625,-72.69287109375,-157.16552734375
5.354156970977783,-147734691,1,-1.146696925163269,-0.4354995787143707,-0.07284289598464966,-148.3154296875,423.40087890625,-177.42919921875
5.383747100830078,-147734687,0,-1.2220927476882935,-0.7764153480529785,-0.24648064374923706,-119.9951171875,-89.66064453125,-110.83984375
5.383756160736084,-147734668,0,-1.1808329820632935,-0.5532708168029785,-0.35072869062423706,-165.34423828125,-93.505859375,-116.5771484375
5.389286994934082,-147734672,1,-1.639616847038269,-0.4806655943393707,-0.12362414598464966,-242.37060546875,510.986328125,-186.82861328125
5.389294862747192,-147734653,1,-2.2621755599975586,-0.5724624395370483,0.03726452589035034,-307.18994140625,574.8291015625,-206.0546875
5.400744915008545,-147734649,0,-1.2013407945632935,-0.3870110809803009,-0.47060173749923706,-217.1630859375,-108.82568359375,-164.12353515625
5.400755882263184,-147734630,0,-1.3444072008132935,-0.4001946747303009,-0.47304314374923706,-232.421875,-150.81787109375,-204.4677734375
5.414124011993408,-147734634,1,-3.2323904037475586,-0.4767593443393707,0.6615321040153503,-308.59375,637.5732421875,-230.16357421875
5.436861038208008,-147734611,0,-1.4977275133132935,-0.3523431122303009,-0.17567986249923706,-246.7041015625,-250.0,-188.96484375
5.445326089859009,-147734615,1,-3.6864919662475586,0.23246917128562927,1.4647548198699951,-239.1357421875,696.4111328125,-212.7685546875
5.445333957672119,-147734596,1,-3.9384450912475586,1.2185531854629517,2.324373960494995,-314.3310546875,711.181640625,-105.95703125
5.4590489864349365,-147734592,0,-1.7259989976882935,-0.3335442841053009,0.42515021562576294,-280.8837890625,-309.26513671875,-188.96484375
5.4591429233551025,-147734573,0,-2.003586769104004,-0.4736810028553009,1.0904333591461182,-310.85205078125,-290.58837890625,-208.92333984375
5.483353853225708,-147734577,1,-3.9159841537475586,1.3337875604629517,2.834872007369995,-501.64794921875,607.23876953125,-19.59228515625
5.489043951034546,-147734554,0,-2.219407081604004,-0.6360344886779785,1.6282751560211182,-304.3212890625,-258.4228515625,-184.63134765625
5.505440950393677,-147734558,1,-3.2099294662475586,0.7563949823379517,3.394686460494995,-672.54638671875,417.48046875,122.314453125
5.505518913269043,-147734539,1,-2.2106618881225586,-0.09028472751379013,4.006502628326416,-640.31982421875,356.62841796875,273.4375
5.5328309535980225,-147734535,0,-2.424973487854004,-0.7810540199279785,2.217630624771118,-251.64794921875,-178.89404296875,-114.6240234375
5.532837867736816,-147734516,0,-2.382493019104004,-0.7351555824279785,2.443460702896118,-192.3828125,-79.77294921875,-85.63232421875
5.538218021392822,-147734520,1,-1.721159815788269,-0.4962905943393707,4.342684268951416,-400.634765625,400.146484375,332.21435546875
5.5382239818573,-147734501,1,-1.867400050163269,-0.16718903183937073,4.379793643951416,-201.35498046875,425.72021484375,379.8828125
5.550851821899414,-147734497,0,-2.348313331604004,-0.8496575355529785,2.261575937271118,-163.51318359375,-8.7890625,-70.37353515625
5.58642315864563,-147734478,0,-1.9821025133132935,-0.9751458168029785,2.024027109146118,-178.955078125,70.068359375,-57.7392578125
5.595350980758667,-147734465,1,-2.5055837631225586,0.12431488186120987,5.185701847076416,-107.91015625,244.2626953125,489.1357421875
5.595460891723633,-147734446,1,-2.5546560287475586,-0.3344253599643707,4.933992862701416,-106.5673828125,32.89794921875,490.66162109375
5.610474109649658,-147734442,0,-1.3295146226882935,-1.2954583168029785,1.2381384372711182,-271.240234375,136.53564453125,-56.15234375
5.610606908798218,-147734423,0,-1.1376200914382935,-1.2747063636779785,0.9510291218757629,-330.38330078125,127.197265625,-37.41455078125
5.632791996002197,-147734427,1,-2.1567068099975586,-1.4379409551620483,4.749666690826416,7.01904296875,-167.78564453125,470.88623046875
5.640587091445923,-147734404,0,-1.0441142320632935,-1.1841301918029785,0.9385779500007629,-402.9541015625,109.0087890625,15.7470703125
5.6556549072265625,-147734408,1,-2.1242361068725586,-0.5946792364120483,2.401278257369995,-77.392578125,-211.5478515625,502.01416015625
5.655671119689941,-147734389,1,-1.522917628288269,-1.8427261114120483,2.830477476119995,8.1787109375,-338.2568359375,502.86865234375
5.6810009479522705,-147734385,0,-0.9393779039382935,-1.0176262855529785,1.0079138278961182,-462.09716796875,101.5625,68.9697265625
5.6810078620910645,-147734366,0,-0.7723857164382935,-0.8369622230529785,1.1189978122711182,-517.333984375,108.5205078125,138.671875
5.68537712097168,-147734370,1,-1.323943018913269,-2.019239902496338,2.296053647994995,162.59765625,-329.2236328125,411.92626953125
5.6854541301727295,-147734351,1,-1.155974268913269,-1.7599624395370483,1.7862880229949951,270.5078125,-347.16796875,335.02197265625
5.7004570960998535,-147734347,0,-0.5116435289382935,-0.6758294105529785,1.2586462497711182,-552.18505859375,127.44140625,206.11572265625
5.714677095413208,-147734332,1,-0.9982594847679138,-1.5668472051620483,1.2770106792449951,264.34326171875,-329.7119140625,313.8427734375
5.73804497718811,-147734328,0,-0.24186812341213226,-0.4900384247303009,1.3162634372711182,-548.7060546875,167.41943359375,235.90087890625
5.738053798675537,-147734309,0,0.04475296661257744,-0.3623528778553009,1.5574743747711182,-505.9814453125,184.2041015625,234.86328125
5.745607852935791,-147734313,1,-0.6347340941429138,-1.4015640020370483,0.9972254633903503,225.341796875,-299.01123046875,273.13232421875
5.745686054229736,-147734294,1,-0.35739031434059143,-1.3190444707870483,0.8944422602653503,164.1845703125,-251.3427734375,197.3876953125
5.760680913925171,-147734290,0,0.16828812658786774,-0.05205013230443001,1.5189001560211182,-385.31494140625,213.7451171875,203.91845703125
5.760771751403809,-147734271,0,0.01643265411257744,0.023389320820569992,0.8514197468757629,-266.78466796875,179.01611328125,167.66357421875
5.784668922424316,-147734275,1,-0.12960711121559143,-1.2553237676620483,0.9693934321403503,111.328125,-230.224609375,103.515625
5.790584087371826,-147734252,0,0.14485062658786774,-0.023729819804430008,0.5320838093757629,-281.6162109375,122.6806640625,151.42822265625
5.8055949211120605,-147734256,1,0.06399639695882797,-1.1935561895370483,0.9977137446403503,77.7587890625,-249.69482421875,16.54052734375
5.805668830871582,-147734237,1,0.04592999070882797,-1.1342300176620483,0.9208094477653503,61.03515625,-264.2822265625,-33.38623046875
5.8340559005737305,-147734233,0,0.14118851721286774,-0.1848626285791397,0.7439978718757629,-339.66064453125,113.95263671875,145.751953125
5.834064960479736,-147734214,0,0.31111037731170654,0.2387213557958603,1.1470739841461182,-279.1748046875,107.48291015625,118.2861328125
5.841692924499512,-147734201,1,0.09280499070882797,-0.8778823614120483,0.6629969477653503,33.0810546875,-253.47900390625,-114.013671875
5.863629102706909,-147734182,1,0.21609601378440857,-0.7152847051620483,0.5721766352653503,34.1796875,-233.3984375,-131.9580078125
5.890815019607544,-147734178,0,-0.22258101403713226,0.6232428550720215,1.3970739841461182,-65.73486328125,97.412109375,-7.4462890625
5.890822887420654,-147734159,0,-0.6488505601882935,-0.5085930824279785,0.8191931843757629,-109.0087890625,61.95068359375,167.3583984375
5.89548397064209,-147734163,1,0.24368390440940857,-0.6381362676620483,0.5736414790153503,41.80908203125,-218.3837890625,-145.263671875
5.895627021789551,-147734144,1,0.23367413878440857,-0.5609878301620483,0.5423914790153503,40.58837890625,-219.6044921875,-177.490234375
5.911674976348877,-147734140,0,-0.49235641956329346,-0.3391595184803009,0.7955115437507629,-161.56005859375,32.65380859375,285.0341796875
5.911683082580566,-147734121,0,0.13459672033786774,0.031201820820569992,1.3338415622711182,-158.63037109375,32.77587890625,305.48095703125
5.932240962982178,-147734125,1,0.13797101378440857,-0.4550308287143707,0.5179774165153503,21.91162109375,-225.09765625,-207.6416015625
5.9409401416778564,-147734102,0,0.34699904918670654,0.1923346370458603,1.2515661716461182,-161.31591796875,70.12939453125,285.2783203125
5.955556869506836,-147734106,1,0.05813702195882797,-0.4169448912143707,0.5091883540153503,-5.0048828125,-223.7548828125,-231.62841796875
5.95564079284668,-147734087,1,-0.06661883741617203,-0.4083999693393707,0.49746960401535034,-26.9775390625,-232.2998046875,-256.2255859375
5.982048034667969,-147734083,0,0.35090529918670654,-0.03325130417943001,1.0984899997711182,-162.78076171875,94.90966796875,247.314453125
5.982054948806763,-147734064,0,0.5518330335617065,-0.10283137857913971,1.1888220310211182,-218.56689453125,108.88671875,240.41748046875
5.9870688915252686,-147734068,1,-0.23849382996559143,-0.4369644224643707,0.5533778071403503,-36.1328125,-240.90576171875,-276.3671875
5.9870898723602295,-147734049,1,-0.44283953309059143,-0.4203628599643707,0.6278406977653503,-25.45166015625,-243.2861328125,-309.326171875
6.000611782073975,-147734045,0,1.0606220960617065,0.1776861995458603,1.4969274997711182,-288.9404296875,107.97119140625,277.40478515625
6.015614032745361,-147734030,1,-0.7057790160179138,-0.3856948912143707,0.6808192133903503,-18.12744140625,-249.45068359375,-343.68896484375
6.036014795303345,-147734026,0,1.5115498304367065,0.6518073081970215,1.6495153903961182,-293.701171875,83.92333984375,292.724609375
6.036021947860718,-147734007,0,1.8506611585617065,0.9311041831970215,1.6375524997711182,-290.83251953125,59.5703125,238.525390625
6.045950889587402,-147734011,1,-1.019743800163269,-0.2997573912143707,0.7889735102653503,-20.3857421875,-272.76611328125,-391.845703125
6.045964002609253,-147733992,1,-1.409636378288269,-0.3388198912143707,0.9344813227653503,-41.9921875,-309.63134765625,-437.3779296875
6.060845136642456,-147733988,0,1.8355244398117065,0.8988776206970215,1.6028845310211182,-337.0361328125,62.5,151.79443359375
6.060922861099243,-147733969,0,1.7964619398117065,0.8363776206970215,1.6563513278961182,-417.8466796875,52.3681640625,68.78662109375
6.0827178955078125,-147733973,1,-1.797575831413269,-0.4225601255893707,1.1192958354949951,-69.9462890625,-343.20068359375,-497.6806640625
6.090951919555664,-147733950,0,1.8889912366867065,0.7892584800720215,1.8467810153961182,-401.3671875,-3.662109375,56.0302734375
6.105355978012085,-147733937,1,-2.9484548568725586,-0.3615249693393707,1.4535243511199951,-17.333984375,-308.59375,-616.14990234375
6.131345987319946,-147733914,0,2.170241355895996,0.8422369956970215,2.085794687271118,-326.66015625,-126.03759765625,42.54150390625
6.137773752212524,-147733918,1,-3.2030935287475586,-0.04585113376379013,1.4088466167449951,76.2939453125,-290.58837890625,-615.66162109375
6.1377809047698975,-147733899,1,-3.2834157943725586,0.3987289369106293,1.2135341167449951,171.5087890625,-261.962890625,-538.4521484375
6.150616884231567,-147733895,0,2.283522605895996,0.9267096519470215,2.324808359146118,-294.12841796875,-193.54248046875,-2.25830078125
6.165295839309692,-147733880,1,-3.2831716537475586,0.6252914667129517,1.1124598979949951,142.4560546875,-257.6904296875,-468.07861328125
6.18837308883667,-147733876,0,2.150710105895996,0.7650885581970215,2.585062265396118,-278.4423828125,-239.68505859375,-48.52294921875
6.188380002975464,-147733857,0,1.8399189710617065,0.6698737144470215,2.835794687271118,-284.7900390625,-257.75146484375,-119.873046875
6.195394992828369,-147733861,1,-3.1203298568725586,0.7268539667129517,1.0216395854949951,27.64892578125,-266.11328125,-404.9072265625
6.1955039501190186,-147733842,1,-2.7980642318725586,0.5420395135879517,1.0912196636199951,7.75146484375,-252.74658203125,-352.1728515625
6.210458993911743,-147733838,0,1.5086201429367065,0.5268073081970215,3.167337656021118,-264.2822265625,-274.0478515625,-144.71435546875
6.210487127304077,-147733819,0,1.4046162366867065,0.7033209800720215,3.423441171646118,-217.71240234375,-319.27490234375,-120.849609375
6.234027147293091,-147733823,1,-2.3044118881225586,0.5439926385879517,1.5094325542449951,150.5126953125,-182.0068359375,-320.12939453125
6.240351915359497,-147733800,0,1.5032490491867065,1.0641608238220215,3.671732187271118,-154.11376953125,-375.1220703125,-68.4814453125
6.259331941604614,-147733804,1,-2.5075368881225586,1.4187484979629517,1.7467372417449951,323.30322265625,-114.56298828125,-248.71826171875
6.259343862533569,-147733785,1,-3.1940603256225586,2.167771816253662,2.057284116744995,297.7294921875,-151.79443359375,-133.85009765625
6.281509876251221,-147733781,0,1.4766377210617065,1.2843756675720215,3.523294687271118,-103.94287109375,-398.193359375,-18.06640625
6.281520843505859,-147733762,0,1.4700459241867065,1.1300787925720215,3.185159921646118,-100.2197265625,-411.80419921875,20.08056640625
6.2863078117370605,-147733766,1,-3.3642263412475586,1.0703598260879517,2.254549741744995,280.517578125,-102.11181640625,-107.48291015625
6.2988691329956055,-147733743,0,1.5994404554367065,0.9206061363220215,2.849466562271118,-92.6513671875,-419.7998046875,37.9638671875
6.314137935638428,-147733747,1,-4.110808372497559,1.8074203729629517,3.271639585494995,497.98583984375,-122.0703125,27.34375
6.314297914505005,-147733728,1,-4.112029075622559,0.3899398744106293,3.233065366744995,508.48388671875,-158.935546875,165.58837890625
6.334964990615845,-147733724,0,1.8228291273117065,0.7042975425720215,2.706644296646118,-98.08349609375,-449.40185546875,-68.05419921875
6.334971904754639,-147733705,0,1.3723896741867065,0.1942877620458603,2.756204843521118,-107.0556640625,-495.78857421875,-140.13671875
6.3488850593566895,-147733709,1,-3.1581716537475586,-1.0265640020370483,3.084139585494995,524.47509765625,-185.1806640625,132.4462890625
6.358919858932495,-147733686,0,1.2959736585617065,0.10322330892086029,2.655130624771118,-88.68408203125,-520.751953125,-131.2255859375
6.383211135864258,-147733673,1,-3.3986501693725586,-0.7550796270370483,2.317782163619995,619.0185546875,-13.3056640625,196.533203125
6.393032073974609,-147733650,0,1.0364521741867065,-0.06987239420413971,2.372659921646118,-92.46826171875,-404.1748046875,-301.7578125
6.403933048248291,-147733654,1,-2.4696950912475586,-1.8234390020370483,2.357332944869995,581.84814453125,17.333984375,192.0166015625
6.404017925262451,-147733635,1,-2.1759939193725586,-1.6586440801620483,1.4659755229949951,600.89111328125,61.5234375,73.2421875
6.4333930015563965,-147733631,0,0.9763935804367065,-0.1897454410791397,2.030130624771118,-81.11572265625,-369.68994140625,-378.41796875
6.433400869369507,-147733612,0,0.8367451429367065,-0.5530266761779785,1.6045935153961182,-112.060546875,-347.7783203125,-440.12451171875
6.440794944763184,-147733616,1,-2.0968923568725586,-0.4682144224643707,0.8517176508903503,485.16845703125,158.8134765625,166.50390625
6.449091911315918,-147733593,0,0.24641312658786774,-0.8303704261779785,1.3809607028961182,-96.923828125,-326.59912109375,-446.1669921875
6.463818073272705,-147733597,1,-1.916472315788269,-0.5207046270370483,1.0770595073699951,362.79296875,190.185546875,238.76953125
6.46390700340271,-147733578,1,-1.785612940788269,-0.7965835332870483,0.8837000727653503,305.72509765625,201.0498046875,254.39453125
6.488525152206421,-147733574,0,-0.6158915758132935,-0.9365715980529785,0.9349158406257629,-128.72314453125,-334.3505859375,-281.73828125
6.488532066345215,-147733555,0,-0.07267867028713226,-0.4636712372303009,1.6138708591461182,-58.349609375,-317.87109375,-283.38623046875
6.493956804275513,-147733559,1,-1.766569972038269,-0.8366225957870483,0.6774012446403503,255.67626953125,217.7734375,264.83154296875
6.494017124176025,-147733540,1,-1.439909815788269,-0.8139175176620483,0.49795788526535034,220.8251953125,208.1298828125,220.0927734375
6.5090179443359375,-147733536,0,-0.21354781091213226,0.1332526057958603,0.8819373250007629,-21.6064453125,-168.51806640625,-433.2275390625
6.535454034805298,-147733521,1,-1.002409815788269,-0.6032241582870483,0.34634655714035034,190.4296875,206.0546875,181.2744140625
6.539614915847778,-147733517,0,0.06111038848757744,-0.5085930824279785,0.7217810750007629,-91.00341796875,-45.7763671875,-559.50927734375
6.539621829986572,-147733498,0,-0.6315165758132935,-0.4153313934803009,0.9786170125007629,-37.90283203125,32.1044921875,-540.22216796875
6.553931951522827,-147733502,1,-0.5234059691429138,-0.3183120787143707,0.16983288526535034,163.02490234375,234.375,144.47021484375
6.554002046585083,-147733483,1,-1.151335597038269,-1.0014175176620483,0.12466686964035034,129.39453125,286.68212890625,185.11962890625
6.5820770263671875,-147733479,0,-1.0140849351882935,-0.7490715980529785,1.2837927341461182,87.21923828125,95.458984375,-426.8798828125
6.582084894180298,-147733460,0,-0.7367411851882935,-0.10478450357913971,0.7759802937507629,152.28271484375,59.02099609375,-293.88427734375
6.587254047393799,-147733464,1,-0.9806813597679138,-0.8241714239120483,0.15738171339035034,134.765625,234.80224609375,186.5234375
6.5989179611206055,-147733441,0,-0.39445602893829346,0.04902408644556999,0.49204474687576294,186.279296875,-42.29736328125,-314.75830078125
6.614076852798462,-147733445,1,-0.7470387816429138,-0.8039077520370483,0.18130749464035034,129.39453125,202.45361328125,142.9443359375
6.636888742446899,-147733422,0,-0.42692673206329346,-0.1965813785791397,0.39267951250076294,188.53759765625,-94.54345703125,-358.154296875
6.64392614364624,-147733409,1,-0.5741872191429138,-0.7033218145370483,-0.30990344285964966,24.658203125,178.64990234375,31.55517578125
6.644042015075684,-147733390,1,-0.7670583128929138,-0.5956557989120483,-0.28402453660964966,-35.888671875,200.98876953125,39.48974609375
6.659013986587524,-147733386,0,-1.0338603258132935,-0.7949700355529785,0.49302130937576294,240.72265625,-77.1484375,-328.43017578125
6.684638977050781,-147733371,1,-0.8136891722679138,-0.5116714239120483,-0.19247180223464966,-52.79541015625,220.88623046875,54.50439453125
6.689960956573486,-147733367,0,-1.1525126695632935,-0.9692864418029785,0.6661170125007629,296.38671875,-18.61572265625,-236.9384765625
6.68996787071228,-147733348,0,-1.0001689195632935,-0.8621087074279785,0.34482795000076294,294.73876953125,24.23095703125,-182.9833984375
6.704134941101074,-147733352,1,-0.7282399535179138,-0.4987320005893707,-0.09261828660964966,-35.400390625,223.08349609375,59.6923828125
6.7042481899261475,-147733333,1,-0.49948015809059143,-0.6432632207870483,-0.07259875535964966,-48.2177734375,232.5439453125,9.46044921875
6.732036828994751,-147733329,0,-0.8446513414382935,-0.8157219886779785,0.00840216875076294,263.3056640625,33.203125,-207.45849609375
6.732043981552124,-147733310,0,-0.8839579820632935,-0.8931145668029785,-0.18300408124923706,211.181640625,15.5029296875,-254.150390625
6.737832069396973,-147733314,1,-0.7128590941429138,-1.1981948614120483,0.018221557140350342,-49.6826171875,261.77978515625,-25.87890625
6.750798225402832,-147733291,0,-1.0804911851882935,-1.0364251136779785,-0.39906853437423706,132.568359375,-27.77099609375,-297.607421875
6.765474081039429,-147733295,1,-0.47360125184059143,-0.7465347051620483,-0.09701281785964966,-30.2734375,284.66796875,-65.5517578125
6.765596866607666,-147733276,1,-0.7301930785179138,-0.5014175176620483,-0.5310948491096497,-72.509765625,375.48828125,-35.888671875
6.787647008895874,-147733272,0,-1.1219950914382935,-1.1064934730529785,-0.38026970624923706,62.68310546875,-88.134765625,-269.04296875
6.787654876708984,-147733253,0,-0.8995829820632935,-1.0032219886779785,-0.20546501874923706,1.77001953125,-112.3046875,-206.54296875
6.795459985733032,-147733257,1,-1.359099268913269,-0.3754409849643707,-0.7603428959846497,-154.96826171875,454.77294921875,33.75244140625
6.81049919128418,-147733234,0,-0.8131572008132935,-0.8645501136779785,-0.26064079999923706,-30.70068359375,-96.37451171875,-170.83740234375
6.836829900741577,-147733238,1,-2.0395193099975586,-0.4506362974643707,-0.5889561772346497,-248.9013671875,490.478515625,66.46728515625
6.836836814880371,-147733219,1,-2.2018728256225586,-0.4669937193393707,-0.19857531785964966,-244.873046875,496.2158203125,11.8408203125
6.840863943099976,-147733215,0,-0.7804423570632935,-0.8452630043029785,-0.48036736249923706,-41.68701171875,-98.81591796875,-152.77099609375
6.840869903564453,-147733196,0,-0.8241435289382935,-0.9001946449279785,-0.8216759562492371,-24.10888671875,-158.38623046875,-123.6572265625
6.8557000160217285,-147733200,1,-2.4943532943725586,-0.2865737974643707,0.05142468214035034,-171.9970703125,610.53466796875,-50.1708984375
6.8557798862457275,-147733181,1,-3.3622732162475586,0.03471527248620987,0.43545788526535034,-62.5,728.57666015625,-38.75732421875
6.883785009384155,-147733177,0,-0.8517314195632935,-0.9507317543029785,-0.9112755656242371,-41.44287109375,-246.03271484375,-91.61376953125
6.898605823516846,-147733158,0,-0.9828349351882935,-0.9819817543029785,-0.6827599406242371,-108.0322265625,-344.54345703125,-97.35107421875
6.915553092956543,-147733145,1,-4.810027122497559,0.8000961542129517,1.1686122417449951,-195.73974609375,893.24951171875,-36.376953125
6.915637016296387,-147733126,1,-5.867156028747559,0.8484359979629517,1.9684169292449951,-458.0078125,895.69091796875,13.85498046875
6.9359259605407715,-147733122,0,-1.6757060289382935,-1.2495598793029785,0.17075568437576294,-262.87841796875,-466.1865234375,-212.40234375
6.935931921005249,-147733103,0,-2.337815284729004,-1.6760735511779785,1.1749060153961182,-313.8427734375,-510.55908203125,-194.51904296875
6.943954944610596,-147733107,1,-5.942595481872559,-0.08198394626379013,4.296541690826416,-660.0341796875,833.55712890625,182.06787109375
6.959007024765015,-147733084,0,-2.846604347229004,-1.8254876136779785,2.205911874771118,-362.060546875,-379.94384765625,-94.17724609375
6.9830238819122314,-147733088,1,-4.320525169372559,-0.6671890020370483,6.532137393951416,-640.19775390625,686.1572265625,325.50048828125
6.9830310344696045,-147733069,1,-2.8566579818725586,-1.5175307989120483,7.140291690826416,-287.2314453125,435.1806640625,389.46533203125
6.991909980773926,-147733065,0,-2.869553565979004,-1.7031731605529785,2.728128671646118,-376.52587890625,-219.54345703125,-41.19873046875
6.991917848587036,-147733046,0,-2.763108253479004,-1.4006829261779785,3.149759531021118,-265.07568359375,-122.86376953125,-9.58251953125
7.005386114120483,-147733050,1,-2.3739919662475586,-1.2335952520370483,4.476229190826416,-83.92333984375,298.64501953125,315.97900390625
7.005504131317139,-147733031,1,-1.685515284538269,-0.9081557989120483,4.090975284576416,-117.12646484375,241.51611328125,371.58203125
7.032247066497803,-147733027,0,-2.657395362854004,-1.1208977699279785,2.990335702896118,-179.443359375,-41.6259765625,-0.48828125
7.037405967712402,-147733012,1,-1.803923487663269,-1.1181167364120483,4.166414737701416,-106.3232421875,168.9453125,362.73193359375
7.048951148986816,-147733008,0,-2.501389503479004,-1.3499016761779785,2.488138437271118,-278.38134765625,72.1435546875,30.70068359375
7.049043893814087,-147732989,0,-1.9650126695632935,-1.2952141761779785,2.261087656021118,-368.1640625,124.51171875,71.22802734375
7.065536022186279,-147732993,1,-1.832243800163269,-1.0353530645370483,3.713534116744995,-70.9228515625,33.0810546875,342.95654296875
7.065630912780762,-147732974,1,-1.494353175163269,-1.7316421270370483,3.577059507369995,-22.705078125,-84.28955078125,307.861328125
7.0875489711761475,-147732970,0,-1.4073954820632935,-1.1033196449279785,2.144876718521118,-434.50927734375,143.24951171875,79.77294921875
7.087556838989258,-147732951,0,-1.1896220445632935,-0.8574700355529785,2.332620859146118,-455.2001953125,180.7861328125,102.05078125
7.095560073852539,-147732955,1,-1.435027003288269,-1.3573745489120483,2.094393491744995,-62.255859375,-124.8779296875,315.185546875
7.110572099685669,-147732932,0,-1.0634013414382935,-0.6973137855529785,2.444437265396118,-451.5380859375,217.59033203125,140.380859375
7.136873006820679,-147732936,1,-0.5954274535179138,-1.8737319707870483,2.025057554244995,46.875,-159.60693359375,254.7607421875
7.136880874633789,-147732917,1,-0.6152028441429138,-1.9040054082870483,1.9313075542449951,221.6796875,-132.8125,176.69677734375
7.140365123748779,-147732913,0,-0.8861552476882935,-0.6101555824279785,2.718607187271118,-424.86572265625,226.37939453125,191.95556640625
7.140394926071167,-147732894,0,-0.5214091539382935,-0.2944817841053009,3.148538827896118,-398.8037109375,276.123046875,234.43603515625
7.1549599170684814,-147732881,1,-0.38033953309059143,-1.4872573614120483,1.2823817729949951,344.05517578125,-154.6630859375,43.15185546875
7.188951015472412,-147732862,1,-0.23995867371559143,-1.1686538457870483,0.9947840571403503,332.70263671875,-140.5029296875,-12.87841796875
7.200654983520508,-147732858,0,-0.23283492028713226,0.4330572783946991,2.630228281021118,-306.640625,354.18701171875,197.57080078125
7.200742959976196,-147732839,0,-0.08659468591213226,0.7797369956970215,2.329935312271118,-233.0322265625,344.42138671875,191.650390625
7.2156407833099365,-147732843,1,-0.11373797804117203,-0.9733413457870483,0.8097254633903503,323.30322265625,-128.72314453125,-69.580078125
7.215779781341553,-147732824,1,-0.13595476746559143,-0.8368667364120483,0.6390711665153503,322.93701171875,-117.00439453125,-102.1728515625
7.236625909805298,-147732820,0,0.21931351721286774,0.9689459800720215,1.9654333591461182,-233.7646484375,361.75537109375,151.42822265625
7.2366368770599365,-147732801,0,0.21198929846286774,0.7467780113220215,1.4065954685211182,-278.076171875,345.03173828125,41.93115234375
7.24518084526062,-147732805,1,-0.16403093934059143,-0.6923354864120483,0.45865124464035034,310.97412109375,-114.44091796875,-141.90673828125
7.260361909866333,-147732782,0,-0.04704390838742256,0.4865240752696991,1.4998571872711182,-262.451171875,284.72900390625,23.86474609375
7.284036874771118,-147732786,1,-0.32394304871559143,-0.6583999395370483,0.39395397901535034,270.3857421875,-126.89208984375,-185.9130859375
7.284044981002808,-147732767,1,-0.5148610472679138,-0.6151870489120483,0.32754772901535034,223.08349609375,-156.55517578125,-239.68505859375
7.295149803161621,-147732763,0,0.20490922033786774,1.1823248863220215,1.4070837497711182,-206.54296875,251.40380859375,-17.27294921875
7.2951600551605225,-147732744,0,0.07209672033786774,1.2094244956970215,1.2037146091461182,-198.6083984375,218.1396484375,-61.4013671875
7.305782079696655,-147732748,1,-0.7414235472679138,-0.6369155645370483,0.33047741651535034,178.77197265625,-187.98828125,-284.48486328125
7.30591893196106,-147732729,1,-0.9350270628929138,-0.6330093145370483,0.27017468214035034,148.5595703125,-236.572265625,-364.44091796875
7.333033084869385,-147732725,0,-0.6346904039382935,0.2467779964208603,1.2432653903961182,-216.97998046875,202.880859375,107.0556640625
7.338904142379761,-147732710,1,-1.231902003288269,-0.4921402037143707,0.21817272901535034,119.68994140625,-269.287109375,-450.74462890625
7.350743055343628,-147732706,0,-0.41276657581329346,0.4469732940196991,1.2286169528961182,-221.13037109375,221.8017578125,225.15869140625
7.350831985473633,-147732687,0,-0.03166304901242256,0.5009284019470215,1.3497107028961182,-228.45458984375,243.65234375,214.41650390625
7.365492105484009,-147732691,1,-1.549040675163269,-0.11298980563879013,0.30630749464035034,43.8232421875,-312.6220703125,-485.04638671875
7.3655970096588135,-147732672,1,-1.751677393913269,0.2783676087856293,0.28579968214035034,-40.0390625,-346.3134765625,-465.02685546875
7.387913942337036,-147732668,0,0.06574906408786774,0.5292487144470215,1.4522497653961182,-219.29931640625,267.88330078125,159.0576171875
7.3957359790802,-147732653,1,-1.614226222038269,0.6548324823379517,0.30313366651535034,-114.56298828125,-368.2861328125,-394.6533203125
7.4106690883636475,-147732649,0,-0.07194624841213226,0.4223150908946991,1.4471228122711182,-182.31201171875,279.78515625,86.5478515625
7.410753011703491,-147732630,0,-0.15178023278713226,0.1618170589208603,1.4827673435211182,-121.76513671875,234.92431640625,73.3642578125
7.436269760131836,-147732617,1,-1.435027003288269,0.8203598260879517,0.9681727290153503,-176.3916015625,-340.6982421875,-250.3662109375
7.440164804458618,-147732594,0,0.38191115856170654,0.2008795589208603,1.7835485935211182,-168.02978515625,295.7763671875,158.3251953125
7.454769849777222,-147732598,1,-1.548308253288269,1.1199203729629517,0.7811610102653503,-149.23095703125,-282.28759765625,-217.4072265625
7.454892158508301,-147732579,1,-1.496794581413269,1.7793442010879517,0.8876063227653503,-62.80517578125,-120.9716796875,-111.02294921875
7.487748861312866,-147732575,0,0.7576435804367065,0.2587408721446991,1.9383337497711182,-222.16796875,356.50634765625,162.17041015625
7.491167068481445,-147732560,1,-1.710661768913269,2.169724941253662,1.0821864604949951,-117.98095703125,-37.353515625,29.96826171875
7.500454902648926,-147732556,0,0.8147724866867065,0.1537604182958603,2.101175546646118,-234.375,365.966796875,183.16650390625
7.500525951385498,-147732537,0,1.1721943616867065,0.1879401057958603,2.410989999771118,-198.974609375,348.44970703125,266.845703125
7.51422119140625,-147732541,1,-1.650114893913269,1.9006820917129517,1.4996669292449951,-164.85595703125,-38.818359375,126.708984375
7.514286994934082,-147732522,1,-1.187956690788269,1.8855453729629517,1.6935145854949951,-88.2568359375,-8.23974609375,197.75390625
7.535833835601807,-147732518,0,1.7276142835617065,0.07417057454586029,2.569681406021118,-134.521484375,325.74462890625,373.35205078125
7.543724060058594,-147732503,1,-0.7016286253929138,2.083543300628662,1.5809657573699951,-16.17431640625,48.27880859375,230.95703125
7.559072971343994,-147732499,0,2.212965965270996,0.1559576839208603,2.560648202896118,-138.7939453125,382.8125,444.3359375
7.559168100357056,-147732480,0,2.776686668395996,0.10224674642086029,2.657327890396118,-166.56494140625,462.158203125,472.5341796875
7.583500146865845,-147732484,1,-0.22311297059059143,2.204637050628662,1.1737391948699951,5.67626953125,131.7138671875,277.03857421875
7.583508014678955,-147732465,1,0.08084210008382797,1.9307113885879517,1.0292079448699951,-5.55419921875,204.28466796875,308.2275390625
7.588824033737183,-147732461,0,3.264723777770996,0.2318854182958603,2.934183359146118,-145.751953125,453.18603515625,523.86474609375
7.588927984237671,-147732442,0,3.642897605895996,0.5729498863220215,2.819681406021118,-40.0390625,394.59228515625,515.31982421875
7.604142904281616,-147732446,1,0.31057843565940857,1.5310531854629517,1.2254970073699951,-16.7236328125,257.2021484375,323.91357421875
7.632174968719482,-147732423,0,3.743727684020996,0.8861823081970215,2.655863046646118,17.88330078125,385.19287109375,408.26416015625
7.638053894042969,-147732427,1,0.45559796690940857,1.3813949823379517,1.4117763042449951,9.765625,241.943359375,342.1630859375
7.638060092926025,-147732408,1,0.6699534058570862,1.3989731073379517,0.9520594477653503,4.33349609375,171.44775390625,376.220703125
7.6490318775177,-147732404,0,3.586989402770996,1.0094733238220215,2.212503671646118,4.0283203125,421.20361328125,191.58935546875
7.649117946624756,-147732385,0,3.085524559020996,0.8837409019470215,1.5977575778961182,-36.4990234375,400.146484375,16.78466796875
7.663661003112793,-147732389,1,0.7305002808570862,1.2327133417129517,0.6754481196403503,-68.05419921875,153.74755859375,419.73876953125
7.685977935791016,-147732366,0,2.391921043395996,0.5380377769470215,1.2159216403961182,-5.7373046875,261.29150390625,-30.82275390625
7.695472002029419,-147732353,1,0.8176584839820862,-0.9069350957870483,1.2425868511199951,-149.5361328125,198.1201171875,418.51806640625
7.709341049194336,-147732330,0,1.8018330335617065,0.5609869956970215,0.9925330281257629,55.11474609375,167.724609375,-58.2275390625
7.7326741218566895,-147732334,1,1.468049168586731,-1.3651870489120483,1.9620692729949951,179.74853515625,238.70849609375,291.6259765625
7.732681035995483,-147732315,1,1.157746434211731,-0.9687026739120483,1.4095790386199951,430.11474609375,308.77685546875,161.68212890625
7.738815069198608,-147732311,0,1.3052510023117065,0.2218756526708603,0.8003943562507629,38.87939453125,145.3857421875,-47.7294921875
7.7388811111450195,-147732292,0,1.0498799085617065,0.2453131526708603,0.9251502156257629,86.669921875,71.59423828125,13.36669921875
7.754095792770386,-147732296,1,0.32913312315940857,-0.4479507505893707,1.9613368511199951,430.35888671875,343.75,64.3310546875
7.782262086868286,-147732273,0,0.6585224866867065,0.09907291829586029,0.8802283406257629,156.67724609375,6.8359375,29.052734375
7.788765907287598,-147732277,1,-0.30319109559059143,-0.3959487974643707,2.206454038619995,349.18212890625,273.0712890625,-6.2255859375
7.788771867752075,-147732258,1,-0.9779958128929138,0.01298675686120987,2.322664976119995,314.75830078125,80.01708984375,35.82763671875
7.79897403717041,-147732254,0,0.7849873304367065,0.4511236846446991,0.8272498250007629,168.39599609375,-67.32177734375,73.66943359375
7.799106121063232,-147732235,0,0.7195576429367065,0.5368170738220215,0.9764197468757629,206.97021484375,-112.60986328125,50.537109375
7.813776969909668,-147732239,1,-1.157439112663269,-0.01899566501379013,1.7711513042449951,255.2490234375,-17.822265625,126.953125
7.813849925994873,-147732220,1,-1.104460597038269,-0.3283218443393707,1.6393153667449951,209.16748046875,-75.1953125,141.17431640625
7.839254140853882,-147732216,0,0.9688252210617065,0.7394537925720215,0.7938025593757629,227.72216796875,-120.78857421875,35.46142578125
7.844003915786743,-147732201,1,-1.132048487663269,-0.8444350957870483,1.4315516948699951,231.38427734375,-102.47802734375,79.4677734375
7.8588879108428955,-147732197,0,0.8596943616867065,0.6959967613220215,0.7159217000007629,255.615234375,-147.0947265625,39.73388671875
7.8590309619903564,-147732178,0,0.8965595960617065,0.7406744956970215,0.6385291218757629,300.10986328125,-169.86083984375,50.1708984375
7.883055925369263,-147732182,1,-1.230437159538269,-1.0072768926620483,1.1075770854949951,333.6181640625,-141.66259765625,-45.34912109375
7.883063077926636,-147732163,1,-1.561735987663269,-0.8573745489120483,0.6371180415153503,413.51318359375,-143.5546875,-92.6513671875
7.888892889022827,-147732159,0,1.1136006116867065,0.6896491050720215,0.25791388750076294,325.74462890625,-197.998046875,25.57373046875
7.888999938964844,-147732140,0,1.2371357679367065,0.6059088706970215,0.15098029375076294,247.6806640625,-205.13916015625,-22.39990234375
7.904805898666382,-147732144,1,-1.946013331413269,-0.8173354864120483,0.5780360102653503,391.4794921875,-153.9306640625,-56.70166015625
7.932600975036621,-147732121,0,1.2271260023117065,0.4237799346446991,-0.01625603437423706,130.9814453125,-168.0908203125,-82.275390625
7.937778949737549,-147732125,1,-1.960905909538269,-0.8271011114120483,0.7120692133903503,323.486328125,-201.84326171875,-24.84130859375
7.94963002204895,-147732102,0,1.2027119398117065,0.3490729033946991,-0.12685173749923706,43.3349609375,-153.01513671875,-112.548828125
7.964427947998047,-147732089,1,-1.523894190788269,-1.5771011114120483,0.7945887446403503,257.14111328125,-362.12158203125,-0.8544921875
7.96461296081543,-147732070,1,-2.1860036849975586,-1.6774429082870483,0.44644421339035034,404.72412109375,-305.0537109375,-124.8779296875
7.987071990966797,-147732066,0,1.0625752210617065,0.08442448079586029,-0.04530876874923706,-54.8095703125,-200.1953125,-177.3681640625
7.996792793273926,-147732051,1,-2.6332693099975586,-1.3197768926620483,0.32852429151535034,448.42529296875,-337.158203125,-202.20947265625
8.009321928024292,-147732047,0,1.0059345960617065,0.021680336445569992,0.02060920000076294,-73.974609375,-229.18701171875,-208.0078125
8.009456872940063,-147732028,0,0.8531025648117065,-0.2034173160791397,0.03623420000076294,-112.548828125,-257.6904296875,-236.572265625
8.033180952072144,-147732032,1,-2.8420095443725586,-1.5575698614120483,0.030672729015350342,460.14404296875,-343.44482421875,-168.88427734375
8.0331871509552,-147732013,1,-2.5663747787475586,-1.9943374395370483,-0.22909289598464966,484.9853515625,-346.98486328125,-166.748046875
8.039383172988892,-147732009,0,0.6751240491867065,-0.2500481903553009,0.04062873125076294,-173.76708984375,-274.59716796875,-221.3134765625
8.03938889503479,-147731990,0,0.47492873668670654,-0.3486810028553009,0.14975959062576294,-262.0849609375,-276.67236328125,-160.7666015625
8.054142951965332,-147731994,1,-2.4906911849975586,-2.320753574371338,-0.30965930223464966,504.7607421875,-342.34619140625,-177.55126953125
8.081616878509521,-147731971,0,0.27253615856170654,-0.6841301918029785,0.28916388750076294,-331.787109375,-276.79443359375,-58.349609375
8.087829113006592,-147731975,1,-2.5422048568725586,-2.454054355621338,-0.31771594285964966,508.60595703125,-365.17333984375,-233.45947265625
8.087836027145386,-147731956,1,-2.7580251693725586,-2.090284824371338,-0.23299914598464966,496.09375,-369.2626953125,-242.24853515625
8.099009990692139,-147731952,0,0.41462600231170654,-0.9499993324279785,0.6211951375007629,-346.98486328125,-328.125,48.15673828125
8.099096775054932,-147731933,0,0.32649123668670654,-1.1797356605529785,0.6351111531257629,-423.2177734375,-353.94287109375,195.98388671875
8.118014097213745,-147731937,1,-2.9318532943725586,-1.7323745489120483,-0.17391711473464966,492.67578125,-354.1259765625,-166.50390625
8.134721040725708,-147731914,0,0.42854201793670654,-1.5427727699279785,0.9256384968757629,-493.0419921875,-341.97998046875,291.8701171875
8.144021987915039,-147731918,1,-3.1159353256225586,-1.5973647832870483,-0.14291125535964966,472.22900390625,-348.20556640625,-73.974609375
8.144098997116089,-147731899,1,-3.1244802474975586,-1.5072768926620483,-0.18075305223464966,417.1142578125,-333.740234375,31.31103515625
8.162137985229492,-147731895,0,0.5320576429367065,-1.4727044105529785,1.5459997653961182,-519.10400390625,-262.8173828125,410.888671875
8.16214895248413,-147731876,0,0.5325459241867065,-1.3386712074279785,1.6453649997711182,-422.91259765625,-211.24267578125,425.048828125
8.183939218521118,-147731880,1,-2.7716970443725586,-1.6327651739120483,-0.022794067859649658,366.39404296875,-266.845703125,104.06494140625
8.183947086334229,-147731861,1,-2.6037282943725586,-1.7648452520370483,0.29507702589035034,382.2021484375,-154.72412109375,119.2626953125
8.189165830612183,-147731857,0,0.5037373304367065,-1.5554680824279785,1.4849646091461182,-363.83056640625,-187.56103515625,455.74951171875
8.218167066574097,-147731838,0,0.43952834606170654,-1.7739739418029785,1.6995642185211182,-397.705078125,-86.181640625,504.7607421875
8.236853122711182,-147731825,1,-2.4782400131225586,-1.4203628301620483,0.8019129633903503,420.47119140625,-34.97314453125,97.7783203125
8.236860990524292,-147731806,1,-1.230437159538269,-1.0575698614120483,1.2311122417449951,464.9658203125,23.3154296875,94.8486328125
8.251455068588257,-147731802,0,0.9097431898117065,-3.7642083168029785,3.691751718521118,-403.62548828125,101.07421875,587.5244140625
8.251466989517212,-147731783,0,1.0095967054367065,-2.2427239418029785,2.355814218521118,-306.94580078125,169.98291015625,597.35107421875
8.265589952468872,-147731787,1,-1.951628565788269,-0.8124526739120483,1.7335536479949951,493.95751953125,67.32177734375,48.9501953125
8.284075021743774,-147731764,0,0.9658955335617065,-0.9841790199279785,2.263284921646118,-240.234375,271.484375,495.05615234375
8.295583009719849,-147731768,1,-2.1737966537475586,-0.21479645371437073,1.2015712261199951,511.90185546875,96.00830078125,68.42041015625
8.295691967010498,-147731749,1,-1.750456690788269,-0.18501129746437073,0.9679285883903503,336.0595703125,46.32568359375,123.84033203125
8.31053900718689,-147731745,0,0.6455830335617065,-0.9434075355529785,1.9444372653961182,-200.5615234375,321.35009765625,375.79345703125
8.310606956481934,-147731726,0,0.47859084606170654,-0.7378411293029785,1.4744665622711182,-180.2978515625,356.5673828125,221.19140625
8.334736824035645,-147731730,1,-1.290495753288269,-0.3039077818393707,0.7584559321403503,311.95068359375,104.18701171875,124.45068359375
8.334743976593018,-147731711,1,-0.8598317503929138,0.2759262025356293,0.34097546339035034,307.6171875,254.21142578125,88.134765625
8.340204000473022,-147731707,0,0.6770771741867065,-0.5286126136779785,1.2161657810211182,-154.6630859375,405.09033203125,102.96630859375
8.355523824691772,-147731692,1,-1.979704737663269,-0.09419097751379013,0.33340710401535034,246.826171875,371.52099609375,153.4423828125
8.38314700126648,-147731688,0,-0.15348921716213226,-2.6631340980529785,0.19126349687576294,-261.04736328125,380.0048828125,133.9111328125
8.383153915405273,-147731669,0,-0.19426070153713226,-1.2078118324279785,0.8174842000007629,-107.36083984375,220.15380859375,195.12939453125
8.388611793518066,-147731673,1,-1.773161768913269,-0.05805816501379013,0.6551844477653503,207.03125,313.65966796875,211.85302734375
8.38861894607544,-147731654,1,-1.547087550163269,-0.4167007505893707,0.5160242915153503,120.1171875,238.58642578125,181.09130859375
8.400949001312256,-147731650,0,-0.21696577966213226,-0.9006829261779785,0.8111365437507629,-185.302734375,351.37939453125,68.9697265625
8.401035070419312,-147731631,0,1.4329365491867065,-0.9541497230529785,1.1058142185211182,-124.08447265625,286.80419921875,-135.8642578125
8.415514945983887,-147731635,1,-0.7909840941429138,-0.5243667364120483,0.20913952589035034,54.38232421875,220.0927734375,115.29541015625
8.438456773757935,-147731612,0,0.6658467054367065,-1.3445305824279785,0.6878455281257629,-137.20703125,364.2578125,-235.29052734375
8.445252895355225,-147731616,1,-0.6205739378929138,-0.5712417364120483,-0.12118273973464966,81.84814453125,338.07373046875,57.18994140625
8.445349931716919,-147731597,1,-0.7431325316429138,-0.6718276739120483,-0.35946398973464966,69.4580078125,448.73046875,30.3955078125
8.460406064987183,-147731593,0,-0.8092509508132935,-2.4014153480529785,-0.32655876874923706,-273.8037109375,404.84619140625,-187.6220703125
8.460499048233032,-147731574,0,-0.11222945153713226,-2.2964348793029785,0.44150763750076294,-270.99609375,247.6806640625,138.916015625
8.48397183418274,-147731561,1,-1.009245753288269,-1.3366225957870483,-0.07650500535964966,-68.2373046875,447.75390625,75.25634765625
8.506108045578003,-147731542,1,-0.9128102660179138,-1.2335952520370483,-0.29891711473464966,-107.0556640625,404.60205078125,100.28076171875
8.529375076293945,-147731538,0,1.7122334241867065,-0.6416497230529785,1.4803259372711182,-40.0390625,303.77197265625,-234.4970703125
8.52938199043274,-147731519,0,1.6699970960617065,-1.2073235511779785,1.5196325778961182,-24.59716796875,363.58642578125,-465.33203125
8.535844802856445,-147731523,1,-0.7802419066429138,-1.2062515020370483,-0.42782336473464966,-195.25146484375,356.0791015625,111.02294921875
8.535943984985352,-147731504,1,-0.6169118285179138,-1.2479995489120483,-0.6023839116096497,-277.77099609375,353.271484375,136.5966796875
8.55259394645691,-147731500,0,0.9905537366867065,-1.6013665199279785,1.5540564060211182,2.99072265625,356.5673828125,-520.81298828125
8.552617073059082,-147731481,0,0.6167744398117065,-1.2085442543029785,1.6285192966461182,34.3017578125,249.267578125,-425.35400390625
8.563891887664795,-147731485,1,-0.6261891722679138,-1.4176772832870483,-0.5032628178596497,-326.35498046875,422.05810546875,157.77587890625
8.586979866027832,-147731462,0,0.7266377210617065,-0.4187493622303009,1.7466833591461182,58.04443359375,151.611328125,-343.6279296875
8.598680019378662,-147731466,1,-0.7448415160179138,-1.5946792364120483,-0.11141711473464966,-322.08251953125,493.34716796875,159.66796875
8.59869384765625,-147731447,1,-0.6952809691429138,-1.6833022832870483,0.14004772901535034,-305.23681640625,532.71484375,128.72314453125
8.609051942825317,-147731443,0,0.9654072523117065,0.11665104329586029,2.019144296646118,122.55859375,62.1337890625,-416.32080078125
8.609184980392456,-147731424,0,1.0103291273117065,0.07368229329586029,2.162210702896118,206.84814453125,13.12255859375,-541.07666015625
8.633965015411377,-147731428,1,-0.5302419066429138,-1.7677749395370483,0.5074793696403503,-280.45654296875,552.55126953125,63.720703125
8.633971929550171,-147731409,1,-0.41891375184059143,-1.8278335332870483,0.7508875727653503,-240.6005859375,570.556640625,-7.87353515625
8.6388099193573,-147731405,0,0.38801467418670654,-0.8755364418029785,2.007425546646118,268.37158203125,-4.21142578125,-605.28564453125
8.654019832611084,-147731390,1,-0.46823015809059143,-1.9330581426620483,1.0553309917449951,-196.4111328125,612.60986328125,-90.02685546875
8.681854009628296,-147731386,0,-0.11052046716213226,-1.0315423011779785,1.6722204685211182,255.37109375,17.02880859375,-483.82568359375
8.68186092376709,-147731367,0,0.02570999786257744,-0.6880364418029785,1.3685095310211182,281.73828125,46.5087890625,-382.75146484375
8.688540935516357,-147731371,1,-0.7553395628929138,-1.9591811895370483,1.4588954448699951,-171.2646484375,624.69482421875,-167.78564453125
8.688547849655151,-147731352,1,-1.204314112663269,-1.7780288457870483,2.093416929244995,-171.5087890625,551.08642578125,-306.15234375
8.698764085769653,-147731348,0,0.14240922033786774,-0.6511712074279785,1.2281286716461182,324.70703125,93.93310546875,-379.08935546875
8.713943004608154,-147731333,1,-1.677214503288269,-1.5004409551620483,2.571932554244995,-195.9228515625,392.2119140625,-440.36865234375
8.737596988677979,-147731329,0,0.28962600231170654,-0.8657708168029785,1.2925817966461182,357.23876953125,177.79541015625,-378.7841796875
8.737603902816772,-147731310,0,0.30280959606170654,-1.2358880043029785,0.9319861531257629,318.90869140625,286.2548828125,-296.44775390625
8.743818998336792,-147731297,1,-2.2277517318725586,-0.8290542364120483,2.817782163619995,-148.98681640625,147.5830078125,-487.24365234375
8.7587149143219,-147731274,0,0.5860127210617065,-1.2554192543029785,0.5647986531257629,110.53466796875,503.662109375,25.5126953125
8.782671928405762,-147731278,1,-2.4887380599975586,-0.5749038457870483,2.639315366744995,-104.736328125,52.978515625,-464.2333984375
8.782679080963135,-147731259,1,-2.4972829818725586,-0.4516128599643707,2.367830991744995,-98.388671875,-26.2451171875,-481.38427734375
8.789059162139893,-147731255,0,1.0933369398117065,-1.1943840980529785,0.6812537312507629,36.4990234375,586.7919921875,181.15234375
8.8052978515625,-147731240,1,-2.4670095443725586,-0.6027358770370483,2.074373960494995,-101.01318359375,-104.248046875,-520.263671875
8.831976890563965,-147731236,0,1.5169209241867065,-1.2471184730529785,0.5408728718757629,-4.45556640625,608.5205078125,338.92822265625
8.83198595046997,-147731217,0,2.546217918395996,-0.7371087074279785,0.25962287187576294,-3.2958984375,492.12646484375,489.56298828125
8.83646297454834,-147731221,1,-2.3532400131225586,-0.7360366582870483,2.020663022994995,-75.13427734375,-155.21240234375,-566.95556640625
8.83647108078003,-147731202,1,-2.4843435287475586,-0.7550796270370483,2.071932554244995,-18.4326171875,-191.22314453125,-587.7685546875
8.854501962661743,-147731198,0,3.346510887145996,-0.04545833542943001,0.14585334062576294,7.14111328125,341.36962890625,421.7529296875
8.865522861480713,-147731183,1,-2.6159353256225586,-0.7267593145370483,1.9894130229949951,35.0341796875,-208.19091796875,-595.21484375
8.887837886810303,-147731179,0,3.957350730895996,0.6879401206970215,-0.03456658124923706,-49.4384765625,338.37890625,230.28564453125
8.887844800949097,-147731160,0,3.637038230895996,2.6630377769470215,1.7156774997711182,-192.56591796875,388.61083984375,-106.75048828125
8.893862009048462,-147731164,1,-2.6742849349975586,-0.4721206724643707,1.9730556011199951,116.5771484375,-130.43212890625,-553.466796875
8.893950939178467,-147731145,1,-3.3334646224975586,-0.18598785996437073,1.9725673198699951,216.552734375,-48.828125,-460.205078125
8.910776853561401,-147731141,0,2.814772605895996,-1.4211907386779785,-0.38734978437423706,-60.4248046875,526.30615234375,-224.365234375
8.910912990570068,-147731122,0,2.075514793395996,0.6605963706970215,0.21006232500076294,-146.66748046875,-63.90380859375,-98.08349609375
8.933981895446777,-147731126,1,-3.7402029037475586,0.6155258417129517,1.8983485698699951,261.04736328125,-107.0556640625,-355.40771484375
8.943662881851196,-147731103,0,2.301344871520996,0.7753424644470215,0.9031775593757629,68.115234375,-494.2626953125,-81.48193359375
8.956130027770996,-147731107,1,-3.8207693099975586,0.9143539667129517,1.7103602886199951,223.388671875,-205.9326171875,-234.2529296875
8.956251859664917,-147731088,1,-3.5793142318725586,0.9204574823379517,1.3756434917449951,154.78515625,-301.08642578125,-94.42138671875
8.982627153396606,-147731084,0,1.7005146741867065,0.8883795738220215,2.111917734146118,-43.5791015625,-331.97021484375,-264.404296875
