sync_time,timestamp_ms,device_id,ax,ay,az,gx,gy,gz
0.017933130264282227,1582567425,0,-0.3322470784187317,0.35903114080429077,0.9623233079910278,-87.7685546875,66.89453125,78.61328125
0.022825002670288086,1582567428,1,0.23033693432807922,0.00722445547580719,0.9122427105903625,-4.7607421875,-34.97314453125,10.498046875
0.022829055786132812,1582567447,1,0.23741701245307922,-0.00620327889919281,0.8929556012153625,0.06103515625,-42.17529296875,15.0146484375
0.03793907165527344,1582567444,0,-0.3276084065437317,0.35976356267929077,0.9637881517410278,-87.40234375,62.98828125,87.70751953125
0.037989139556884766,1582567463,0,-0.3154013752937317,0.36098426580429077,0.9794131517410278,-87.0361328125,57.6171875,98.7548828125
0.052886009216308594,1582567466,1,0.2613427937030792,-0.00864468514919281,0.9459341168403625,7.4462890625,-48.76708984375,19.22607421875
0.07290911674499512,1582567482,0,-0.2819541096687317,0.38271278142929077,0.9796572923660278,-83.80126953125,63.1103515625,105.95703125
0.08267807960510254,1582567502,1,0.24596193432807922,0.04921664297580719,0.9945181012153625,18.12744140625,-29.296875,28.1982421875
0.09810996055603027,1582567501,0,-0.2875693440437317,0.39784950017929077,0.9862490892410278,-85.63232421875,75.68359375,101.318359375
0.0981912612915039,1582567520,0,-0.3378623127937317,0.40785926580429077,0.9806338548660278,-89.35546875,77.880859375,104.18701171875
0.11991500854492188,1582567521,1,0.21104982495307922,0.07363070547580719,0.9688833355903625,7.75146484375,-34.11865234375,35.94970703125
0.12623310089111328,1582567539,0,-0.3642295002937317,0.40737098455429077,0.9733096361160278,-93.8720703125,73.1201171875,112.97607421875
0.14299607276916504,1582567540,1,0.21080568432807922,-0.00766812264919281,0.9110220074653625,5.7373046875,-49.1943359375,43.76220703125
0.14302587509155273,1582567559,1,0.24718263745307922,-0.05722866952419281,0.9278677105903625,11.16943359375,-56.82373046875,53.64990234375
0.1685161590576172,1582567558,0,-0.3420127034187317,0.37416785955429077,0.9891787767410278,-96.74072265625,69.27490234375,126.89208984375
0.17359304428100586,1582567578,1,0.2989404499530792,-0.03745327889919281,1.0201529264450073,24.10888671875,-63.8427734375,69.03076171875
0.17359709739685059,1582567597,1,0.3414209187030792,-0.00302945077419281,1.0460318326950073,36.0107421875,-47.2412109375,72.75390625
0.18790912628173828,1582567594,0,-0.2687705159187317,0.38466590642929077,1.0294619798660278,-87.95166015625,81.72607421875,154.60205078125
0.18793702125549316,1582567613,0,-0.2665732502937317,0.41835731267929077,1.0436221361160278,-85.0830078125,96.74072265625,154.541015625
0.20272421836853027,1582567616,1,0.3421533405780792,0.02822054922580719,1.0118521451950073,36.62109375,-39.61181640625,80.99365234375
0.2220921516418457,1582567632,0,-0.2809775471687317,0.41127723455429077,1.0528994798660278,-88.80615234375,100.03662109375,161.2548828125
0.2331101894378662,1582567635,1,0.3311670124530792,0.04775179922580719,0.9569204449653625,32.04345703125,-46.44775390625,88.37890625
0.23312687873840332,1582567654,1,0.3404443562030792,0.03163851797580719,0.8853872418403625,30.94482421875,-54.26025390625,87.09716796875
0.24799585342407227,1582567651,0,-0.2658408284187317,0.39882606267929077,1.0316592454910278,-92.4072265625,89.2333984375,166.68701171875
0.2480781078338623,1582567670,0,-0.2067587971687317,0.37587684392929077,1.0450869798660278,-96.6796875,80.01708984375,173.33984375
0.2700071334838867,1582567673,1,0.4280908405780792,-0.03452359139919281,0.8839223980903625,33.02001953125,-71.6552734375,92.7734375
0.27829408645629883,1582567689,0,-0.1261923909187317,0.30336707830429077,1.0524111986160278,-98.20556640625,79.833984375,186.8896484375
0.2929651737213135,1582567692,1,0.4842431843280792,-0.04673062264919281,0.9024770855903625,41.50390625,-73.1201171875,104.43115234375
0.2929971218109131,1582567711,1,0.5115869045257568,0.07265414297580719,0.9266470074653625,51.20849609375,-67.7490234375,105.77392578125
0.3172569274902344,1582567708,0,-0.09005957096815109,0.31996864080429077,1.0787783861160278,-90.087890625,87.40234375,197.998046875
0.3172612190246582,1582567727,0,-0.11349707096815109,0.33461707830429077,1.0804873704910278,-82.03125,86.5478515625,192.626953125
0.3227260112762451,1582567730,1,0.4930322468280792,0.09780062735080719,0.9217641949653625,52.490234375,-65.0634765625,96.00830078125
0.33801817893981934,1582567746,0,-0.09616308659315109,0.32924598455429077,1.0792666673660278,-79.9560546875,82.21435546875,181.45751953125
0.33808302879333496,1582567765,0,-0.05832128971815109,0.29116004705429077,1.0721865892410278,-83.1298828125,77.20947265625,175.537109375
0.35286998748779297,1582567766,1,0.5247704982757568,-0.03940640389919281,0.8272817730903625,41.8701171875,-65.0634765625,81.787109375
0.3726050853729248,1582567784,0,-0.028291992843151093,0.21669715642929077,1.0895205736160278,-86.12060546875,76.416015625,180.2978515625
0.3828611373901367,1582567785,1,0.5633447170257568,-0.1463399976491928,0.8275259137153625,42.17529296875,-70.068359375,88.623046875
0.3828880786895752,1582567804,1,0.5928857326507568,-0.09311734139919281,0.8023794293403625,47.2412109375,-69.091796875,98.876953125
0.39797306060791016,1582567803,0,0.007840819656848907,0.21596473455429077,1.0951358079910278,-85.63232421875,82.70263671875,191.89453125
0.39804911613464355,1582567822,0,-0.012666992843151093,0.20375770330429077,1.0851260423660278,-84.9609375,83.19091796875,197.08251953125
0.4212920665740967,1582567823,1,0.6006982326507568,-0.03696499764919281,0.8304556012153625,51.1474609375,-66.83349609375,100.28076171875
0.44106125831604004,1582567842,1,0.6893212795257568,0.01406039297580719,0.8253286480903625,58.77685546875,-58.53271484375,89.66064453125
0.4425961971282959,1582567861,1,0.6890771389007568,-0.02744351327419281,0.8333852887153625,66.22314453125,-47.4853515625,81.4208984375
0.4679889678955078,1582567858,0,0.08620996028184891,0.19618934392929077,1.1278506517410278,-61.03515625,82.03125,187.43896484375
0.46799588203430176,1582567877,0,0.1557900309562683,0.25698035955429077,1.1320010423660278,-50.29296875,88.92822265625,176.3916015625
0.4731330871582031,1582567880,1,0.7391259670257568,-0.0005880445241928101,0.7821157574653625,42.8466796875,-53.7109375,77.880859375
0.4880561828613281,1582567896,0,0.2532021403312683,0.27138465642929077,1.0624209642410278,-51.6357421875,80.078125,176.3916015625
0.4881322383880615,1582567915,0,0.4382607340812683,0.32216590642929077,1.1027041673660278,-42.8466796875,63.720703125,184.08203125
0.501716136932373,1582567899,1,0.7852685451507568,0.296531081199646,0.7384145855903625,34.1796875,-61.279296875,56.7626953125
0.5017468929290771,1582567918,1,0.7696435451507568,0.424949049949646,0.49525055289268494,0.3662109375,-79.7119140625,55.6640625
0.5221431255340576,1582567934,0,0.7121865153312683,0.6761698126792908,1.0170108079910278,-54.0771484375,17.15087890625,122.13134765625
0.5314540863037109,1582567937,1,0.9671533107757568,0.453025221824646,0.7157095074653625,-24.10888671875,-46.38671875,53.64990234375
0.531501054763794,1582567956,1,0.7789208889007568,0.04653109610080719,0.7716177105903625,-78.91845703125,-50.537109375,95.27587890625
0.5479621887207031,1582567953,0,0.7324501872062683,0.31264442205429077,1.1554385423660278,-88.31787109375,56.57958984375,111.51123046875
0.5480360984802246,1582567972,0,0.09011621028184891,0.08632607012987137,1.2081729173660278,-91.064453125,117.12646484375,150.93994140625
0.5707142353057861,1582567975,1,1.0870263576507568,0.1566385179758072,0.7703970074653625,-133.9111328125,-37.29248046875,196.96044921875
0.5782530307769775,1582567991,0,0.1567665934562683,0.33144325017929077,1.2150088548660278,-72.81494140625,138.427734375,165.58837890625
0.5930020809173584,1582567994,1,0.7982079982757568,-0.1324239820241928,0.7257192730903625,-194.2138671875,6.77490234375,204.1015625
0.6168451309204102,1582568010,0,0.10232324153184891,0.38442176580429077,1.3588076829910278,-57.06787109375,134.765625,109.9853515625
0.6168498992919922,1582568029,0,0.1711708903312683,0.35610145330429077,1.0533877611160278,-62.19482421875,126.46484375,118.65234375
0.6241700649261475,1582568030,1,0.5618798732757568,-0.455422043800354,0.8993032574653625,-47.4853515625,-116.76025390625,49.4384765625
0.6364760398864746,1582568048,0,0.3193642497062683,0.48305457830429077,0.9293643236160278,-63.5986328125,109.9853515625,122.00927734375
0.6365282535552979,1582568067,0,0.3205849528312683,0.37148231267929077,1.0050479173660278,-58.10546875,114.80712890625,108.45947265625
0.652838945388794,1582568049,1,0.7711083889007568,-0.507423996925354,0.5960806012153625,24.0478515625,-139.7705078125,29.296875
0.6529271602630615,1582568068,1,0.9732568264007568,-0.12094937264919281,0.7381704449653625,69.091796875,-135.8642578125,33.99658203125
0.6731929779052734,1582568086,0,0.2722451090812683,0.47157996892929077,0.9984561204910278,-70.6787109375,123.291015625,133.11767578125
0.6828360557556152,1582568087,1,0.8441064357757568,0.03066195547580719,0.7689321637153625,80.99365234375,-117.67578125,31.8603515625
0.6828680038452148,1582568106,1,0.7745263576507568,0.07851351797580719,0.8292348980903625,63.78173828125,-118.34716796875,35.5224609375
0.6981701850891113,1582568122,0,0.1445595622062683,0.6249002814292908,1.0612002611160278,-81.97021484375,117.3095703125,97.83935546875
0.720034122467041,1582568125,1,0.7220361232757568,0.02016390860080719,0.7774770855903625,46.142578125,-129.08935546875,27.64892578125
0.7278101444244385,1582568141,0,0.1531044840812683,0.5421366095542908,1.1085635423660278,-81.72607421875,127.685546875,79.16259765625
0.741401195526123,1582568144,1,0.8018701076507568,-0.09800015389919281,0.6800649762153625,37.59765625,-133.36181640625,30.09033203125
0.7414212226867676,1582568163,1,0.7791650295257568,-0.1712423413991928,0.6646841168403625,38.26904296875,-136.474609375,34.36279296875
0.7687270641326904,1582568160,0,0.1687294840812683,0.49819129705429077,1.2255069017410278,-72.32666015625,138.427734375,76.96533203125
0.7687320709228516,1582568179,0,0.04006738215684891,0.49330848455429077,1.0333682298660278,-72.021484375,157.2265625,97.35107421875
0.7739782333374023,1582568182,1,0.9786279201507568,-0.2137228101491928,0.6139028668403625,57.0068359375,-140.9912109375,48.40087890625
0.788142204284668,1582568198,0,0.04372949153184891,0.49770301580429077,0.9957705736160278,-69.64111328125,153.3203125,112.79296875
0.788175106048584,1582568217,0,0.008573241531848907,0.41249793767929077,0.9860049486160278,-63.8427734375,147.39990234375,111.14501953125
0.8029320240020752,1582568201,1,0.7823388576507568,-0.05185757577419281,0.5499380230903625,62.80517578125,-114.19677734375,65.7958984375
0.8029429912567139,1582568220,1,1.0853173732757568,0.10073031485080719,0.7069204449653625,25.32958984375,-118.95751953125,78.9794921875
0.8233559131622314,1582568236,0,0.019071288406848907,0.48476356267929077,0.8639346361160278,-66.89453125,135.80322265625,116.39404296875
0.8328959941864014,1582568239,1,1.0521142482757568,-0.11484585702419281,0.6463735699653625,38.26904296875,-71.35009765625,37.90283203125
0.832963228225708,1582568258,1,0.9254052639007568,-0.07993374764919281,0.5323598980903625,42.3583984375,-30.029296875,29.60205078125
0.8479130268096924,1582568255,0,-0.009004883468151093,0.48769325017929077,0.8549014329910278,-80.6884765625,117.61474609375,102.23388671875
0.8479869365692139,1582568274,0,-0.028536133468151093,0.40761512517929077,0.9752627611160278,-83.740234375,100.03662109375,100.7080078125
0.8758752346038818,1582568293,0,0.026151366531848907,0.46108192205429077,1.0033389329910278,-75.74462890625,97.0458984375,105.16357421875
0.8931100368499756,1582568294,1,0.8380029201507568,0.07387484610080719,0.6488149762153625,59.87548828125,-25.634765625,-6.89697265625
0.8931400775909424,1582568313,1,0.8868310451507568,0.1361307054758072,0.6400259137153625,50.9033203125,-36.865234375,-13.97705078125
0.9181482791900635,1582568312,0,0.11843652278184891,0.5147928595542908,1.0443545579910278,-68.4814453125,100.4638671875,97.7783203125
0.9181549549102783,1582568331,0,0.11623925715684891,0.5409159064292908,0.9576846361160278,-76.35498046875,105.224609375,82.58056640625
0.9253320693969727,1582568332,1,0.7977197170257568,0.05165804922580719,0.5225942730903625,46.93603515625,-27.099609375,2.62451171875
0.9381802082061768,1582568350,0,0.08865136653184891,0.49379676580429077,0.9952822923660278,-75.62255859375,104.4921875,75.13427734375
0.9520940780639648,1582568351,1,0.7755029201507568,0.1329568773508072,0.5228384137153625,46.630859375,-54.87060546875,2.01416015625
0.9521679878234863,1582568370,1,0.9434716701507568,0.03798617422580719,0.5545766949653625,48.9501953125,-66.83349609375,7.62939453125
0.9741261005401611,1582568386,0,0.07571191340684891,0.5199198126792908,0.9430361986160278,-70.556640625,94.54345703125,65.73486328125
0.9848630428314209,1582568389,1,1.0731103420257568,-0.02109585702419281,0.6112173199653625,53.28369140625,-39.00146484375,16.90673828125
0.984868049621582,1582568408,1,0.9219872951507568,0.03261508047580719,0.6412466168403625,56.15234375,8.1787109375,27.16064453125
0.9980900287628174,1582568405,0,0.10647363215684891,0.47182410955429077,1.0145694017410278,-66.95556640625,88.68408203125,57.31201171875
0.9981510639190674,1582568424,0,0.1330849528312683,0.43886512517929077,1.0011416673660278,-68.2373046875,88.623046875,63.1103515625
1.0197811126708984,1582568427,1,0.7896630764007568,0.09706820547580719,0.6768911480903625,45.166015625,2.5634765625,15.5029296875
1.0278830528259277,1582568443,0,0.12014550715684891,0.42421668767929077,0.9694033861160278,-71.59423828125,93.8720703125,62.68310546875
1.0419800281524658,1582568446,1,0.7369287014007568,0.04213656485080719,0.6629751324653625,20.3857421875,3.0517578125,8.48388671875
1.0420281887054443,1582568465,1,0.7391259670257568,0.2279275804758072,0.5687368512153625,5.06591796875,23.37646484375,-13.36669921875
1.0692400932312012,1582568462,0,0.1518837809562683,0.43056434392929077,0.9686709642410278,-64.51416015625,88.92822265625,54.8095703125
1.0692460536956787,1582568481,0,0.1323525309562683,0.35097450017929077,0.9303408861160278,-63.3544921875,91.552734375,50.6591796875
1.0747640132904053,1582568484,1,0.6234033107757568,0.12172640860080719,0.5211294293403625,1.46484375,47.4853515625,-107.7880859375
1.0878961086273193,1582568500,0,0.10037011653184891,0.43202918767929077,0.8883486986160278,-76.96533203125,102.60009765625,47.9736328125
1.1019752025604248,1582568503,1,0.4993799030780792,-0.1705099195241928,0.43201813101768494,60.48583984375,71.59423828125,-171.93603515625
1.1019880771636963,1582568522,1,0.8721826076507568,-0.02426968514919281,0.5619009137153625,95.88623046875,79.2236328125,-162.4755859375
1.1217281818389893,1582568519,0,0.06960839778184891,0.33144325017929077,0.7132998704910278,-71.83837890625,89.05029296875,44.5556640625
1.1217350959777832,1582568538,0,0.11355371028184891,0.44106239080429077,0.7064639329910278,-49.37744140625,41.68701171875,43.212890625
1.1330010890960693,1582568558,1,0.8047997951507568,0.372947096824646,0.6908071637153625,38.818359375,34.912109375,-15.80810546875
1.1464152336120605,1582568557,0,0.1679970622062683,0.49721473455429077,0.7198916673660278,-43.64013671875,17.578125,49.98779296875
1.1464641094207764,1582568576,0,0.2053505778312683,0.5106424689292908,0.8050967454910278,-54.50439453125,20.44677734375,36.31591796875
1.1709120273590088,1582568577,1,0.6524560451507568,0.1378396898508072,0.7022817730903625,-5.67626953125,20.69091796875,12.8173828125
1.1782710552215576,1582568595,0,0.2434365153312683,0.6080545783042908,0.8016787767410278,-73.486328125,31.31103515625,9.21630859375
1.1928589344024658,1582568596,1,0.6773583889007568,0.06923617422580719,0.6334341168403625,-29.23583984375,3.5400390625,14.892578125
1.1928901672363281,1582568615,1,0.6507470607757568,0.10170687735080719,0.7249868512153625,-35.400390625,5.18798828125,8.60595703125
1.2165260314941406,1582568614,0,0.1914345622062683,0.6126932501792908,0.8453799486160278,-102.47802734375,42.724609375,-44.61669921875
1.2244741916656494,1582568634,1,0.4439599812030792,0.07216586172580719,0.8587759137153625,-42.8466796875,-18.37158203125,0.79345703125
1.2383620738983154,1582568650,0,0.1643349528312683,0.41078895330429077,1.0057803392410278,-153.4423828125,58.65478515625,-98.20556640625
1.2511520385742188,1582568653,1,0.7159326076507568,0.10024203360080719,0.6214712262153625,-5.43212890625,-38.330078125,12.6953125
1.2511980533599854,1582568672,1,0.9000146389007568,0.1905740648508072,0.5614126324653625,25.32958984375,13.916015625,21.484375
1.2745442390441895,1582568669,0,0.06472558528184891,0.43227332830429077,0.8490420579910278,-156.31103515625,69.51904296875,-100.830078125
1.2745511531829834,1582568688,0,0.04348535090684891,0.36928504705429077,0.8131533861160278,-154.541015625,70.1904296875,-92.4072265625
1.2826790809631348,1582568691,1,0.7391259670257568,0.09560336172580719,0.7364614605903625,7.99560546875,69.091796875,-19.22607421875
1.298032283782959,1582568707,0,0.021512694656848907,0.38759559392929077,0.8182803392410278,-148.5595703125,47.7294921875,-94.8486328125
1.2980961799621582,1582568726,0,-0.04953222721815109,0.28383582830429077,0.8546572923660278,-149.10888671875,35.2783203125,-105.52978515625
1.3201448917388916,1582568710,1,0.7117822170257568,0.2101053148508072,0.7420766949653625,-39.1845703125,44.98291015625,-34.85107421875
1.3201510906219482,1582568729,1,0.7425439357757568,0.278952956199646,0.7779653668403625,-46.08154296875,34.60693359375,-17.76123046875
1.3277828693389893,1582568745,0,-0.11227636784315109,0.21742957830429077,0.9176455736160278,-143.24951171875,30.57861328125,-100.09765625
1.3418691158294678,1582568748,1,0.7010400295257568,0.306784987449646,0.8536489605903625,-24.4140625,-4.638671875,29.541015625
1.3418991565704346,1582568767,1,0.7049462795257568,0.294822096824646,0.8441274762153625,-31.67724609375,-20.20263671875,50.84228515625
1.3687512874603271,1582568764,0,-0.1935752034187317,0.14199012517929077,1.0157901048660278,-124.20654296875,22.64404296875,-74.15771484375
1.3687560558319092,1582568783,0,-0.2016318440437317,0.21157020330429077,1.0453311204910278,-97.59521484375,5.2490234375,-44.49462890625
1.3737192153930664,1582568786,1,0.6910302639007568,0.272605299949646,0.8304556012153625,-31.67724609375,-10.19287109375,41.56494140625
1.387972116470337,1582568802,0,-0.1847861409187317,0.28481239080429077,1.0936709642410278,-86.0595703125,-11.65771484375,-35.09521484375
1.4026319980621338,1582568822,1,0.7313134670257568,0.295798659324646,0.8416860699653625,12.6953125,3.90625,41.1376953125
1.4201679229736328,1582568821,0,-0.1296103596687317,0.35170692205429077,1.1434756517410278,-89.17236328125,-18.98193359375,-36.7431640625
1.420173168182373,1582568840,0,-0.09982519596815109,0.31972450017929077,1.1898623704910278,-101.62353515625,-3.72314453125,-34.423828125
1.4331650733947754,1582568841,1,0.7818505764007568,0.2389139086008072,0.8255727887153625,25.2685546875,1.708984375,57.06787109375
1.447803020477295,1582568859,0,-0.11154394596815109,0.30336707830429077,1.2003604173660278,-101.98974609375,18.24951171875,-20.56884765625
1.4714760780334473,1582568860,1,0.8665673732757568,0.1812967211008072,0.8053091168403625,26.0009765625,-5.0048828125,53.40576171875
1.471482276916504,1582568879,1,0.8777978420257568,0.1705545336008072,0.7965200543403625,26.06201171875,-11.1083984375,34.85107421875
1.4782140254974365,1582568878,0,-0.10104589909315109,0.34242957830429077,1.1915713548660278,-95.8251953125,34.36279296875,-8.9111328125
1.493067979812622,1582568898,1,0.8975732326507568,0.1825174242258072,0.7923696637153625,24.59716796875,-26.30615234375,33.99658203125
1.4930822849273682,1582568917,1,0.8914697170257568,0.1783670336008072,0.6944692730903625,33.38623046875,-41.748046875,43.39599609375
1.517319917678833,1582568914,0,-0.07736425846815109,0.44277137517929077,1.1520205736160278,-92.46826171875,36.0107421875,-8.6669921875
1.5173242092132568,1582568933,0,-0.09005957096815109,0.46157020330429077,1.1652041673660278,-86.60888671875,35.400390625,-9.70458984375
1.5227060317993164,1582568936,1,0.9373681545257568,0.1444314867258072,0.5921743512153625,39.306640625,-39.55078125,46.20361328125
1.5382630825042725,1582568952,0,-0.10446386784315109,0.43984168767929077,1.2245303392410278,-82.33642578125,33.99658203125,-10.6201171875
1.5528790950775146,1582568955,1,0.9683740139007568,0.08534945547580719,0.5416372418403625,37.65869140625,-25.390625,45.0439453125
1.5528910160064697,1582568974,1,1.0308740139007568,0.06581820547580719,0.5982778668403625,40.0390625,-6.2255859375,40.83251953125
1.5740411281585693,1582568971,0,-0.09054785221815109,0.39443153142929077,1.3104678392410278,-79.1015625,35.0341796875,-7.080078125
1.5740461349487305,1582568990,0,-0.09713964909315109,0.37221473455429077,1.3324404954910278,-79.7119140625,41.68701171875,0.06103515625
1.585170030593872,1582568993,1,1.0533349514007568,0.03188265860080719,0.6126821637153625,50.6591796875,-5.67626953125,24.59716796875
1.5983009338378906,1582569009,0,-0.06906347721815109,0.34804481267929077,1.3080264329910278,-78.67431640625,59.5703125,20.01953125
1.620074987411499,1582569012,1,1.0259912014007568,0.09218539297580719,0.5655630230903625,60.24169921875,-21.42333984375,17.27294921875
1.6200809478759766,1582569031,1,0.9827783107757568,0.05336703360080719,0.49769195914268494,70.25146484375,-23.5595703125,10.92529296875
1.6280090808868408,1582569028,0,-0.05783300846815109,0.40615028142929077,1.1979190111160278,-72.44873046875,88.56201171875,36.2548828125
1.628047227859497,1582569047,0,-0.09518652409315109,0.35317176580429077,1.0885440111160278,-70.1904296875,98.9990234375,41.259765625
1.6426429748535156,1582569050,1,0.9717919826507568,0.07582797110080719,0.46229156851768494,77.7587890625,-14.70947265625,-8.23974609375
1.6680710315704346,1582569066,0,-0.09274511784315109,0.34340614080429077,1.0231143236160278,-59.99755859375,84.41162109375,52.3681640625
1.6680760383605957,1582569085,0,-0.10055761784315109,0.33437293767929077,1.0089541673660278,-41.259765625,64.02587890625,72.32666015625
1.6731059551239014,1582569086,1,0.9417626857757568,0.07167758047580719,0.5291860699653625,62.744140625,3.173828125,-9.09423828125
1.6876239776611328,1582569104,0,-0.07614355534315109,0.41567176580429077,0.9957705736160278,-34.36279296875,58.59375,81.54296875
1.7020530700683594,1582569105,1,0.9405419826507568,0.11366976797580719,0.5052602887153625,36.0107421875,-8.23974609375,-20.99609375
1.7020869255065918,1582569124,1,0.9234521389007568,0.09096468985080719,0.5553091168403625,27.77099609375,-16.9677734375,-22.94921875
1.7207019329071045,1582569123,0,-0.05417089909315109,0.43935340642929077,0.9850283861160278,-43.76220703125,63.1103515625,80.56640625
1.7207062244415283,1582569142,0,-0.026827149093151093,0.43544715642929077,0.9852725267410278,-54.931640625,66.46728515625,79.77294921875
1.7330400943756104,1582569143,1,0.9014794826507568,0.1585916429758072,0.5711782574653625,16.845703125,-25.69580078125,-23.4375
1.76832914352417,1582569162,1,0.9131982326507568,0.1683572679758072,0.5211294293403625,1.52587890625,-37.4755859375,-27.40478515625
1.7693610191345215,1582569181,1,0.8238427639007568,0.2042459398508072,0.5313833355903625,2.25830078125,-44.0673828125,-13.36669921875
1.777968168258667,1582569178,0,-0.027315430343151093,0.39711707830429077,0.9921084642410278,-53.5888671875,60.05859375,93.017578125
1.7779998779296875,1582569197,0,-0.05295019596815109,0.39589637517929077,0.9747744798660278,-44.0673828125,50.84228515625,99.67041015625
1.793060064315796,1582569200,1,0.8316552639007568,0.1666482836008072,0.49085602164268494,1.220703125,-52.3681640625,6.2255859375
1.8175439834594727,1582569216,0,-0.03781347721815109,0.42446082830429077,0.9777041673660278,-31.06689453125,39.00146484375,105.52978515625
1.8175480365753174,1582569235,0,0.011014647781848907,0.49892371892929077,0.9764834642410278,-29.35791015625,40.95458984375,105.1025390625
1.8255560398101807,1582569219,1,0.8118798732757568,0.1742166429758072,0.47620758414268494,-7.87353515625,-40.283203125,-0.42724609375
1.8255610466003418,1582569238,1,0.7986962795257568,0.297263503074646,0.49622711539268494,-22.216796875,-38.75732421875,5.92041015625
1.8382220268249512,1582569254,0,0.06081933528184891,0.5792459845542908,0.9349795579910278,-49.86572265625,57.373046875,86.97509765625
1.852973222732544,1582569257,1,0.7784326076507568,0.2494119554758072,0.5018423199653625,-27.4658203125,-46.08154296875,30.45654296875
1.8530020713806152,1582569276,1,0.7864892482757568,0.2198709398508072,0.47767242789268494,-22.27783203125,-48.64501953125,26.42822265625
1.8715860843658447,1582569273,0,0.08523339778184891,0.5497049689292908,0.8912783861160278,-70.3125,66.22314453125,73.6083984375
1.8715910911560059,1582569292,0,0.08694238215684891,0.5069803595542908,0.8536807298660278,-77.94189453125,59.9365234375,75.3173828125
1.8829450607299805,1582569295,1,0.7769677639007568,0.2479471117258072,0.47254547476768494,-29.9072265625,-43.27392578125,7.26318359375
1.8981430530548096,1582569311,0,0.06765527278184891,0.5016092658042908,0.8278018236160278,-71.59423828125,43.5791015625,87.5244140625
1.9199440479278564,1582569314,1,0.7610986232757568,0.279197096824646,0.45106109976768494,-33.69140625,-32.5927734375,5.67626953125
1.9279091358184814,1582569330,0,0.08157128840684891,0.5094217658042908,0.8112002611160278,-54.13818359375,13.3056640625,106.38427734375
1.9279210567474365,1582569349,0,0.1587197184562683,0.5360330939292908,0.7809268236160278,-37.53662109375,-9.521484375,110.29052734375
1.9426779747009277,1582569350,1,0.7855126857757568,0.267722487449646,0.49915680289268494,-27.77099609375,-26.79443359375,35.400390625
1.969391107559204,1582569368,0,0.2361122965812683,0.5553202033042908,0.7789736986160278,-35.09521484375,-12.0849609375,110.7177734375
1.9693961143493652,1582569387,0,0.2688271403312683,0.5540995001792908,0.7933779954910278,-38.75732421875,0.0,106.50634765625
1.9742810726165771,1582569369,1,0.8599755764007568,0.2000955492258072,0.5047720074653625,-17.88330078125,-30.8837890625,48.7060546875
1.9742872714996338,1582569388,1,0.8658349514007568,0.1495584398508072,0.5147817730903625,-18.24951171875,-33.75244140625,36.1328125
1.987779140472412,1582569406,0,0.2776162028312683,0.6090311408042908,0.7648135423660278,-40.283203125,7.38525390625,106.689453125
2.0019891262054443,1582569407,1,0.8912255764007568,0.11684359610080719,0.5250356793403625,-27.40478515625,-30.3955078125,24.90234375
2.0020742416381836,1582569426,1,0.9178369045257568,0.11733187735080719,0.5252798199653625,-28.3203125,-22.76611328125,14.58740234375
2.021820068359375,1582569442,0,0.3349892497062683,0.6673807501792908,0.7281924486160278,-49.072265625,-13.0615234375,78.4912109375
2.0323688983917236,1582569445,1,0.9017236232757568,0.09999789297580719,0.5484731793403625,-20.32470703125,-18.24951171875,14.0380859375
2.047921895980835,1582569461,0,0.3637978434562683,0.6390604376792908,0.7665225267410278,-67.87109375,-3.90625,63.78173828125
2.07184100151062,1582569464,1,0.9188134670257568,0.09413851797580719,0.5548208355903625,-14.16015625,-16.4794921875,10.55908203125
2.071847915649414,1582569483,1,0.9129540920257568,0.09340609610080719,0.5372427105903625,-6.77490234375,-24.47509765625,10.31494140625
2.078062057495117,1582569480,0,0.3547646403312683,0.6012186408042908,0.7679873704910278,-77.45361328125,14.2822265625,62.56103515625
2.078094244003296,1582569499,0,0.3240029215812683,0.6039041876792908,0.7423526048660278,-81.23779296875,27.099609375,66.58935546875
2.0933079719543457,1582569502,1,0.9402978420257568,0.11025179922580719,0.5321157574653625,-3.72314453125,-31.6162109375,1.64794921875
2.1174721717834473,1582569518,0,0.3362099528312683,0.6554178595542908,0.7411319017410278,-79.16259765625,17.578125,62.98828125
2.117476224899292,1582569537,0,0.3498818278312683,0.6185526251792908,0.7794619798660278,-86.73095703125,0.732421875,41.80908203125
2.1241159439086914,1582569521,1,0.9012353420257568,0.1476053148508072,0.5450552105903625,-4.08935546875,-30.76171875,-10.55908203125
2.138113021850586,1582569556,0,0.3454872965812683,0.5694803595542908,0.8287783861160278,-92.83447265625,1.3427734375,29.84619140625
2.1531059741973877,1582569540,1,0.9073388576507568,0.1397928148508072,0.5499380230903625,-2.8076171875,-26.611328125,-10.19287109375
2.153200149536133,1582569559,1,0.9014794826507568,0.1383279711008072,0.5179556012153625,-9.765625,-25.81787109375,-8.36181640625
2.1532280445098877,1582569578,1,0.9014794826507568,0.1603006273508072,0.5169790387153625,-16.54052734375,-25.69580078125,-11.41357421875
2.173295259475708,1582569575,0,0.3015419840812683,0.5448221564292908,0.8497744798660278,-93.44482421875,22.76611328125,32.65380859375
2.1733009815216064,1582569594,0,0.2859169840812683,0.5621561408042908,0.8114444017410278,-93.26171875,39.73388671875,39.0625
2.1960031986236572,1582569613,0,0.2773720622062683,0.5741190314292908,0.7701846361160278,-91.61376953125,42.236328125,40.71044921875
2.217341899871826,1582569614,1,0.9175927639007568,0.2362283617258072,0.5521352887153625,-17.08984375,-26.9775390625,-23.86474609375
2.21734619140625,1582569633,1,0.9009912014007568,0.1920389086008072,0.5543325543403625,-25.5126953125,-26.55029296875,-24.169921875
2.2281479835510254,1582569632,0,0.2781044840812683,0.5616678595542908,0.7760440111160278,-92.59033203125,34.1796875,38.818359375
2.2282371520996094,1582569651,0,0.2815224528312683,0.5394510626792908,0.8285342454910278,-94.970703125,27.16064453125,35.70556640625
2.242713212966919,1582569652,1,0.9166162014007568,0.2040017992258072,0.5350454449653625,-34.0576171875,-25.69580078125,-24.169921875
2.2684500217437744,1582569670,0,0.2920204997062683,0.5248026251792908,0.8734561204910278,-95.0927734375,30.45654296875,34.423828125
2.2734789848327637,1582569671,1,0.9385888576507568,0.2091287523508072,0.5560415387153625,-33.87451171875,-26.123046875,-16.6015625
2.2734851837158203,1582569690,1,0.9715478420257568,0.1893533617258072,0.5824087262153625,-37.353515625,-30.3955078125,-12.3291015625
2.2876689434051514,1582569706,0,0.3227822184562683,0.5372537970542908,0.9269229173660278,-89.53857421875,44.86083984375,44.7998046875
2.30277419090271,1582569709,1,0.9522607326507568,0.1942361742258072,0.5926626324653625,-45.95947265625,-31.982421875,-17.9443359375
2.3028390407562256,1582569728,1,0.9158837795257568,0.2081521898508072,0.5846059918403625,-47.18017578125,-28.01513671875,-23.681640625
2.321244955062866,1582569725,0,0.3152138590812683,0.5316385626792908,0.9318057298660278,-90.39306640625,53.52783203125,42.48046875
2.321251153945923,1582569744,0,0.2927529215812683,0.5194315314292908,0.9083682298660278,-90.51513671875,60.1806640625,39.36767578125
2.3329520225524902,1582569747,1,0.9012353420257568,0.2113260179758072,0.5872915387153625,-44.73876953125,-28.3203125,-24.71923828125
2.347733974456787,1582569763,0,0.2864052653312683,0.5123514533042908,0.8802920579910278,-87.82958984375,63.3544921875,41.3818359375
2.371121883392334,1582569766,1,0.8973290920257568,0.2108377367258072,0.5929067730903625,-38.818359375,-23.193359375,-22.94921875
2.371129035949707,1582569785,1,0.9112451076507568,0.1861795336008072,0.6080434918403625,-35.15625,-15.13671875,-22.27783203125
2.37634015083313,1582569782,0,0.2673622965812683,0.5201639533042908,0.8820010423660278,-85.99853515625,66.2841796875,45.59326171875
2.376422882080078,1582569801,0,0.2619912028312683,0.5321268439292908,0.8627139329910278,-82.58056640625,70.98388671875,49.8046875
2.3929741382598877,1582569804,1,0.9551904201507568,0.2020486742258072,0.6192739605903625,-35.70556640625,-9.58251953125,-22.3388671875
2.417396068572998,1582569820,0,0.2541787028312683,0.5457987189292908,0.8336611986160278,-83.0078125,78.55224609375,52.734375
2.4248850345611572,1582569823,1,0.8958642482757568,0.1793435961008072,0.6756704449653625,-37.59765625,-5.79833984375,-25.634765625
2.4248902797698975,1582569842,1,0.8445947170257568,0.2074197679758072,0.7037466168403625,-31.31103515625,-6.40869140625,-22.76611328125
2.4379470348358154,1582569839,0,0.2422158122062683,0.5482401251792908,0.8141299486160278,-84.3505859375,83.43505859375,49.4384765625
2.4379730224609375,1582569858,0,0.2314736247062683,0.5374979376792908,0.8009463548660278,-85.44921875,86.12060546875,48.095703125
2.45297908782959,1582569878,1,0.8123681545257568,0.1834939867258072,0.7044790387153625,-7.99560546875,-12.02392578125,-12.0849609375
2.4742820262908936,1582569877,0,0.2209755778312683,0.5406717658042908,0.8092471361160278,-86.73095703125,84.65576171875,48.40087890625
2.4742889404296875,1582569896,0,0.2312294840812683,0.5438455939292908,0.8361026048660278,-85.8154296875,77.0263671875,50.96435546875
2.4814860820770264,1582569897,1,0.7645165920257568,0.1556619554758072,0.6793325543403625,-5.2490234375,-15.7470703125,-11.04736328125
2.498197078704834,1582569915,0,0.2551552653312683,0.5438455939292908,0.8727236986160278,-83.80126953125,69.4580078125,52.67333984375
2.52126407623291,1582569916,1,0.7559716701507568,0.1397928148508072,0.7027700543403625,-12.87841796875,-18.98193359375,-13.36669921875
2.521270990371704,1582569935,1,0.7479150295257568,0.1588357836008072,0.6764028668403625,-22.94921875,-23.25439453125,-15.869140625
2.52793288230896,1582569934,0,0.2676064372062683,0.5470194220542908,0.8954287767410278,-78.67431640625,71.22802734375,53.77197265625
2.5428879261016846,1582569954,1,0.7466943264007568,0.1551736742258072,0.6532095074653625,-24.35302734375,-23.8037109375,-15.2587890625
2.567944049835205,1582569970,0,0.2693154215812683,0.5614237189292908,0.8592959642410278,-74.5849609375,81.11572265625,53.22265625
2.5742909908294678,1582569973,1,0.7308251857757568,0.1288064867258072,0.6136587262153625,-18.798828125,-23.3154296875,-14.34326171875
2.574296236038208,1582569992,1,0.7388818264007568,0.12270297110080719,0.6077993512153625,-14.46533203125,-21.484375,-11.23046875
2.588099241256714,1582569989,0,0.2668740153312683,0.5655741095542908,0.8238955736160278,-74.15771484375,79.89501953125,50.96435546875
2.588184118270874,1582570008,0,0.2656533122062683,0.5621561408042908,0.8175479173660278,-74.52392578125,73.91357421875,50.29296875
2.6026771068573,1582570011,1,0.7664697170257568,0.11562289297580719,0.6224477887153625,-13.48876953125,-17.578125,-13.97705078125
2.6224498748779297,1582570027,0,0.2729775309562683,0.5663065314292908,0.8063174486160278,-74.40185546875,69.03076171875,53.3447265625
2.6224541664123535,1582570046,0,0.2878701090812683,0.5692362189292908,0.8133975267410278,-73.3642578125,68.29833984375,55.7861328125
2.6329128742218018,1582570030,1,0.7667138576507568,0.12197054922580719,0.6370962262153625,-13.5498046875,-15.625,-17.333984375
2.632944107055664,1582570049,1,0.7845361232757568,0.1261209398508072,0.6422231793403625,-18.00537109375,-13.5498046875,-22.52197265625
2.647874116897583,1582570065,0,0.2971474528312683,0.5958475470542908,0.8165713548660278,-72.8759765625,67.93212890625,55.84716796875
2.6706361770629883,1582570068,1,0.7860009670257568,0.1358865648508072,0.6185415387153625,-19.10400390625,-15.56396484375,-24.169921875
2.6706418991088867,1582570087,1,0.7964990139007568,0.1341775804758072,0.6173208355903625,-17.76123046875,-18.5546875,-18.73779296875
2.6779770851135254,1582570084,0,0.2893349528312683,0.5943827033042908,0.8229190111160278,-76.47705078125,67.56591796875,50.72021484375
2.677988052368164,1582570103,0,0.2771279215812683,0.5653299689292908,0.8358584642410278,-77.94189453125,66.89453125,45.34912109375
2.716062068939209,1582570122,0,0.2629677653312683,0.5465311408042908,0.8446475267410278,-75.86669921875,65.7958984375,46.81396484375
2.7227821350097656,1582570106,1,0.7855126857757568,0.1617654711008072,0.6156118512153625,-20.3857421875,-16.9677734375,-16.17431640625
2.722836971282959,1582570142,1,0.7894189357757568,0.1644510179758072,0.6480825543403625,-25.5126953125,-18.61572265625,-11.16943359375
2.7380502223968506,1582570141,0,0.2571083903312683,0.5494608283042908,0.8368350267410278,-71.1669921875,67.87109375,51.6357421875
2.7380781173706055,1582570160,0,0.2439247965812683,0.5604471564292908,0.8187686204910278,-72.93701171875,70.37353515625,50.9033203125
2.75297212600708,1582570161,1,0.7786767482757568,0.1832498461008072,0.6422231793403625,-25.390625,-18.12744140625,-13.0615234375
2.7734341621398926,1582570179,0,0.2158486247062683,0.5550760626792908,0.8077822923660278,-78.43017578125,73.30322265625,49.74365234375
2.7837250232696533,1582570180,1,0.7701318264007568,0.2037576586008072,0.6641958355903625,-19.1650390625,-17.2119140625,-10.80322265625
2.7837300300598145,1582570199,1,0.7549951076507568,0.1981424242258072,0.6546743512153625,-19.10400390625,-16.845703125,-6.2255859375
2.7964859008789062,1582570198,0,0.1975380778312683,0.5421366095542908,0.8055850267410278,-80.322265625,72.1435546875,48.9501953125
2.8197970390319824,1582570218,1,0.7520654201507568,0.1859353929758072,0.6536977887153625,-15.869140625,-14.22119140625,-3.11279296875
2.826371192932129,1582570234,0,0.1570107340812683,0.47817176580429077,0.8492861986160278,-81.9091796875,66.5283203125,53.64990234375
2.826442003250122,1582570253,0,0.1416298747062683,0.46083778142929077,0.8607608079910278,-82.03125,66.58935546875,62.6220703125
2.8414359092712402,1582570237,1,0.7471826076507568,0.1922830492258072,0.6558950543403625,-10.8642578125,-10.68115234375,1.5869140625
2.841477870941162,1582570256,1,0.7464501857757568,0.1815408617258072,0.6549184918403625,-7.9345703125,-5.55419921875,5.92041015625
2.868978977203369,1582570272,0,0.1496865153312683,0.46596473455429077,0.8683291673660278,-83.55712890625,69.2138671875,70.25146484375
2.874161958694458,1582570275,1,0.7486474514007568,0.1773904711008072,0.6519888043403625,-5.92041015625,-0.30517578125,2.86865234375
2.8741681575775146,1582570294,1,0.7515771389007568,0.1993631273508072,0.6690786480903625,-6.2255859375,1.89208984375,3.41796875
2.8863470554351807,1582570291,0,0.1643349528312683,0.46352332830429077,0.8854190111160278,-86.5478515625,72.998046875,75.37841796875
2.8863842487335205,1582570310,0,0.1736122965812683,0.45204871892929077,0.8878604173660278,-91.97998046875,76.5380859375,74.70703125
2.901327133178711,1582570313,1,0.7396142482757568,0.1952127367258072,0.6766470074653625,-5.859375,5.126953125,1.77001953125
2.920591115951538,1582570329,0,0.1645790934562683,0.41127723455429077,0.8885928392410278,-93.505859375,79.4677734375,79.2236328125
2.931549072265625,1582570332,1,0.7435204982757568,0.1915506273508072,0.6773794293403625,-8.85009765625,4.7607421875,0.9765625
2.931641101837158,1582570351,1,0.7410790920257568,0.2088846117258072,0.6866567730903625,-10.6201171875,5.55419921875,-2.50244140625
2.9464142322540283,1582570348,0,0.1843544840812683,0.39711707830429077,0.8778506517410278,-85.75439453125,83.1298828125,91.6748046875
2.9464430809020996,1582570367,0,0.2036415934562683,0.43422645330429077,0.8551455736160278,-79.4677734375,86.36474609375,101.4404296875
2.969776153564453,1582570370,1,0.7515771389007568,0.2184060961008072,0.6871450543403625,-13.5498046875,4.21142578125,-3.5400390625
2.9765241146087646,1582570386,0,0.2444130778312683,0.48134559392929077,0.8243838548660278,-74.15771484375,87.890625,105.1025390625
2.9765491485595703,1582570405,0,0.2624794840812683,0.5301737189292908,0.8070498704910278,-78.79638671875,91.49169921875,100.5859375
2.9913711547851562,1582570406,1,0.7383935451507568,0.2181619554758072,0.7159536480903625,-15.93017578125,4.2724609375,-5.9814453125
3.0169851779937744,1582570424,0,0.2624794840812683,0.5230936408042908,0.8202334642410278,-89.41650390625,93.3837890625,93.3837890625
3.021897077560425,1582570425,1,0.7335107326507568,0.2132791429758072,0.7254751324653625,-13.36669921875,9.46044921875,-4.5166015625
3.0219011306762695,1582570444,1,0.7247216701507568,0.2032693773508072,0.7262075543403625,-7.568359375,14.5263671875,-4.33349609375
3.0363640785217285,1582570443,0,0.2561318278312683,0.5042948126792908,0.8314639329910278,-94.05517578125,93.26171875,92.28515625
3.0363929271698,1582570462,0,0.2844521403312683,0.5020975470542908,0.8380557298660278,-92.28515625,91.61376953125,97.59521484375
3.051482915878296,1582570463,1,0.7315576076507568,0.2088846117258072,0.7413442730903625,-4.69970703125,15.9912109375,-5.92041015625
3.0811269283294678,1582570482,1,0.7332665920257568,0.2005838304758072,0.7484243512153625,-4.0283203125,10.55908203125,-1.89208984375
3.0822131633758545,1582570501,1,0.7332665920257568,0.1969217211008072,0.7572134137153625,-7.9345703125,3.11279296875,2.685546875
3.0964548587799072,1582570498,0,0.3215615153312683,0.5516580939292908,0.8529483079910278,-87.34130859375,83.80126953125,101.4404296875
3.0964741706848145,1582570517,0,0.3208290934562683,0.5609354376792908,0.8885928392410278,-90.33203125,80.9326171875,93.505859375
3.120147943496704,1582570520,1,0.7259423732757568,0.1891092211008072,0.7467153668403625,-10.8642578125,-5.2490234375,9.27734375
3.1278772354125977,1582570536,0,0.3000771403312683,0.5226053595542908,0.9200869798660278,-92.95654296875,81.1767578125,86.7919921875
3.1278982162475586,1582570555,0,0.3039833903312683,0.49379676580429077,0.9271670579910278,-90.75927734375,80.56640625,89.53857421875
3.142879009246826,1582570539,1,0.7386376857757568,0.1815408617258072,0.7213247418403625,-12.20703125,-8.4228515625,12.5732421875
3.1429262161254883,1582570558,1,0.7361962795257568,0.1712869554758072,0.7022817730903625,-11.1083984375,-9.27734375,13.73291015625
3.168194055557251,1582570574,0,0.3327919840812683,0.5033182501792908,0.9029971361160278,-79.4677734375,78.4912109375,103.515625
3.174307107925415,1582570577,1,0.7203271389007568,0.1622537523508072,0.7120473980903625,-10.31494140625,-8.544921875,10.986328125
3.174312114715576,1582570596,1,0.7310693264007568,0.1693338304758072,0.7022817730903625,-10.31494140625,-11.71875,6.34765625
3.1880850791931152,1582570593,0,0.3691689372062683,0.5455545783042908,0.8873721361160278,-70.00732421875,74.8291015625,109.2529296875
3.1881630420684814,1582570612,0,0.3989540934562683,0.5833963751792908,0.8663760423660278,-65.73486328125,75.439453125,107.5439453125
3.202810287475586,1582570615,1,0.7274072170257568,0.1815408617258072,0.7169302105903625,-11.8408203125,-13.24462890625,3.5400390625
3.222252130508423,1582570631,0,0.4035927653312683,0.6026834845542908,0.8683291673660278,-69.64111328125,80.99365234375,99.06005859375
3.232715129852295,1582570634,1,0.7283837795257568,0.1917947679758072,0.7154653668403625,-13.73291015625,-13.00048828125,3.173828125
3.24786114692688,1582570650,0,0.3948037028312683,0.5914530158042908,0.8766299486160278,-82.82470703125,86.97509765625,87.46337890625
3.2479512691497803,1582570669,0,0.3786904215812683,0.5186991095542908,0.8756533861160278,-86.7919921875,91.6748046875,83.1298828125
3.270965099334717,1582570670,1,0.7452294826507568,0.1891092211008072,0.6766470074653625,-15.07568359375,-16.4794921875,0.6103515625
3.27799916267395,1582570688,0,0.3960244059562683,0.48818153142929077,0.8387881517410278,-78.43017578125,91.36962890625,91.1865234375
3.2780380249023438,1582570707,0,0.4157997965812683,0.5033182501792908,0.8016787767410278,-63.96484375,87.46337890625,102.72216796875
3.2929670810699463,1582570689,1,0.7440087795257568,0.1998514086008072,0.6724966168403625,-16.29638671875,-12.6953125,-3.72314453125
3.292983055114746,1582570708,1,0.7520654201507568,0.1913064867258072,0.6722524762153625,-16.41845703125,-10.009765625,-3.60107421875
3.318202257156372,1582570726,0,0.4241005778312683,0.5416483283042908,0.7799502611160278,-56.21337890625,77.392578125,103.8818359375
3.3233070373535156,1582570727,1,0.7908837795257568,0.2040017992258072,0.6778677105903625,-15.19775390625,-2.9296875,-8.11767578125
3.323312997817993,1582570746,1,0.8082177639007568,0.1856912523508072,0.7020376324653625,-13.671875,2.0751953125,-9.1552734375
3.338135004043579,1582570762,0,0.4070107340812683,0.5453104376792908,0.8028994798660278,-67.0166015625,63.53759765625,95.21484375
3.3529880046844482,1582570765,1,0.8201806545257568,0.1661600023508072,0.7315786480903625,-14.95361328125,1.5869140625,-9.82666015625
3.3749680519104004,1582570781,0,0.3940712809562683,0.49843543767929077,0.8361026048660278,-75.74462890625,63.232421875,92.46826171875
3.383004903793335,1582570784,1,0.8340966701507568,0.1532205492258072,0.7611196637153625,-17.39501953125,0.1220703125,-13.73291015625
3.3830862045288086,1582570803,1,0.8238427639007568,0.1451639086008072,0.7555044293403625,-18.37158203125,-5.37109375,-18.98193359375
3.3973519802093506,1582570800,0,0.3857704997062683,0.48305457830429077,0.8622256517410278,-75.8056640625,67.3828125,92.46826171875
3.397444248199463,1582570819,0,0.3801552653312683,0.47988075017929077,0.8780947923660278,-75.439453125,73.79150390625,91.36962890625
3.421133041381836,1582570822,1,0.8131005764007568,0.1395486742258072,0.7152212262153625,-19.10400390625,-13.5498046875,-27.2216796875
3.4282891750335693,1582570838,0,0.3740517497062683,0.45717567205429077,0.9005557298660278,-78.06396484375,78.369140625,86.48681640625
3.428354024887085,1582570857,0,0.3845497965812683,0.41933387517929077,0.9103213548660278,-80.2001953125,79.77294921875,89.2333984375
3.442859172821045,1582570841,1,0.7982079982757568,0.1566385179758072,0.7110708355903625,-21.42333984375,-16.11328125,-34.48486328125
3.4429190158843994,1582570860,1,0.7762353420257568,0.2003396898508072,0.7056997418403625,-20.99609375,-15.380859375,-36.19384765625
3.4670112133026123,1582570876,0,0.4155556559562683,0.38613075017929077,0.8917666673660278,-74.462890625,79.1015625,99.54833984375
3.472882032394409,1582570879,1,0.7664697170257568,0.2127908617258072,0.7022817730903625,-21.3623046875,-14.7705078125,-31.55517578125
3.4728870391845703,1582570898,1,0.7576806545257568,0.2064432054758072,0.7237661480903625,-24.169921875,-16.05224609375,-27.52685546875
3.4878861904144287,1582570895,0,0.4858681559562683,0.40981239080429077,0.8527041673660278,-62.68310546875,78.30810546875,112.548828125
3.487910032272339,1582570914,0,0.5386025309562683,0.45693153142929077,0.8058291673660278,-55.48095703125,77.63671875,114.990234375
3.521446943283081,1582570933,0,0.5832802653312683,0.46254676580429077,0.7467471361160278,-55.84716796875,83.251953125,101.50146484375
3.532923936843872,1582570934,1,0.7462060451507568,0.1817850023508072,0.7398794293403625,-26.30615234375,-22.4609375,-21.66748046875
3.532944917678833,1582570953,1,0.7281396389007568,0.1983865648508072,0.7550161480903625,-24.84130859375,-25.32958984375,-20.32470703125
3.5478930473327637,1582570952,0,0.5810829997062683,0.47157996892929077,0.7196475267410278,-64.39208984375,88.92822265625,88.623046875
3.547945022583008,1582570971,0,0.5991494059562683,0.44936317205429077,0.6874209642410278,-76.7822265625,93.68896484375,81.787109375
3.57148814201355,1582570972,1,0.7239892482757568,0.1764139086008072,0.7391470074653625,-19.775390625,-26.0009765625,-18.00537109375
3.5781021118164062,1582570990,0,0.6623818278312683,0.42324012517929077,0.6427432298660278,-75.1953125,92.041015625,89.111328125
3.5929250717163086,1582570991,1,0.7051904201507568,0.1681131273508072,0.7325552105903625,-18.24951171875,-25.93994140625,-15.68603515625
3.592957019805908,1582571010,1,0.6902978420257568,0.1471170336008072,0.7027700543403625,-19.04296875,-23.681640625,-15.80810546875
3.6166751384735107,1582571026,0,0.7009560465812683,0.47670692205429077,0.5843936204910278,-70.61767578125,83.1298828125,95.5810546875
3.624885082244873,1582571029,1,0.6629540920257568,0.1639627367258072,0.7396352887153625,-17.578125,-20.69091796875,-17.4560546875
3.624890089035034,1582571048,1,0.6563622951507568,0.1925271898508072,0.7342641949653625,-17.15087890625,-18.73779296875,-18.798828125
3.637996196746826,1582571045,0,0.6936318278312683,0.49770301580429077,0.5829287767410278,-75.5615234375,77.63671875,88.0126953125
3.6381051540374756,1582571064,0,0.6628701090812683,0.46523231267929077,0.6132022142410278,-88.92822265625,79.58984375,71.96044921875
3.652925968170166,1582571067,1,0.6463525295257568,0.1856912523508072,0.7113149762153625,-15.44189453125,-18.85986328125,-20.99609375
3.6732821464538574,1582571083,0,0.5776650309562683,0.37660926580429077,0.6578799486160278,-95.0927734375,89.53857421875,65.0634765625
3.6827640533447266,1582571086,1,0.6336572170257568,0.1837381273508072,0.6588247418403625,-15.68603515625,-15.869140625,-27.587890625
3.6828320026397705,1582571105,1,0.6385400295257568,0.2108377367258072,0.6204946637153625,-17.333984375,-12.39013671875,-24.96337890625
3.697978973388672,1582571102,0,0.5105263590812683,0.32973426580429077,0.6976748704910278,-83.6181640625,87.95166015625,79.345703125
3.6980092525482178,1582571121,0,0.4800087809562683,0.33949989080429077,0.7389346361160278,-72.93701171875,82.70263671875,93.6279296875
3.7191100120544434,1582571124,1,0.6507470607757568,0.1935037523508072,0.6344106793403625,-21.17919921875,-7.14111328125,-14.83154296875
3.728116035461426,1582571140,0,0.4761025309562683,0.35390418767929077,0.7977725267410278,-69.27490234375,72.75390625,105.77392578125
3.742877960205078,1582571143,1,0.6805322170257568,0.1998514086008072,0.6720083355903625,-23.62060546875,1.28173828125,-2.3193359375
3.7429111003875732,1582571162,1,0.6927392482757568,0.1622537523508072,0.7135122418403625,-21.91162109375,7.50732421875,10.68115234375
3.767597198486328,1582571159,0,0.4468056559562683,0.31191200017929077,0.8397647142410278,-65.36865234375,72.69287109375,117.431640625
3.7676029205322266,1582571178,0,0.4177529215812683,0.33608192205429077,0.8478213548660278,-59.99755859375,82.33642578125,132.2021484375
3.7736892700195312,1582571198,1,0.7193505764007568,0.09560336172580719,0.7835806012153625,-11.77978515625,3.11279296875,36.7431640625
3.7881979942321777,1582571197,0,0.4131142497062683,0.30727332830429077,0.8715029954910278,-59.6923828125,92.95654296875,144.775390625
3.7882299423217773,1582571216,0,0.4060341715812683,0.36025184392929077,0.8966494798660278,-49.8046875,115.17333984375,154.78515625
3.802838087081909,1582571217,1,0.7352197170257568,0.06117953360080719,0.7811391949653625,-9.70458984375,-3.35693359375,37.78076171875
3.821047067642212,1582571235,0,0.4026162028312683,0.35683387517929077,0.8363467454910278,-33.63037109375,125.18310546875,163.26904296875
3.832965135574341,1582571236,1,0.7281396389007568,0.02797640860080719,0.7955434918403625,-10.68115234375,-6.2255859375,39.48974609375
3.833069086074829,1582571255,1,0.6534326076507568,0.03554476797580719,0.7982290387153625,-5.31005859375,-6.16455078125,46.9970703125
3.8478212356567383,1582571254,0,0.3974892497062683,0.38320106267929077,0.8280459642410278,-35.5224609375,128.2958984375,159.66796875
3.8714821338653564,1582571274,1,0.6678369045257568,-0.00644741952419281,0.7257192730903625,5.06591796875,-23.681640625,60.546875
3.8781330585479736,1582571290,0,0.4101845622062683,0.26186317205429077,0.8798037767410278,-39.97802734375,122.86376953125,169.86083984375
3.8928780555725098,1582571293,1,0.6714990139007568,-0.03012906014919281,0.6619985699653625,13.12255859375,-32.04345703125,64.8193359375
3.892883062362671,1582571312,1,0.6390283107757568,0.00722445547580719,0.6019399762153625,10.3759765625,-38.26904296875,69.82421875
3.916841983795166,1582571309,0,0.4758583903312683,0.25209754705429077,0.8207217454910278,-34.7900390625,126.03759765625,188.65966796875
3.9168472290039062,1582571328,0,0.5932900309562683,0.28432410955429077,0.7992373704910278,-30.2734375,116.63818359375,194.3359375
3.921851873397827,1582571331,1,0.6473290920257568,0.06166781485080719,0.5440786480903625,-1.52587890625,-37.7197265625,78.43017578125
3.9364840984344482,1582571347,0,0.7676064372062683,0.29213660955429077,0.7894717454910278,-19.95849609375,100.76904296875,179.0771484375
3.9365272521972656,1582571366,0,0.8125283122062683,0.28017371892929077,0.8060733079910278,-18.37158203125,90.9423828125,144.287109375
3.951308012008667,1582571350,1,0.6995751857757568,0.04994906485080719,0.5037954449653625,-8.9111328125,-34.5458984375,87.09716796875
3.951335906982422,1582571369,1,0.8292138576507568,0.00209750235080719,0.49451813101768494,-1.220703125,-35.64453125,96.6796875
3.9742469787597656,1582571385,0,0.9136025309562683,0.23671668767929077,0.8539248704910278,-22.03369140625,90.27099609375,106.26220703125
3.981462001800537,1582571388,1,0.9249169826507568,-0.01425991952419281,0.5355337262153625,-6.591796875,-51.1474609375,97.7783203125
3.981509208679199,1582571407,1,0.9971826076507568,0.00136508047580719,0.6624868512153625,-25.146484375,-65.673828125,92.529296875
3.998042106628418,1582571404,0,1.064481496810913,0.11952919512987137,0.8568545579910278,-30.1513671875,99.4873046875,94.17724609375
3.998120069503784,1582571423,0,1.143338918685913,0.12587684392929077,0.8165713548660278,-32.65380859375,96.98486328125,97.900390625
4.019914150238037,1582571426,1,1.1087548732757568,0.01845492422580719,0.6800649762153625,-15.80810546875,-58.77685546875,97.2900390625
4.026262998580933,1582571442,0,1.171659231185913,0.17250770330429077,0.7640811204910278,-37.41455078125,91.49169921875,94.78759765625
4.041442155838013,1582571462,1,1.1417138576507568,0.00136508047580719,0.6309927105903625,13.61083984375,-10.8642578125,40.4052734375
4.067054033279419,1582571461,0,1.115262746810913,0.18910926580429077,0.7064639329910278,-59.26513671875,85.63232421875,67.5048828125
4.0670599937438965,1582571480,0,1.077176809310913,0.10439247637987137,0.6124697923660278,-83.8623046875,84.77783203125,33.75244140625
4.072854042053223,1582571481,1,1.0911767482757568,0.06069125235080719,0.6287954449653625,8.6669921875,-5.126953125,-0.9765625
4.086003065109253,1582571499,0,0.9638954997062683,0.04531044512987137,0.5287295579910278,-96.74072265625,83.6181640625,14.58740234375
4.101366996765137,1582571500,1,1.0628564357757568,0.09804476797580719,0.6776235699653625,-4.33349609375,-15.19775390625,-10.7421875
4.101438045501709,1582571519,1,1.0433251857757568,0.09267367422580719,0.7418325543403625,-23.13232421875,-26.0009765625,-14.0380859375
4.122038125991821,1582571518,0,0.9179970622062683,0.04604286700487137,0.47379791736602783,-95.21484375,84.41162109375,21.728515625
4.131284952163696,1582571538,1,1.0325829982757568,0.06996859610080719,0.7240102887153625,-20.6298828125,-30.6396484375,-21.484375
4.131322860717773,1582571557,1,0.9571435451507568,0.07997836172580719,0.7044790387153625,-16.6015625,-28.13720703125,-43.64013671875
4.146291017532349,1582571554,0,0.8335244059562683,0.07704872637987137,0.5245791673660278,-101.13525390625,68.603515625,37.41455078125
4.146372079849243,1582571573,0,0.8144814372062683,0.09365028887987137,0.6190615892410278,-114.2578125,67.0166015625,31.31103515625
4.17081618309021,1582571576,1,0.8917138576507568,0.07241000235080719,0.6705434918403625,-16.9677734375,-25.87890625,-59.38720703125
4.176383972167969,1582571592,0,0.7637001872062683,0.07631630450487137,0.6998721361160278,-127.01416015625,74.70703125,21.240234375
4.191385269165039,1582571595,1,0.8543603420257568,0.06142367422580719,0.6881216168403625,-21.30126953125,-20.32470703125,-74.70703125
4.191461086273193,1582571614,1,0.8318994045257568,0.08290804922580719,0.7291372418403625,-30.3955078125,-16.2353515625,-76.5380859375
4.217185020446777,1582571611,0,0.7080361247062683,0.06142372637987137,0.7616397142410278,-132.75146484375,79.345703125,16.41845703125
4.217190980911255,1582571630,0,0.6455361247062683,0.07265419512987137,0.8216983079910278,-131.2255859375,75.68359375,21.54541015625
4.222896099090576,1582571633,1,0.8133447170257568,0.08925570547580719,0.7606313824653625,-33.02001953125,-20.01953125,-68.9697265625
4.236552000045776,1582571649,0,0.6142861247062683,0.10683388262987137,0.8590518236160278,-120.78857421875,60.9130859375,33.75244140625
4.251727819442749,1582571652,1,0.7947900295257568,0.06557406485080719,0.7342641949653625,-34.3017578125,-31.8603515625,-60.72998046875
4.272219896316528,1582571668,0,0.6042763590812683,0.17104285955429077,0.8622256517410278,-108.7646484375,44.7998046875,38.9404296875
4.272227048873901,1582571687,0,0.6223427653312683,0.20766395330429077,0.8558779954910278,-107.84912109375,36.4990234375,35.09521484375
4.282750129699707,1582571671,1,0.7791650295257568,0.01113070547580719,0.7078970074653625,-42.54150390625,-41.8701171875,-56.57958984375
4.282782077789307,1582571690,1,0.7864892482757568,-0.00254116952419281,0.6807973980903625,-51.025390625,-41.8701171875,-57.18994140625
4.297947883605957,1582571706,0,0.6196572184562683,0.25429481267929077,0.8851748704910278,-118.22509765625,39.794921875,29.296875
4.297959089279175,1582571725,0,0.6506630778312683,0.24208778142929077,0.9073916673660278,-130.2490234375,44.5556640625,26.4892578125
4.320533037185669,1582571726,1,0.8111474514007568,-0.01767788827419281,0.7201040387153625,-57.12890625,-23.3154296875,-47.66845703125
4.326969146728516,1582571744,0,0.6745888590812683,0.24843543767929077,0.8876162767410278,-129.150390625,47.36328125,29.47998046875
4.342842102050781,1582571745,1,0.8277490139007568,-0.04868374764919281,0.7518423199653625,-53.8330078125,-13.18359375,-47.2412109375
4.342951059341431,1582571764,1,0.7825829982757568,-0.05796109139919281,0.7757681012153625,-54.19921875,-15.80810546875,-60.24169921875
4.367944955825806,1582571763,0,0.6997353434562683,0.28774207830429077,0.8544131517410278,-123.291015625,43.3349609375,28.62548828125
4.367950201034546,1582571782,0,0.7024208903312683,0.29628700017929077,0.8358584642410278,-122.49755859375,38.26904296875,18.24951171875
4.37390398979187,1582571783,1,0.7623193264007568,-0.03452359139919281,0.7520864605903625,-53.16162109375,-25.390625,-72.32666015625
4.400853157043457,1582571802,1,0.7613427639007568,0.03407992422580719,0.7442739605903625,-57.6171875,-36.865234375,-79.40673828125
4.4025962352752686,1582571821,1,0.7989404201507568,0.07192172110080719,0.7291372418403625,-50.72021484375,-40.283203125,-72.81494140625
4.420974254608154,1582571818,0,0.6855751872062683,0.23940223455429077,0.8375674486160278,-126.64794921875,38.818359375,6.2255859375
4.420979022979736,1582571837,0,0.6968056559562683,0.28578895330429077,0.8522158861160278,-125.42724609375,31.3720703125,5.126953125
4.433053970336914,1582571840,1,0.8218896389007568,0.07656039297580719,0.7208364605903625,-45.59326171875,-37.53662109375,-65.5517578125
4.448282241821289,1582571856,0,0.7551552653312683,0.33388465642929077,0.8636904954910278,-126.46484375,33.63037109375,6.103515625
4.44831109046936,1582571875,0,0.7969033122062683,0.39540809392929077,0.8646670579910278,-130.92041015625,38.75732421875,2.685546875
4.471565008163452,1582571859,1,0.8345849514007568,0.07851351797580719,0.7288931012153625,-47.36328125,-30.76171875,-68.90869140625
4.47157096862793,1582571878,1,0.8941552639007568,0.10878695547580719,0.7530630230903625,-46.81396484375,-25.69580078125,-73.79150390625
4.478039026260376,1582571894,0,0.8340126872062683,0.43324989080429077,0.8649111986160278,-141.11328125,36.92626953125,-6.591796875
4.493445158004761,1582571897,1,0.9395654201507568,0.1495584398508072,0.7970083355903625,-43.39599609375,-25.57373046875,-85.38818359375
4.493451118469238,1582571916,1,0.9554345607757568,0.1898416429758072,0.8607290387153625,-35.15625,-34.7900390625,-93.1396484375
4.516486883163452,1582571913,0,0.8320595622062683,0.41664832830429077,0.9235049486160278,-142.08984375,18.24951171875,-11.1083984375
4.51761794090271,1582571932,0,0.8713662028312683,0.39833778142929077,0.9723330736160278,-120.17822265625,0.9765625,-2.62451171875
4.5225889682769775,1582571935,1,0.9822900295257568,0.2477029711008072,0.8761098980903625,-30.8837890625,-36.92626953125,-96.3134765625
4.53813099861145,1582571951,0,0.9350869059562683,0.5140604376792908,0.9813662767410278,-86.48681640625,-6.8359375,12.87841796875
4.553349256515503,1582571954,1,0.9964501857757568,0.276023268699646,0.9244497418403625,-18.85986328125,-40.46630859375,-90.63720703125
4.5736541748046875,1582571970,0,0.9160439372062683,0.6080545783042908,0.9549990892410278,-78.18603515625,-6.40869140625,6.103515625
4.5736589431762695,1582571989,0,0.8730751872062683,0.5870584845542908,0.9694033861160278,-84.41162109375,-8.544921875,-11.962890625
4.582614183425903,1582571990,1,0.9730126857757568,0.2245096117258072,0.9098013043403625,-0.67138671875,-57.861328125,-97.35107421875
4.598039150238037,1582572008,0,0.8362099528312683,0.5348123908042908,0.9757510423660278,-84.228515625,-13.0615234375,-22.03369140625
4.598052263259888,1582572027,0,0.7532021403312683,0.47963660955429077,0.9554873704910278,-72.69287109375,-17.02880859375,-22.64404296875
4.620269060134888,1582572009,1,0.8758447170257568,0.2184060961008072,0.9320181012153625,4.94384765625,-70.86181640625,-106.38427734375
4.620277166366577,1582572028,1,0.8028466701507568,0.253806471824646,0.8700063824653625,14.2822265625,-90.087890625,-107.5439453125
4.626901149749756,1582572046,0,0.6538369059562683,0.45375770330429077,0.9313174486160278,-62.6220703125,-22.705078125,-26.06201171875
4.642858028411865,1582572047,1,0.7383935451507568,0.2442850023508072,0.8165395855903625,21.66748046875,-95.88623046875,-106.0791015625
4.642889022827148,1582572066,1,0.6487939357757568,0.2149881273508072,0.7540395855903625,28.4423828125,-99.365234375,-98.7548828125
4.6683220863342285,1582572082,0,0.4519326090812683,0.37538856267929077,0.8773623704910278,-50.4150390625,-28.80859375,-33.935546875
4.674360036849976,1582572085,1,0.5782372951507568,0.2054666429758072,0.6961782574653625,33.935546875,-100.7080078125,-88.0126953125
4.688060998916626,1582572101,0,0.3283974528312683,0.32387489080429077,0.8632022142410278,-44.98291015625,-30.45654296875,-33.87451171875
4.721430063247681,1582572120,0,0.2434365153312683,0.28993934392929077,0.8343936204910278,-40.0390625,-29.47998046875,-26.06201171875
4.721436023712158,1582572139,0,0.1289345622062683,0.26576942205429077,0.7872744798660278,-33.8134765625,-26.18408203125,-10.19287109375
4.731670141220093,1582572104,1,0.5023095607757568,0.2027810961008072,0.6307485699653625,36.92626953125,-101.74560546875,-75.1953125
4.731763124465942,1582572123,1,0.4510400593280792,0.1815408617258072,0.5621450543403625,37.29248046875,-98.69384765625,-65.49072265625
4.732773303985596,1582572142,1,0.4083154499530792,0.1700662523508072,0.49183258414268494,35.46142578125,-91.9189453125,-51.025390625
4.747922897338867,1582572158,0,0.04397363215684891,0.24892371892929077,0.7413760423660278,-31.79931640625,-21.728515625,8.60595703125
4.747974872589111,1582572177,0,-0.0019248053431510925,0.23329871892929077,0.7118350267410278,-30.09033203125,-14.22119140625,30.6396484375
4.771176099777222,1582572161,1,0.3514306843280792,0.1869119554758072,0.43787750601768494,28.13720703125,-83.55712890625,-36.1328125
4.772132158279419,1582572180,1,0.3233545124530792,0.1888650804758072,0.39002594351768494,19.34814453125,-71.71630859375,-19.287109375
4.778017997741699,1582572196,0,-0.031221680343151093,0.21816200017929077,0.6866885423660278,-29.296875,-2.74658203125,49.560546875
4.792939186096191,1582572199,1,0.2899072468280792,0.1881326586008072,0.36341461539268494,12.02392578125,-64.51416015625,-3.90625
4.792972087860107,1582572218,1,0.2864892780780792,0.2235330492258072,0.32996734976768494,1.40380859375,-51.8798828125,13.3056640625
4.816988945007324,1582572215,0,-0.07589941471815109,0.21108192205429077,0.6324893236160278,-32.958984375,17.7001953125,73.974609375
4.8169941902160645,1582572234,0,-0.09298925846815109,0.19277137517929077,0.5836611986160278,-38.57421875,38.14697265625,98.876953125
4.8354291915893555,1582572253,0,-0.09420996159315109,0.19155067205429077,0.5406924486160278,-39.794921875,53.40576171875,120.30029296875
4.852858066558838,1582572254,1,0.2857568562030792,0.2403787523508072,0.32484039664268494,-9.27734375,-22.39990234375,42.05322265625
4.8529040813446045,1582572273,1,0.2891748249530792,0.252585768699646,0.33631500601768494,-15.19775390625,-6.16455078125,62.43896484375
4.872607946395874,1582572272,0,-0.04025488346815109,0.21913856267929077,0.5070010423660278,-40.22216796875,71.6552734375,147.5830078125
4.872613191604614,1582572291,0,0.013700194656848907,0.27284950017929077,0.48527252674102783,-38.2080078125,85.8154296875,162.53662109375
4.881979942321777,1582572292,1,0.3321435749530792,0.2311014086008072,0.37147125601768494,-23.681640625,6.7138671875,89.7216796875
4.898139953613281,1582572310,0,0.11745996028184891,0.27870887517929077,0.48698151111602783,-44.86083984375,101.5625,164.85595703125
4.919651031494141,1582572311,1,0.4168603718280792,0.1922830492258072,0.37440094351768494,-33.26416015625,14.83154296875,114.3798828125
4.919656038284302,1582572330,1,0.4517724812030792,0.1666482836008072,0.39710602164268494,-40.6494140625,26.3671875,117.85888671875
4.927673101425171,1582572346,0,0.2007119059562683,0.24990028142929077,0.5028506517410278,-48.88916015625,119.7509765625,177.734375
4.942177057266235,1582572349,1,0.4588525593280792,0.1839822679758072,0.46180328726768494,-35.70556640625,37.59765625,113.95263671875
4.9421961307525635,1582572368,1,0.5001122951507568,0.1637185961008072,0.5709341168403625,-20.6298828125,41.6259765625,120.54443359375
4.967509031295776,1582572365,0,0.2087685465812683,0.24306434392929077,0.48917877674102783,-40.95458984375,129.45556640625,188.8427734375
4.967514276504517,1582572384,0,0.2781044840812683,0.25942176580429077,0.5091983079910278,-41.80908203125,133.60595703125,197.021484375
4.973320960998535,1582572387,1,0.5389306545257568,0.10219515860080719,0.6707876324653625,-11.29150390625,45.83740234375,133.72802734375
4.988601207733154,1582572403,0,0.4399697184562683,0.22524207830429077,0.5743838548660278,-42.6025390625,132.080078125,210.99853515625
5.001986026763916,1582572406,1,0.5362451076507568,0.06557406485080719,0.7252309918403625,-4.82177734375,46.69189453125,138.3056640625
5.002061128616333,1582572425,1,0.5623681545257568,0.04311312735080719,0.7760122418403625,-1.708984375,45.95947265625,136.53564453125
5.0216991901397705,1582572422,0,0.6299111247062683,0.20326942205429077,0.6642276048660278,-37.53662109375,126.64794921875,224.42626953125
5.0217039585113525,1582572441,0,0.7173134684562683,0.24233192205429077,0.7054873704910278,-30.2734375,125.06103515625,230.46875
5.0329811573028564,1582572444,1,0.6270654201507568,0.01186312735080719,0.8145864605903625,-1.8310546875,40.0390625,150.7568359375
5.0465171337127686,1582572460,0,0.7566201090812683,0.24208778142929077,0.7369815111160278,-20.56884765625,131.65283203125,222.10693359375
5.069850206375122,1582572463,1,0.6629540920257568,-0.01328335702419281,0.8951528668403625,-8.056640625,35.82763671875,177.3681640625
5.069854021072388,1582572482,1,0.6819970607757568,-0.07675991952419281,0.9564321637153625,-8.97216796875,33.75244140625,196.22802734375
5.078023910522461,1582572479,0,0.8262001872062683,0.17739051580429077,0.8138858079910278,-8.48388671875,138.61083984375,205.74951171875
5.078054904937744,1582572498,0,1.021512746810913,0.04433388262987137,0.8756533861160278,9.27734375,136.474609375,206.298828125
5.094861030578613,1582572518,1,0.7759912014007568,-0.2454610913991928,1.0802115201950073,21.54541015625,33.8134765625,198.05908203125
5.117094039916992,1582572517,0,1.136258840560913,0.05068153887987137,0.8673526048660278,28.86962890625,134.94873046875,217.34619140625
5.11710000038147,1582572536,0,1.215604543685913,0.15395301580429077,0.8024111986160278,49.37744140625,140.0146484375,216.064453125
5.124666929244995,1582572537,1,0.9183251857757568,-0.323586106300354,1.1117056608200073,34.423828125,28.6865234375,212.646484375
5.13811993598938,1582572555,0,1.353788137435913,0.15370887517929077,0.8365908861160278,54.13818359375,153.80859375,181.884765625
5.152713060379028,1582572556,1,1.0333154201507568,-0.376564621925354,1.1512564420700073,36.376953125,21.6064453125,223.388671875
5.1527769565582275,1582572575,1,1.1192529201507568,-0.420509934425354,1.1500357389450073,29.1748046875,0.67138671875,228.33251953125
5.173900127410889,1582572574,0,1.528348684310913,0.11269325762987137,0.8846865892410278,45.0439453125,169.3115234375,153.1982421875
5.182641983032227,1582572594,1,1.1912744045257568,-0.451271653175354,1.1600455045700073,28.4423828125,-17.88330078125,227.47802734375
5.198235034942627,1582572610,0,1.617460012435913,-0.01596885174512863,0.8656436204910278,25.93994140625,197.509765625,126.0986328125
5.219801187515259,1582572613,1,1.3062646389007568,-0.537209153175354,1.1595572233200073,55.908203125,-30.6396484375,230.46875
5.219809055328369,1582572632,1,1.4383447170257568,-0.579689621925354,1.1226919889450073,88.43994140625,-19.95849609375,219.90966796875
5.2280189990997314,1582572629,0,1.591092824935913,-0.05893760174512863,0.8385440111160278,41.8701171875,177.30712890625,125.79345703125
5.228085994720459,1582572648,0,1.699491262435913,-0.04013877362012863,0.8741885423660278,64.27001953125,151.2451171875,116.0888671875
5.241790056228638,1582572651,1,1.6277978420257568,-0.652199387550354,1.1324576139450073,107.666015625,-6.16455078125,196.83837890625
5.269304037094116,1582572667,0,1.858670949935913,-0.04355674237012863,0.8573428392410278,72.20458984375,138.00048828125,89.17236328125
5.26931095123291,1582572686,0,1.969266653060913,-0.08481650799512863,0.8392764329910278,64.453125,136.29150390625,65.85693359375
5.274464130401611,1582572670,1,1.7491357326507568,-0.741310715675354,1.1554068326950073,119.44580078125,0.18310546875,170.0439453125
5.27446985244751,1582572689,1,1.8428857326507568,-0.749855637550354,1.0858267545700073,135.8642578125,-13.24462890625,124.08447265625
5.287729978561401,1582572705,0,2.063260793685913,-0.15903526544570923,0.7980166673660278,55.48095703125,123.6572265625,47.18017578125
5.3019421100616455,1582572708,1,1.8504540920257568,-0.722756028175354,0.9991567730903625,156.005859375,-44.98291015625,91.9189453125
5.301972150802612,1582572727,1,1.8621728420257568,-0.811623215675354,0.8746450543403625,181.57958984375,-57.2509765625,73.30322265625
5.3206470012664795,1582572724,0,2.106717824935913,-0.19443565607070923,0.7753115892410278,66.40625,90.9423828125,32.28759765625
5.320652008056641,1582572743,0,2.212674856185913,-0.19980674982070923,0.7042666673660278,75.68359375,63.8427734375,3.662109375
5.333026170730591,1582572746,1,1.8907372951507568,-0.924416184425354,0.8314321637153625,208.92333984375,-44.73876953125,41.56494140625
5.346045017242432,1582572762,0,2.254178762435913,-0.21665245294570923,0.6625186204910278,65.00244140625,60.24169921875,-31.06689453125
5.370706081390381,1582572782,1,2.041127920150757,-1.090920090675354,0.8040884137153625,214.9658203125,-50.96435546875,-84.1064453125
5.377937078475952,1582572781,0,2.214383840560913,-0.27402549982070923,0.6009951829910278,41.80908203125,62.1337890625,-75.927734375
5.377974033355713,1582572800,0,2.095975637435913,-0.41489464044570923,0.5809756517410278,25.93994140625,48.40087890625,-105.5908203125
5.393174171447754,1582572801,1,1.9673974514007568,-1.121925950050354,0.7935903668403625,230.8349609375,-99.9755859375,-134.1552734375
5.416720867156982,1582572819,0,2.041532278060913,-0.5442891716957092,0.5560733079910278,32.2265625,8.85009765625,-122.86376953125
5.424331188201904,1582572820,1,1.7921044826507568,-1.163185715675354,0.6949575543403625,245.1171875,-157.958984375,-171.2646484375
5.424335956573486,1582572839,1,1.5582177639007568,-1.104103684425354,0.6739614605903625,231.01806640625,-200.50048828125,-198.3642578125
5.438100099563599,1582572838,0,2.006620168685913,-0.5989766716957092,0.5345889329910278,46.7529296875,-30.70068359375,-131.2255859375
5.451344013214111,1582572858,1,1.1920068264007568,-0.682961106300354,0.6847036480903625,189.14794921875,-250.48828125,-220.8251953125
5.451414108276367,1582572877,1,1.3568017482757568,-0.743996262550354,0.6707876324653625,239.44091796875,-243.1640625,-141.357421875
5.472449064254761,1582572874,0,1.528348684310913,-0.5730977654457092,0.23698149621486664,6.9580078125,-167.78564453125,-154.47998046875
5.472454071044922,1582572893,0,1.687528371810913,-0.8025899529457092,0.7479678392410278,27.16064453125,-190.7958984375,-155.76171875
5.482722043991089,1582572896,1,1.0311181545257568,-1.025978684425354,0.42860016226768494,187.31689453125,-259.521484375,-206.84814453125
5.498120069503784,1582572912,0,1.315946340560913,-0.7508321404457092,0.7059756517410278,-6.04248046875,-114.74609375,-176.20849609375
5.518676996231079,1582572915,1,0.7510888576507568,-0.773293137550354,0.5335806012153625,133.85009765625,-266.7236328125,-218.017578125
5.518682241439819,1582572934,1,0.6058251857757568,-0.645119309425354,0.48963531851768494,92.59033203125,-298.52294921875,-174.86572265625
5.528862953186035,1582572931,0,1.036893606185913,-0.6563497185707092,0.6166201829910278,-64.697265625,-89.05029296875,-177.79541015625
5.528868198394775,1582572950,0,0.7124306559562683,-0.6429219841957092,0.5487490892410278,-76.11083984375,-111.63330078125,-168.3349609375
5.542724132537842,1582572953,1,0.5235497951507568,-0.576759934425354,0.34827789664268494,67.07763671875,-297.9736328125,-161.07177734375
5.568143129348755,1582572969,0,0.4680458903312683,-0.6270528435707092,0.5284854173660278,-32.40966796875,-169.86083984375,-144.10400390625
5.5733802318573,1582572972,1,0.4009912312030792,-0.454445481300354,0.17127592861652374,40.10009765625,-288.2080078125,-156.005859375
5.573385000228882,1582572991,1,0.3011377155780792,-0.355568528175354,0.05262358859181404,6.65283203125,-278.01513671875,-151.611328125
5.58782696723938,1582572988,0,0.3852822184562683,-0.44687706232070923,0.49699127674102783,13.5498046875,-227.783203125,-111.4501953125
5.5879130363464355,1582573007,0,0.2431923747062683,-0.39804893732070923,0.47208893299102783,32.1044921875,-262.0849609375,-79.1015625
5.602802038192749,1582573010,1,0.19957521557807922,-0.310158371925354,0.03284819796681404,-27.77099609375,-266.11328125,-145.8740234375
5.622992038726807,1582573026,0,0.11794824153184891,-0.29233604669570923,0.44230377674102783,29.78515625,-298.33984375,-57.4951171875
5.622996091842651,1582573045,0,-0.021456055343151093,-0.29184776544570923,0.48551666736602783,5.92041015625,-317.44384765625,-18.310546875
5.64586615562439,1582573064,0,-0.11422949284315109,-0.20883995294570923,0.5799990892410278,-10.498046875,-292.236328125,51.3916015625
5.668064117431641,1582573046,1,-0.007944315671920776,-0.1587911695241928,-0.013050239533185959,-83.49609375,-248.046875,-129.150390625
5.668069839477539,1582573065,1,-0.13294431567192078,-0.08432827889919281,0.02015288546681404,-110.77880859375,-227.72216796875,-114.013671875
5.668072938919067,1582573084,1,-0.10145017504692078,0.2061990648508072,0.24549467861652374,-72.3876953125,-169.49462890625,-122.6806640625
5.6780760288238525,1582573083,0,-0.6232627034187317,-0.13608604669570923,0.6461611986160278,-13.671875,-279.47998046875,119.2626953125
5.678136110305786,1582573102,0,-0.3464072346687317,0.20326942205429077,0.40006744861602783,-76.72119140625,-244.873046875,137.5732421875
5.692909002304077,1582573103,1,-0.23768064379692078,0.1966775804758072,0.23694975674152374,-37.04833984375,-113.76953125,-132.9345703125
5.721436023712158,1582573122,1,-0.5094091892242432,0.449607253074646,0.14417631924152374,-89.4775390625,-99.7314453125,-59.9365234375
5.722861051559448,1582573141,1,-0.2545263469219208,0.553855299949646,0.44471344351768494,-162.04833984375,-116.27197265625,-15.625
5.738061189651489,1582573138,0,-0.2145712971687317,0.20497840642929077,0.6490908861160278,-194.3359375,-221.37451171875,52.734375
5.738139867782593,1582573157,0,-0.5378134846687317,0.08315224200487137,0.8541690111160278,-164.306640625,-133.056640625,118.46923828125
5.752143144607544,1582573160,1,-0.24866697192192078,0.599753737449646,0.35877594351768494,-196.77734375,-118.65234375,-16.357421875
5.77305006980896,1582573176,0,-0.4452841877937317,0.22377723455429077,0.6105166673660278,-181.09130859375,-107.7880859375,168.64013671875
5.773055076599121,1582573195,0,-0.2807334065437317,0.42055457830429077,0.6315127611160278,-186.21826171875,-79.7119140625,195.00732421875
5.781962156295776,1582573179,1,-0.13587400317192078,0.481589674949646,0.48694977164268494,-225.64697265625,-84.53369140625,-15.44189453125
5.781994104385376,1582573198,1,-0.08851072192192078,0.471579909324646,0.5304067730903625,-219.6044921875,-44.98291015625,-26.30615234375
5.798089981079102,1582573214,0,-0.1864951252937317,0.6534647345542908,0.5716983079910278,-189.75830078125,-69.580078125,197.8759765625
5.820154905319214,1582573217,1,-0.056284159421920776,0.516257643699646,0.6558950543403625,-218.44482421875,-43.27392578125,-12.63427734375
5.8201611042022705,1582573236,1,0.058461934328079224,0.528952956199646,0.7242544293403625,-239.07470703125,-58.04443359375,4.69970703125
5.827944040298462,1582573233,0,-0.1445029377937317,0.6581034064292908,0.5509463548660278,-221.49658203125,-90.2099609375,173.27880859375
5.828047275543213,1582573252,0,-0.1486533284187317,0.6705545783042908,0.6874209642410278,-246.4599609375,-88.7451171875,171.7529296875
5.842757225036621,1582573255,1,0.09825685620307922,0.477683424949646,0.7269399762153625,-261.8408203125,-63.8427734375,-0.8544921875
5.868520021438599,1582573271,0,-0.07492285221815109,0.7176737189292908,0.8968936204910278,-270.1416015625,-40.52734375,198.05908203125
5.873322010040283,1582573274,1,0.053579121828079224,0.526755690574646,0.8016470074653625,-266.4794921875,-47.36328125,-11.65771484375
5.887705087661743,1582573290,0,-0.04928808659315109,0.7755350470542908,0.9559756517410278,-269.10400390625,42.3583984375,226.6845703125
5.887797117233276,1582573309,0,0.04055566340684891,0.8277811408042908,0.8636904954910278,-246.2158203125,102.60009765625,250.0
5.902701139450073,1582573310,1,-0.018686503171920776,0.642478346824646,1.0413931608200073,-247.314453125,3.47900390625,36.07177734375
5.9212329387664795,1582573328,0,0.1350380778312683,0.8302225470542908,0.7928897142410278,-227.6611328125,112.85400390625,267.51708984375
5.92123818397522,1582573347,0,0.2969033122062683,0.8082498908042908,0.8009463548660278,-208.251953125,74.462890625,284.1796875
5.945798873901367,1582573366,0,0.4980751872062683,0.9063944220542908,0.9613467454910278,-172.91259765625,41.1376953125,286.1328125
5.968193054199219,1582573329,1,0.12315919995307922,0.644431471824646,1.1402701139450073,-243.1640625,-2.86865234375,78.55224609375
5.96819806098938,1582573348,1,0.3177392780780792,0.539939284324646,1.1539419889450073,-241.943359375,-20.44677734375,101.07421875
5.968200922012329,1582573367,1,0.4935205280780792,0.508933424949646,1.1734732389450073,-243.46923828125,-18.4326171875,92.34619140625
5.969200134277344,1582573386,1,0.3602197468280792,0.607566237449646,1.3043326139450073,-221.5576171875,-11.90185546875,73.486328125
5.990831136703491,1582573405,1,0.3621728718280792,0.635154128074646,1.3372915983200073,-180.7861328125,0.06103515625,104.00390625
6.015467166900635,1582573402,0,0.8183876872062683,0.9320291876792908,0.9952822923660278,-110.90087890625,97.35107421875,266.78466796875
6.015472888946533,1582573421,0,0.8359658122062683,0.8673319220542908,0.8529483079910278,-128.96728515625,131.2255859375,266.66259765625
6.023519039154053,1582573424,1,0.5162255764007568,0.565574049949646,1.4561880826950073,-129.39453125,-4.0283203125,147.27783203125
6.023525238037109,1582573443,1,0.7149560451507568,0.505515456199646,1.4456900358200073,-135.986328125,-30.029296875,160.2783203125
6.03789496421814,1582573440,0,0.8171669840812683,0.7975077033042908,0.8885928392410278,-149.2919921875,141.2353515625,274.23095703125
6.037963151931763,1582573459,0,0.9328896403312683,0.7201151251792908,0.9310733079910278,-128.47900390625,153.13720703125,283.8134765625
6.052873134613037,1582573462,1,0.7606103420257568,0.493064284324646,1.4144400358200073,-145.3857421875,-56.57958984375,140.93017578125
6.073905944824219,1582573478,0,1.125760793685913,0.6107401251792908,0.7281924486160278,-74.15771484375,168.212890625,304.38232421875
6.073912143707275,1582573497,0,1.265653371810913,0.5465311408042908,0.5968447923660278,-36.68212890625,171.142578125,330.6884765625
6.0820229053497314,1582573481,1,0.8458154201507568,0.543357253074646,1.3626822233200073,-124.3896484375,-64.88037109375,147.4609375
6.082090139389038,1582573500,1,1.0147607326507568,0.468161940574646,1.3355826139450073,-91.85791015625,-53.5888671875,164.9169921875
6.11876106262207,1582573519,1,1.2398583889007568,0.2369607836008072,1.3446158170700073,-63.3544921875,-37.53662109375,169.5556640625
6.119762897491455,1582573538,1,1.3760888576507568,0.10195101797580719,1.3306998014450073,-63.5986328125,-48.583984375,147.76611328125
6.127969026565552,1582573516,0,1.392362356185913,0.48500770330429077,0.5633975267410278,-15.80810546875,179.5654296875,341.73583984375
6.128029108047485,1582573535,0,1.500516653060913,0.5064920783042908,0.6227236986160278,6.04248046875,199.52392578125,332.6416015625
6.128086090087891,1582573554,0,1.608670949935913,0.34438270330429077,0.5382510423660278,13.671875,215.4541015625,307.373046875
6.166376113891602,1582573573,0,1.677762746810913,0.20864051580429077,0.36344635486602783,5.615234375,214.05029296875,315.49072265625
6.173540115356445,1582573574,1,1.4879052639007568,0.06948031485080719,1.0233267545700073,-49.9267578125,-90.8203125,143.73779296875
6.173546075820923,1582573593,1,1.6002099514007568,-0.1275411695241928,0.8802602887153625,-34.36279296875,-95.27587890625,180.23681640625
6.187975883483887,1582573592,0,1.890653371810913,0.13344520330429077,0.48869049549102783,46.32568359375,243.0419921875,325.3173828125
6.190918922424316,1582573611,0,2.116239309310913,0.22988075017929077,0.42692291736602783,82.763671875,305.72509765625,282.2265625
6.203155994415283,1582573612,1,1.6900537014007568,-0.271828293800354,0.7432973980903625,-26.7333984375,-95.703125,181.45751953125
6.2216269969940186,1582573630,0,2.174833059310913,0.28310340642929077,0.31730377674102783,59.2041015625,362.85400390625,231.26220703125
6.232785940170288,1582573631,1,1.7166650295257568,-0.10630093514919281,0.49207672476768494,-19.1650390625,-97.16796875,163.57421875
6.232819080352783,1582573650,1,1.6551415920257568,-0.1258321851491928,0.13001616299152374,19.287109375,-79.04052734375,176.20849609375
6.247844219207764,1582573666,0,1.921170949935913,0.01967567950487137,0.23820219933986664,51.7578125,275.7568359375,184.99755859375
6.271389961242676,1582573669,1,1.7095849514007568,-0.419045090675354,0.14051420986652374,78.125,-18.24951171875,180.11474609375
6.271395206451416,1582573688,1,1.5247704982757568,-0.361916184425354,0.37195953726768494,155.70068359375,-4.150390625,180.5419921875
6.27796196937561,1582573685,0,2.171170949935913,0.35658973455429077,0.21696196496486664,87.21923828125,191.58935546875,163.63525390625
6.277994155883789,1582573704,0,1.041532278060913,-0.5208516716957092,-0.14387787878513336,70.068359375,46.875,134.21630859375
6.29286003112793,1582573707,1,1.5296533107757568,-0.965920090675354,0.31873688101768494,117.37060546875,23.681640625,173.4619140625
6.31612491607666,1582573723,0,1.392850637435913,-0.26010948419570923,0.7213565111160278,95.15380859375,15.13671875,140.0146484375
6.322727918624878,1582573726,1,1.4722802639007568,-0.822853684425354,0.5897329449653625,175.10986328125,-75.3173828125,120.54443359375
6.323099851608276,1582573745,1,0.9805810451507568,-0.493019700050354,0.09510405361652374,191.650390625,-66.71142578125,101.50146484375
6.337810039520264,1582573742,0,1.902372121810913,0.06996864825487137,0.8397647142410278,106.8115234375,72.3876953125,-114.31884765625
6.352860927581787,1582573764,1,0.8211572170257568,-0.598488450050354,0.28284820914268494,187.1337890625,-35.46142578125,73.66943359375
6.373752117156982,1582573761,0,1.276151418685913,-0.29526573419570923,0.8041201829910278,122.4365234375,90.39306640625,-184.9365234375
6.37375807762146,1582573780,0,0.6225869059562683,-0.5101094841957092,0.11149321496486664,97.59521484375,37.53662109375,-145.93505859375
6.373762130737305,1582573799,0,0.6428505778312683,-0.10361533612012863,0.46720612049102783,111.572265625,-112.79296875,-132.62939453125
6.382018089294434,1582573783,1,1.0313622951507568,-0.369240403175354,0.8761098980903625,202.08740234375,-81.9091796875,-73.1201171875
6.382101058959961,1582573802,1,0.9710595607757568,-0.421242356300354,0.5550649762153625,264.16015625,-113.76953125,-157.958984375
6.3981382846832275,1582573818,0,0.7261025309562683,-0.06943564862012863,0.8016787767410278,117.3095703125,-146.484375,-169.49462890625
6.419840097427368,1582573838,1,0.4185693562030792,0.1417459398508072,0.6036489605903625,269.04296875,-131.9580078125,-230.28564453125
6.428105115890503,1582573837,0,0.7615029215812683,0.11244911700487137,0.8773623704910278,82.8857421875,-77.0263671875,-257.8125
6.428183078765869,1582573856,0,0.4033486247062683,-0.011086039245128632,0.6378604173660278,3.5400390625,-14.34326171875,-250.91552734375
6.442766189575195,1582573857,1,0.4947412312030792,0.05239047110080719,0.28333649039268494,221.5576171875,-149.169921875,-202.392578125
6.4680750370025635,1582573875,0,0.1465126872062683,-0.04648642987012863,0.32511627674102783,-47.8515625,-28.1982421875,-198.30322265625
6.473789930343628,1582573876,1,0.4344384968280792,0.08901156485080719,0.05799468234181404,176.513671875,-157.16552734375,-239.80712890625
6.473795175552368,1582573895,1,0.14049318432807922,0.267966628074646,-0.04649750515818596,131.65283203125,-162.7197265625,-263.36669921875
6.487758159637451,1582573894,0,0.09060449153184891,-0.02890830487012863,0.17863188683986664,-51.1474609375,-83.6181640625,-149.7802734375
6.502711057662964,1582573914,1,-0.09827634692192078,0.535056471824646,-0.09288422763347626,106.3232421875,-105.46875,-293.39599609375
6.521538019180298,1582573930,0,0.07034081965684891,0.18813270330429077,0.12150298058986664,-40.6494140625,-143.00537109375,-126.40380859375
6.532815933227539,1582573933,1,-0.19910642504692078,0.672507643699646,-0.02794281765818596,77.63671875,-99.42626953125,-218.505859375
6.5329060554504395,1582573952,1,-0.20228025317192078,0.625144362449646,-0.06554047763347626,22.76611328125,-120.4833984375,-146.30126953125
6.547722101211548,1582573949,0,-0.1691611409187317,0.12636512517929077,0.27213776111602783,-44.61669921875,-149.169921875,-117.0654296875
6.547749280929565,1582573968,0,-0.3591025471687317,0.18178504705429077,0.41325104236602783,-74.5849609375,-138.00048828125,-67.68798828125
6.571446180343628,1582573971,1,-0.14441892504692078,0.616843581199646,-0.05870453640818596,-33.38623046875,-77.33154296875,-95.3369140625
6.576600074768066,1582573987,0,-0.2575400471687317,0.35097450017929077,0.5616885423660278,-124.45068359375,-95.39794921875,-20.8740234375
6.576617002487183,1582574006,0,-0.1823447346687317,0.42836707830429077,0.6595889329910278,-176.20849609375,-39.0625,-24.4140625
6.592794179916382,1582573990,1,-0.043832987546920776,0.616843581199646,0.13807280361652374,-38.75732421875,-35.33935546875,-77.33154296875
6.592857122421265,1582574009,1,-0.029184550046920776,0.534324049949646,0.29676422476768494,-38.4521484375,-2.38037109375,-65.61279296875
6.617469072341919,1582574025,0,-0.11081152409315109,0.33657020330429077,0.7137881517410278,-238.4033203125,27.52685546875,-16.90673828125
6.622802019119263,1582574028,1,-0.056040018796920776,0.484031081199646,0.23231108486652374,-46.56982421875,17.822265625,-25.45166015625
6.622808218002319,1582574047,1,0.041127949953079224,0.380759596824646,0.41590484976768494,-68.54248046875,7.62939453125,-4.8828125
6.637982130050659,1582574044,0,-0.1493857502937317,0.29701942205429077,0.7589541673660278,-279.60205078125,122.98583984375,21.728515625
6.6380109786987305,1582574063,0,-0.1391318440437317,0.37734168767929077,0.7035342454910278,-295.22705078125,166.015625,52.67333984375
6.652806997299194,1582574066,1,0.2540185749530792,0.336326003074646,0.44300445914268494,-122.61962890625,23.74267578125,17.63916015625
6.673097133636475,1582574082,0,-0.019258789718151093,0.45400184392929077,0.7264834642410278,-280.76171875,152.89306640625,64.02587890625
6.682234287261963,1582574102,1,0.3140771687030792,0.307029128074646,0.7540395855903625,-144.775390625,36.43798828125,83.1298828125
6.697978258132935,1582574101,0,-0.05710058659315109,0.5023416876792908,0.6608096361160278,-239.8681640625,115.478515625,39.0625
6.6980061531066895,1582574120,0,0.08938378840684891,0.27529090642929077,0.43229401111602783,-109.19189453125,-19.10400390625,45.7763671875
6.719756126403809,1582574121,1,0.4503076374530792,0.393699049949646,0.7513540387153625,-116.02783203125,54.87060546875,105.712890625
6.729570150375366,1582574139,0,0.1491982340812683,0.5047830939292908,0.5738955736160278,-167.724609375,0.732421875,59.50927734375
6.742840051651001,1582574140,1,0.5604150295257568,0.335593581199646,0.8031118512153625,-108.0322265625,49.62158203125,85.63232421875
6.74292516708374,1582574159,1,0.5650537014007568,0.369773268699646,0.8463247418403625,-133.7890625,47.8515625,82.763671875
6.768126964569092,1582574158,0,0.2502724528312683,0.5455545783042908,0.7247744798660278,-239.501953125,9.70458984375,97.22900390625
6.7729339599609375,1582574178,1,0.6634423732757568,0.340476393699646,0.9683950543403625,-175.96435546875,36.62109375,110.83984375
6.772938013076782,1582574197,1,0.7818505764007568,0.2291482836008072,0.9600942730903625,-208.06884765625,8.4228515625,174.74365234375
6.788855075836182,1582574194,0,0.4250771403312683,0.47182410955429077,1.0641299486160278,-304.01611328125,99.67041015625,258.30078125
6.788860082626343,1582574213,0,0.4382607340812683,0.47621864080429077,1.0699893236160278,-257.99560546875,136.04736328125,295.22705078125
6.802731990814209,1582574216,1,0.9695947170257568,0.03090609610080719,0.9422720074653625,-215.75927734375,8.97216796875,179.26025390625
6.822099924087524,1582574232,0,0.6418740153312683,0.48329871892929077,1.1119815111160278,-200.13427734375,109.92431640625,292.78564453125
6.832965850830078,1582574235,1,1.0801904201507568,0.0006326586008071899,0.9527700543403625,-209.04541015625,13.85498046875,159.11865234375
6.832991123199463,1582574254,1,1.2112939357757568,0.01283968985080719,1.0057486295700073,-212.95166015625,-0.42724609375,130.37109375
6.847941160202026,1582574251,0,0.7624794840812683,0.5728983283042908,1.1913272142410278,-152.7099609375,87.70751953125,290.10009765625
6.8479602336883545,1582574270,0,1.159696340560913,0.8207010626792908,1.1600772142410278,-141.78466796875,97.35107421875,277.587890625
6.870724201202393,1582574273,1,1.3463037014007568,-0.01328335702419281,0.9559438824653625,-193.359375,-11.1083984375,122.314453125
6.8780951499938965,1582574289,0,1.484647512435913,0.8424295783042908,0.7128115892410278,-156.92138671875,171.2646484375,318.359375
6.893423080444336,1582574292,1,1.2254540920257568,-0.05918179452419281,1.0941275358200073,-187.19482421875,2.3193359375,107.48291015625
6.893428087234497,1582574311,1,1.4888818264007568,-0.04258023202419281,1.1529654264450073,-131.34765625,10.55908203125,154.35791015625
6.917011022567749,1582574308,0,1.360379934310913,1.1817851066589355,0.8319522142410278,-174.4384765625,191.5283203125,299.25537109375
6.917017221450806,1582574327,0,1.333036184310913,1.1241679191589355,0.8602725267410278,-188.96484375,198.42529296875,266.78466796875
6.922616243362427,1582574330,1,1.8843896389007568,-0.11728726327419281,0.9940298199653625,-96.25244140625,-50.1708984375,178.40576171875
6.937937021255493,1582574346,0,1.349149465560913,0.6661600470542908,1.3116885423660278,-209.89990234375,235.83984375,268.1884765625
6.937973976135254,1582574365,0,1.374295949935913,0.5755838751792908,1.1979190111160278,-101.6845703125,271.30126953125,243.71337890625
6.95288610458374,1582574366,1,1.6185204982757568,-0.1900411695241928,0.8507192730903625,-57.92236328125,-3.7841796875,107.97119140625
6.972862958908081,1582574384,0,1.230008840560913,0.7242655158042908,1.2042666673660278,-17.76123046875,168.3349609375,168.0908203125
6.982085943222046,1582574385,1,1.6583154201507568,-0.2115255445241928,0.8204458355903625,15.380859375,-28.86962890625,115.1123046875
6.982119083404541,1582574404,1,1.4193017482757568,-0.336769700050354,0.5514028668403625,56.70166015625,-10.25390625,43.02978515625
6.998003005981445,1582574403,0,1.162870168685913,0.43520301580429077,1.0875674486160278,20.32470703125,72.32666015625,108.5205078125
6.9980621337890625,1582574422,0,1.131376028060913,0.32729285955429077,1.0841494798660278,43.76220703125,21.66748046875,98.93798828125
7.01979398727417,1582574423,1,1.2029931545257568,-0.337013840675354,0.5858266949653625,86.24267578125,-15.44189453125,14.892578125
7.0400919914245605,1582574442,1,1.4547021389007568,-0.1971212476491928,0.7931020855903625,143.85986328125,-71.77734375,-28.4423828125
7.042115211486816,1582574461,1,0.8338525295257568,-0.2107931226491928,0.6346548199653625,137.6953125,-13.0615234375,-60.1806640625
7.065186023712158,1582574458,0,1.164335012435913,0.43520301580429077,1.3607608079910278,106.8115234375,91.61376953125,-26.91650390625
7.065191030502319,1582574477,0,0.8887001872062683,0.18666785955429077,1.1312686204910278,99.12109375,103.6376953125,-126.3427734375
7.073089122772217,1582574480,1,0.6219384670257568,0.2093728929758072,0.8624380230903625,125.244140625,-41.68701171875,-83.0078125
7.086421012878418,1582574496,0,0.3601357340812683,0.015037007629871368,0.8070498704910278,163.0859375,-4.0283203125,-94.7265625
7.08649206161499,1582574515,0,0.3764931559562683,0.01674599200487137,0.9032412767410278,244.81201171875,-52.1240234375,-124.0234375
7.1028900146484375,1582574499,1,0.8939111232757568,-0.1602560132741928,0.5514028668403625,159.97314453125,-74.03564453125,-61.46240234375
7.102949142456055,1582574518,1,1.0167138576507568,-0.2471700757741928,0.8492544293403625,173.2177734375,-59.326171875,-222.65625
7.121411085128784,1582574534,0,0.2942177653312683,0.46205848455429077,0.6442080736160278,297.30224609375,-109.80224609375,-165.71044921875
7.132821083068848,1582574537,1,0.3494775593280792,0.350730299949646,0.5645864605903625,221.6796875,-86.5478515625,-212.21923828125
7.1328511238098145,1582574556,1,0.7208154201507568,-0.04892788827419281,0.5743520855903625,231.5673828125,-67.07763671875,-184.87548828125
7.147686004638672,1582574553,0,0.11819238215684891,0.18959754705429077,0.5424014329910278,259.94873046875,-205.13916015625,-94.90966796875
7.147791147232056,1582574572,0,0.1721474528312683,0.15541785955429077,0.37321197986602783,212.09716796875,-227.1728515625,-34.66796875
7.170783042907715,1582574575,1,0.4400537312030792,0.1644510179758072,0.5455434918403625,202.94189453125,-83.92333984375,-208.80126953125
7.177968263626099,1582574591,0,0.08547753840684891,0.24745887517929077,0.29215729236602783,78.61328125,-207.21435546875,-39.12353515625
7.191374063491821,1582574594,1,0.3033349812030792,0.2186502367258072,0.29432281851768494,111.99951171875,-124.1455078125,-149.59716796875
7.217339992523193,1582574610,0,0.1499306559562683,0.26381629705429077,0.27677643299102783,3.60107421875,-170.5322265625,-66.34521484375
7.2173449993133545,1582574629,0,-0.04562597721815109,0.29799598455429077,0.15910063683986664,-54.6875,-106.75048828125,-83.80126953125
7.224776029586792,1582574630,1,0.17394044995307922,0.401023268699646,0.18128569424152374,18.12744140625,-97.96142578125,-168.27392578125
7.2380211353302,1582574648,0,-0.10885839909315109,0.21303504705429077,0.18620024621486664,-97.65625,-75.1953125,-73.66943359375
7.238047122955322,1582574667,0,-0.1742880940437317,0.17934364080429077,0.35831940174102783,-137.5732421875,-33.63037109375,-55.7861328125
7.272606134414673,1582574686,0,-0.2497275471687317,0.16957801580429077,0.43937408924102783,-177.30712890625,-5.126953125,-14.58740234375
7.282037019729614,1582574649,1,0.15636232495307922,0.441062331199646,0.22449858486652374,16.11328125,-97.7783203125,-150.57373046875
7.282052278518677,1582574668,1,0.06676271557807922,0.340964674949646,0.26771149039268494,16.90673828125,-80.74951171875,-152.2216796875
7.282147169113159,1582574687,1,-0.025766581296920776,0.387595534324646,0.34095367789268494,-16.66259765625,-57.12890625,-131.16455078125
7.283727169036865,1582574706,1,-0.026499003171920776,0.326560378074646,0.37366852164268494,-61.8896484375,-43.701171875,-70.73974609375
7.298160076141357,1582574722,0,-0.11325293034315109,0.31923621892929077,0.6014834642410278,-190.36865234375,6.16455078125,43.701171875
7.320793151855469,1582574725,1,0.038198262453079224,0.277732253074646,0.45496734976768494,-114.68505859375,-29.78515625,-16.78466796875
7.3290770053863525,1582574741,0,0.04348535090684891,0.37074989080429077,0.6630069017410278,-187.68310546875,25.81787109375,78.30810546875
7.342900037765503,1582574744,1,0.009877949953079224,0.2315896898508072,0.47791656851768494,-146.54541015625,-10.19287109375,12.5732421875
7.342954158782959,1582574763,1,0.12926271557807922,0.2264627367258072,0.6424673199653625,-139.16015625,-10.986328125,24.96337890625
7.3687591552734375,1582574760,0,0.09011621028184891,0.40639442205429077,0.6774111986160278,-185.9130859375,31.8603515625,104.30908203125
7.3687639236450195,1582574779,0,0.10207910090684891,0.40834754705429077,0.7335635423660278,-166.1376953125,15.19775390625,137.02392578125
7.37362003326416,1582574782,1,0.18834474682807922,0.2020486742258072,0.6302602887153625,-132.2021484375,-0.42724609375,28.50341796875
7.387804985046387,1582574798,0,0.2212197184562683,0.5038065314292908,0.6822940111160278,-135.07080078125,1.77001953125,168.3349609375
7.38782000541687,1582574817,0,0.3135048747062683,0.5428690314292908,0.6461611986160278,-127.25830078125,6.40869140625,180.419921875
7.4028520584106445,1582574801,1,0.3187158405780792,0.2215799242258072,0.6893423199653625,-135.68115234375,-1.0986328125,51.26953125
7.4029011726379395,1582574820,1,0.3360498249530792,0.272361159324646,0.7015493512153625,-152.40478515625,7.6904296875,94.66552734375
7.422287940979004,1582574836,0,0.4382607340812683,0.6495584845542908,0.6285830736160278,-140.80810546875,35.82763671875,168.212890625
7.432751178741455,1582574839,1,0.5640771389007568,0.1700662523508072,0.8316763043403625,-154.47998046875,6.2255859375,101.50146484375
7.432783842086792,1582574858,1,0.5994775295257568,0.1698221117258072,0.8446157574653625,-153.99169921875,11.65771484375,100.28076171875
7.447962999343872,1582574855,0,0.5036904215812683,0.7052225470542908,0.5421572923660278,-172.66845703125,81.84814453125,141.29638671875
7.4480321407318115,1582574874,0,0.6064736247062683,0.6534647345542908,0.6112490892410278,-223.5107421875,105.5908203125,152.9541015625
7.4760520458221436,1582574893,0,0.5525185465812683,0.7169412970542908,0.6849795579910278,-236.26708984375,125.6103515625,173.64501953125
7.495490074157715,1582574894,1,0.7786767482757568,0.06459750235080719,0.9122427105903625,-121.826171875,28.3203125,87.70751953125
7.495496034622192,1582574913,1,0.8672997951507568,0.04970492422580719,0.9564321637153625,-119.2626953125,22.4609375,81.298828125
7.517317295074463,1582574912,0,0.6704384684562683,0.7921366095542908,0.7633486986160278,-209.228515625,142.578125,189.5751953125
7.517322063446045,1582574931,0,0.8074013590812683,0.8102030158042908,0.7877627611160278,-190.00244140625,167.54150390625,187.80517578125
7.5225911140441895,1582574932,1,0.9476220607757568,0.00575961172580719,0.9613149762153625,-132.50732421875,1.77001953125,112.24365234375
7.538023948669434,1582574950,0,0.8796669840812683,0.8258280158042908,0.6300479173660278,-200.01220703125,181.94580078125,187.43896484375
7.553337097167969,1582574951,1,1.0899560451507568,-0.02988491952419281,0.9581411480903625,-151.2451171875,-19.8974609375,128.0517578125
7.553343057632446,1582574970,1,1.3030908107757568,0.06166781485080719,1.1654165983200073,-150.2685546875,-55.17578125,144.287109375
7.574510097503662,1582574986,0,0.8188759684562683,0.7755350470542908,0.5919619798660278,-204.89501953125,168.76220703125,226.98974609375
7.584149122238159,1582574989,1,1.4459130764007568,-0.06528531014919281,1.0416373014450073,-129.33349609375,-47.607421875,125.1220703125
7.584153175354004,1582575008,1,1.5916650295257568,-0.10532437264919281,0.9791372418403625,-93.81103515625,-17.63916015625,88.68408203125
7.5971760749816895,1582575005,0,0.8699013590812683,0.7848123908042908,0.6351748704910278,-217.529296875,201.0498046875,231.5673828125
7.597228050231934,1582575024,0,1.135770559310913,0.7569803595542908,0.7543154954910278,-240.1123046875,220.0927734375,244.32373046875
7.62092399597168,1582575027,1,1.6312158107757568,-0.07138882577419281,0.9578970074653625,-74.76806640625,-17.9443359375,72.93701171875
7.627870082855225,1582575043,0,1.363797903060913,0.8294901251792908,0.9386416673660278,-245.849609375,254.0283203125,251.8310546875
7.642832040786743,1582575046,1,1.7152001857757568,-0.08896695077419281,0.8714712262153625,-65.24658203125,-32.65380859375,81.787109375
7.642879962921143,1582575065,1,1.7613427639007568,-0.07944546639919281,0.7296255230903625,-68.84765625,-46.5087890625,87.158203125
7.66808009147644,1582575062,0,1.630155324935913,0.8304666876792908,0.9750186204910278,-228.69873046875,261.04736328125,236.26708984375
7.668084144592285,1582575081,0,1.418729543685913,0.8739237189292908,1.1053897142410278,-203.4912109375,243.22509765625,208.55712890625
7.677562236785889,1582575084,1,1.9471337795257568,-0.06333218514919281,0.6241567730903625,-32.5927734375,-47.2412109375,93.20068359375
7.686536073684692,1582575100,0,1.447293996810913,0.5843729376792908,1.1796084642410278,-136.41357421875,211.24267578125,182.2509765625
7.701399087905884,1582575103,1,1.8204247951507568,-0.358009934425354,0.6595571637153625,15.56396484375,-6.77490234375,40.4052734375
7.701430082321167,1582575122,1,1.7000634670257568,-0.316261887550354,0.6204946637153625,65.97900390625,5.55419921875,7.2021484375
7.7209742069244385,1582575119,0,1.413602590560913,0.48158973455429077,1.1498233079910278,-56.21337890625,179.38232421875,131.28662109375
7.7209789752960205,1582575138,0,1.271512746810913,0.32558387517929077,1.1400576829910278,-17.63916015625,155.09033203125,80.74951171875
7.731536865234375,1582575158,1,1.2169091701507568,-0.282326340675354,0.49280914664268494,106.75048828125,-35.0341796875,2.44140625
7.747859001159668,1582575157,0,1.137723684310913,0.17714637517929077,1.1117373704910278,6.89697265625,128.5400390625,39.1845703125
7.747889041900635,1582575176,0,1.171903371810913,0.19765418767929077,1.2462588548660278,54.38232421875,116.63818359375,1.3427734375
7.77026104927063,1582575177,1,1.3589990139007568,-0.310646653175354,0.8255727887153625,130.615234375,-91.30859375,-37.53662109375
7.777756929397583,1582575195,0,0.8000771403312683,-0.06992392987012863,1.0778018236160278,80.2001953125,105.224609375,-53.7109375
7.792832136154175,1582575196,1,0.7393701076507568,-0.363381028175354,0.5084341168403625,126.220703125,-71.47216796875,-56.7626953125
7.79286003112793,1582575215,1,0.7379052639007568,-0.353371262550354,0.5101431012153625,104.79736328125,-82.6416015625,-13.7939453125
7.8165061473846436,1582575214,0,0.4927040934562683,-0.19492393732070923,0.9415713548660278,83.740234375,76.0498046875,-68.54248046875
7.822674989700317,1582575234,1,0.7332665920257568,-0.415627121925354,0.5614126324653625,130.859375,-70.1904296875,-109.06982421875
7.837676048278809,1582575250,0,0.3330361247062683,-0.18808799982070923,0.9017764329910278,169.49462890625,0.18310546875,-78.4912109375
7.852772235870361,1582575253,1,0.7213037014007568,-0.328468918800354,0.5638540387153625,162.109375,-66.40625,-186.5234375
7.852798938751221,1582575272,1,0.5718896389007568,-0.2010274976491928,0.5494497418403625,193.78662109375,-87.7685546875,-232.97119140625
7.873462200164795,1582575269,0,0.5473915934562683,0.09462685137987137,0.8268252611160278,224.7314453125,-35.888671875,-117.24853515625
7.87346887588501,1582575288,0,0.11721581965684891,0.25771278142929077,0.7179385423660278,253.0517578125,-85.205078125,-134.58251953125
7.882573127746582,1582575291,1,0.2755029499530792,0.2220682054758072,0.26356109976768494,171.9970703125,-93.20068359375,-177.6123046875
7.897993087768555,1582575307,0,-0.08102636784315109,0.07265419512987137,0.5228701829910278,230.95703125,-139.83154296875,-92.529296875
7.898059129714966,1582575326,0,-0.1755087971687317,0.10756630450487137,0.27482330799102783,165.0390625,-174.98779296875,-33.75244140625
7.918612003326416,1582575310,1,0.3565576374530792,0.2340310961008072,0.5113638043403625,156.8603515625,-98.388671875,-159.36279296875
7.929360866546631,1582575345,0,0.08865136653184891,0.40224403142929077,0.27604401111602783,52.91748046875,-195.3125,-46.44775390625
7.942788124084473,1582575329,1,0.6175439357757568,0.2381814867258072,0.48694977164268494,171.142578125,-86.42578125,-173.03466796875
7.9428391456604,1582575348,1,0.4754541218280792,0.283835768699646,0.35804352164268494,150.390625,-96.49658203125,-220.3369140625
7.942940950393677,1582575367,1,0.053823262453079224,0.544089674949646,0.08094389736652374,72.08251953125,-93.1396484375,-177.91748046875
7.968280076980591,1582575364,0,0.1543251872062683,0.5133280158042908,0.35416901111602783,-28.076171875,-130.06591796875,-83.251953125
7.973189115524292,1582575386,1,0.21788576245307922,0.565818190574646,0.25110992789268494,6.65283203125,-93.81103515625,-122.4365234375
7.9879820346832275,1582575383,0,-0.11105566471815109,0.34120887517929077,0.40836822986602783,-71.47216796875,-76.84326171875,-101.13525390625
7.987987041473389,1582575402,0,-0.2590048909187317,0.26821082830429077,0.32413971424102783,-100.89111328125,-20.93505859375,-53.466796875
8.002652883529663,1582575422,1,0.21935060620307922,0.539939284324646,0.28455719351768494,-58.4716796875,-61.6455078125,-137.63427734375
8.021797895431519,1582575421,0,-0.1569541096687317,0.31020301580429077,0.42814362049102783,-123.6572265625,-9.09423828125,-10.55908203125
8.021806240081787,1582575440,0,-0.2968466877937317,0.35195106267929077,0.42179596424102783,-120.42236328125,-20.99609375,11.5966796875
8.032697200775146,1582575441,1,0.057241231203079224,0.467917799949646,0.32117828726768494,-86.5478515625,-41.44287109375,-138.48876953125
8.048121213912964,1582575459,0,-0.1420615315437317,0.32241004705429077,0.48307526111602783,-115.17333984375,-39.55078125,39.12353515625
8.07100796699524,1582575460,1,0.041860371828079224,0.398093581199646,0.33240875601768494,-107.177734375,-35.15625,-87.95166015625
8.072103023529053,1582575479,1,0.08043459057807922,0.384665846824646,0.42933258414268494,-131.28662109375,-14.09912109375,-39.00146484375
8.077797174453735,1582575478,0,-0.1430380940437317,0.36659950017929077,0.6246768236160278,-98.0224609375,-37.29248046875,65.4296875
8.092818021774292,1582575498,1,0.046743184328079224,0.1988748461008072,0.5277212262153625,-136.71875,4.08935546875,-11.41357421875
8.092894077301025,1582575517,1,0.21983888745307922,0.350242018699646,0.48987945914268494,-133.36181640625,17.7001953125,10.6201171875
8.116307973861694,1582575514,0,-0.028291992843151093,0.46620887517929077,0.49918854236602783,-64.02587890625,18.49365234375,137.0849609375
8.116316080093384,1582575533,0,0.09841699153184891,0.5387186408042908,0.5536319017410278,-85.3271484375,29.11376953125,156.18896484375
8.122598886489868,1582575536,1,0.2708642780780792,0.310935378074646,0.6197622418403625,-149.71923828125,14.892578125,25.7568359375
8.13824200630188,1582575552,0,0.1557900309562683,0.6656717658042908,0.5875674486160278,-122.00927734375,42.78564453125,157.470703125
8.152672052383423,1582575555,1,0.16173341870307922,0.462790846824646,0.6927602887153625,-176.6357421875,5.43212890625,82.09228515625
8.152724981307983,1582575574,1,0.4666650593280792,0.2379373461008072,0.8548696637153625,-178.77197265625,-2.38037109375,105.224609375
8.173969030380249,1582575571,0,0.1706826090812683,0.6107401251792908,0.6434756517410278,-136.90185546875,67.32177734375,161.1328125
8.17397403717041,1582575590,0,0.2905556559562683,0.6119608283042908,0.6178408861160278,-134.33837890625,91.1865234375,155.57861328125
8.182867050170898,1582575593,1,0.4991357624530792,0.2064432054758072,1.0277212858200073,-158.50830078125,20.44677734375,107.36083984375
8.197914838790894,1582575609,0,0.3696572184562683,0.6231912970542908,0.5843936204910278,-143.49365234375,101.6845703125,153.62548828125
8.218814134597778,1582575612,1,0.5775048732757568,0.273826003074646,1.0181998014450073,-125.0,27.9541015625,103.8818359375
8.21881914138794,1582575631,1,0.6380517482757568,0.1978982836008072,1.0301626920700073,-131.34765625,27.16064453125,99.06005859375
8.22807502746582,1582575628,0,0.5808388590812683,0.6046366095542908,0.6725283861160278,-160.70556640625,110.90087890625,178.5888671875
8.228153228759766,1582575647,0,0.6767861247062683,0.6734842658042908,0.8007022142410278,-184.5703125,117.61474609375,189.02587890625
8.242724180221558,1582575650,1,0.6924951076507568,0.1590799242258072,0.9820669293403625,-145.44677734375,14.6484375,96.25244140625
8.267312288284302,1582575666,0,0.6753212809562683,0.8321756720542908,0.6996279954910278,-216.4306640625,128.90625,192.2607421875
8.267317056655884,1582575685,0,0.6977822184562683,0.7794412970542908,0.6676455736160278,-238.6474609375,138.18359375,194.64111328125
8.27355694770813,1582575686,1,0.9119775295257568,0.04213656485080719,0.9527700543403625,-131.04248046875,-1.8310546875,132.9345703125
8.287904024124146,1582575704,0,0.6836220622062683,0.6837381720542908,0.6554385423660278,-245.66650390625,135.498046875,202.7587890625
8.302824974060059,1582575705,1,1.0772607326507568,-0.03647671639919281,1.0355337858200073,-118.22509765625,-5.9814453125,137.3291015625
8.302861213684082,1582575724,1,1.1221826076507568,0.06288851797580719,1.1500357389450073,-112.12158203125,-25.2685546875,152.587890625
8.321362018585205,1582575723,0,0.7947060465812683,0.6185526251792908,0.5516787767410278,-256.53076171875,130.92041015625,221.98486328125
8.321368217468262,1582575742,0,0.9145790934562683,0.22988075017929077,0.6437197923660278,-243.22509765625,140.07568359375,260.92529296875
8.332741260528564,1582575743,1,1.2693994045257568,0.11098422110080719,1.1358755826950073,-102.4169921875,-28.74755859375,147.15576171875
8.37015414237976,1582575762,1,1.3624169826507568,0.2369607836008072,1.1280630826950073,-76.35498046875,-40.46630859375,168.15185546875
8.371124982833862,1582575781,1,1.5848290920257568,0.10805453360080719,0.9622915387153625,-63.78173828125,-59.08203125,171.32568359375
8.377870082855225,1582575778,0,1.352323293685913,0.5340799689292908,0.9418154954910278,-155.1513671875,169.7998046875,321.1669921875
8.37792706489563,1582575797,0,1.771268606185913,0.8324198126792908,1.2750674486160278,-147.705078125,205.56640625,303.7109375
8.392823219299316,1582575800,1,1.4505517482757568,-0.05014859139919281,0.9312856793403625,-61.4013671875,-31.92138671875,197.08251953125
8.41769814491272,1582575816,0,1.687772512435913,0.5943827033042908,0.8653994798660278,-142.08984375,268.5546875,207.82470703125
8.417702913284302,1582575835,0,1.722196340560913,1.0313944816589355,0.6254092454910278,-128.662109375,240.17333984375,124.81689453125
8.4219331741333,1582575819,1,1.7276513576507568,-0.519142746925354,1.0474966764450073,-44.98291015625,-33.203125,135.986328125
8.437923192977905,1582575854,0,1.467557668685913,0.49330848455429077,0.9237490892410278,-70.86181640625,196.8994140625,113.09814453125
8.45269513130188,1582575838,1,2.006948232650757,-0.378761887550354,0.6922720074653625,32.470703125,-32.1044921875,73.486328125
8.452785968780518,1582575857,1,1.5467431545257568,-0.410988450050354,0.5628774762153625,66.58935546875,-36.19384765625,25.20751953125
8.452799081802368,1582575876,1,1.4898583889007568,-0.355568528175354,0.46107086539268494,62.255859375,-49.072265625,25.2685546875
8.473497152328491,1582575873,0,1.493192434310913,0.39931434392929077,0.9120303392410278,2.197265625,149.47509765625,115.966796875
8.473501920700073,1582575892,0,1.315702199935913,0.26137489080429077,0.8109561204910278,53.3447265625,73.6083984375,93.93310546875
8.482709169387817,1582575895,1,1.2247216701507568,-0.299416184425354,0.45985016226768494,51.1474609375,-56.2744140625,2.01416015625
8.497984170913696,1582575911,0,1.155301809310913,0.21767371892929077,0.8805361986160278,99.2431640625,44.677734375,36.43798828125
8.518787145614624,1582575914,1,1.1995751857757568,-0.424172043800354,0.9427602887153625,92.1630859375,-80.810546875,-22.94921875
8.52938199043274,1582575930,0,1.165799856185913,0.23110145330429077,0.8112002611160278,143.85986328125,25.20751953125,-66.2841796875
8.529390096664429,1582575949,0,0.7729775309562683,0.15541785955429077,0.7382022142410278,140.625,-30.09033203125,-72.93701171875
8.543057918548584,1582575950,1,0.4852197468280792,0.10781039297580719,0.23914702236652374,144.47021484375,-59.6923828125,-52.978515625
8.567452907562256,1582575968,0,0.8782021403312683,0.012839742004871368,0.7823916673660278,139.0380859375,-42.1142578125,-60.05859375
8.567458152770996,1582575987,0,0.6264931559562683,0.11928505450487137,0.6693545579910278,163.14697265625,-42.41943359375,-106.75048828125
8.573423147201538,1582575969,1,0.8836572170257568,-0.283791184425354,0.6031606793403625,136.04736328125,-63.41552734375,-65.5517578125
8.57342791557312,1582575988,1,0.8655908107757568,-0.321877121925354,0.7523306012153625,169.43359375,-63.41552734375,-125.48828125
8.588406085968018,1582576006,0,0.6223427653312683,0.21938270330429077,0.7228213548660278,179.62646484375,-33.447265625,-131.65283203125
8.603034257888794,1582576007,1,0.8043115139007568,-0.272316575050354,0.8111684918403625,233.154296875,-83.43505859375,-211.85302734375
8.603049039840698,1582576026,1,0.2989404499530792,0.335105299949646,0.5582388043403625,268.6767578125,-105.3466796875,-200.86669921875
8.621535062789917,1582576042,0,0.1772744059562683,0.33998817205429077,0.5660830736160278,123.1689453125,-158.26416015625,-159.11865234375
8.632740259170532,1582576045,1,0.4422509968280792,0.06532992422580719,0.40101227164268494,207.33642578125,-86.5478515625,-142.88330078125
8.647980213165283,1582576061,0,0.08987206965684891,0.15907996892929077,0.49332916736602783,104.248046875,-165.95458984375,-101.74560546875
8.671348094940186,1582576064,1,0.2857568562030792,0.427634596824646,0.30164703726768494,141.90673828125,-100.03662109375,-117.00439453125
8.671353101730347,1582576083,1,0.4813134968280792,0.286033034324646,0.37440094351768494,62.56103515625,-104.3701171875,-139.16015625
8.677968978881836,1582576080,0,0.2048622965812683,0.32094520330429077,0.32804596424102783,21.66748046875,-185.60791015625,-95.8251953125
8.677998065948486,1582576099,0,0.1626259684562683,0.29042762517929077,0.36124908924102783,-14.7705078125,-158.447265625,-61.21826171875
8.692198991775513,1582576102,1,0.12779787182807922,0.601951003074646,0.38856109976768494,30.6396484375,-112.1826171875,-140.93017578125
8.716711044311523,1582576118,0,-0.06100683659315109,0.33388465642929077,0.26163971424102783,-45.654296875,-118.408203125,-50.048828125
8.716717004776001,1582576137,0,-0.08151464909315109,0.22670692205429077,0.24625883996486664,-96.923828125,-91.24755859375,-49.31640625
8.72199821472168,1582576121,1,0.3275049030780792,0.435447096824646,0.32191070914268494,20.20263671875,-102.1728515625,-122.74169921875
8.722026109695435,1582576140,1,0.2767236530780792,0.507468581199646,0.25452789664268494,4.21142578125,-87.158203125,-148.5595703125
8.737766981124878,1582576156,0,-0.2216513752937317,0.21279090642929077,0.34782135486602783,-140.869140625,-49.31640625,-19.4091796875
8.752732992172241,1582576159,1,0.07848146557807922,0.527732253074646,0.31678375601768494,-31.494140625,-69.27490234375,-140.68603515625
8.75278115272522,1582576178,1,0.06993654370307922,0.311423659324646,0.32093414664268494,-49.6826171875,-35.09521484375,-127.685546875
8.773982048034668,1582576175,0,-0.2289755940437317,0.24135535955429077,0.49943268299102783,-164.4287109375,-19.22607421875,9.46044921875
8.773989200592041,1582576194,0,-0.1654990315437317,0.35317176580429077,0.46574127674102783,-166.3818359375,21.484375,48.9501953125
8.795228004455566,1582576213,0,-0.08835058659315109,0.37685340642929077,0.47355377674102783,-173.52294921875,50.59814453125,93.81103515625
8.818437099456787,1582576214,1,0.051625996828079224,0.2220682054758072,0.39002594351768494,-101.318359375,-3.90625,-56.0302734375
8.818442106246948,1582576233,1,0.06334474682807922,0.2130350023508072,0.5089223980903625,-114.92919921875,-3.5400390625,-25.87890625
8.82630205154419,1582576232,0,-0.029756836593151093,0.47646278142929077,0.5272647142410278,-172.54638671875,77.392578125,129.57763671875
8.82633090019226,1582576251,0,0.08401269465684891,0.46523231267929077,0.5956240892410278,-162.04833984375,86.181640625,168.39599609375
8.842572212219238,1582576252,1,0.11266115307807922,0.299704909324646,0.5308950543403625,-129.69970703125,1.15966796875,5.92041015625
8.867118120193481,1582576270,0,0.1548134684562683,0.5304178595542908,0.6122256517410278,-145.8740234375,82.3974609375,184.5703125
8.885617971420288,1582576306,0,0.2507607340812683,0.5753397345542908,0.6664248704910278,-137.26806640625,67.3828125,179.87060546875
8.90204906463623,1582576271,1,0.21739748120307922,0.367576003074646,0.6739614605903625,-123.35205078125,10.7421875,28.74755859375
8.90217399597168,1582576290,1,0.2635400593280792,0.370505690574646,0.7867544293403625,-114.44091796875,28.4423828125,46.142578125
8.902209043502808,1582576309,1,0.4456689655780792,0.339011549949646,0.9068716168403625,-120.60546875,26.18408203125,62.92724609375
8.914935111999512,1582576328,1,0.4781396687030792,0.341452956199646,0.9471548199653625,-121.7041015625,19.34814453125,66.2841796875
8.92078709602356,1582576325,0,0.4126259684562683,0.6205057501792908,0.6634951829910278,-138.48876953125,85.75439453125,171.81396484375
8.92079210281372,1582576344,0,0.4902626872062683,0.6412577033042908,0.6598330736160278,-158.935546875,119.20166015625,174.62158203125
8.93113398551941,1582576347,1,0.4979150593280792,0.311423659324646,0.9437368512153625,-116.76025390625,18.61572265625,64.697265625
8.948058843612671,1582576363,0,0.5395790934562683,0.6617655158042908,0.6500674486160278,-178.1005859375,144.71435546875,186.46240234375
8.970352172851562,1582576366,1,0.5347802639007568,0.289451003074646,0.9820669293403625,-103.82080078125,25.7568359375,75.1953125
8.970359086990356,1582576385,1,0.6583154201507568,0.2144998461008072,0.9549673199653625,-97.900390625,25.634765625,86.97509765625
8.977456092834473,1582576382,0,0.5957314372062683,0.6478495001792908,0.6647158861160278,-182.43408203125,145.69091796875,198.2421875
8.977549076080322,1582576401,0,0.6819130778312683,0.6576151251792908,0.6652041673660278,-170.83740234375,148.8037109375,209.04541015625
8.9916410446167,1582576404,1,0.6922509670257568,0.2105935961008072,0.9578970074653625,-105.8349609375,18.61572265625,103.57666015625
9.015941858291626,1582576420,0,0.7527138590812683,0.6664041876792908,0.6171084642410278,-161.7431640625,151.30615234375,208.06884765625
9.021193027496338,1582576423,1,0.7916162014007568,0.1725076586008072,0.9459341168403625,-125.79345703125,5.4931640625,119.93408203125
9.021221160888672,1582576442,1,0.9088037014007568,0.1390603929758072,0.9622915387153625,-141.6015625,-10.19287109375,129.7607421875
9.036365032196045,1582576439,0,0.7700478434562683,0.6454080939292908,0.6166201829910278,-165.10009765625,163.6962890625,221.13037109375
9.036439180374146,1582576458,0,0.8259560465812683,0.6280741095542908,0.6124697923660278,-173.095703125,166.68701171875,238.95263671875
9.051881074905396,1582576478,1,1.0677392482757568,0.01064242422580719,1.0892447233200073,-137.14599609375,-34.60693359375,161.19384765625
9.073479890823364,1582576477,0,0.9555947184562683,0.6383280158042908,0.6100283861160278,-170.166015625,167.48046875,267.333984375
9.073484182357788,1582576496,0,1.201444387435913,0.6322245001792908,0.6771670579910278,-175.9033203125,171.20361328125,285.82763671875
9.082751989364624,1582576497,1,1.2842919826507568,0.01845492422580719,0.9022329449653625,-107.72705078125,-15.9912109375,177.3681640625
9.097915887832642,1582576515,0,1.265653371810913,0.6087870001792908,0.5970889329910278,-136.474609375,154.9072265625,302.8564453125
9.120323181152344,1582576516,1,1.4136865139007568,-0.1351095288991928,1.1048697233200073,-93.26171875,2.74658203125,117.61474609375
9.120327949523926,1582576535,1,1.5762841701507568,0.04775179922580719,1.0672720670700073,-58.65478515625,-10.92529296875,101.07421875
