sync_time,timestamp_ms,device_id,ax,ay,az,gx,gy,gz
0.024969100952148438,-1268438437,1,0.4730265736579895,-0.6316130757331848,0.7198505401611328,30.1513671875,-128.173828125,50.4150390625
0.04819893836975098,-1268438454,0,0.6988402009010315,-0.3755526840686798,0.8082869052886963,2.13623046875,-95.52001953125,81.54296875
0.04834413528442383,-1268438435,0,0.6658812165260315,-0.4109530746936798,0.8075544834136963,37.04833984375,-116.39404296875,59.08203125
0.04837608337402344,-1268438416,0,0.7112913727760315,-0.4810214340686798,0.8197615146636963,47.119140625,-111.81640625,50.23193359375
0.04895424842834473,-1268438397,0,0.7305784821510315,-0.5383945107460022,0.8248884677886963,45.34912109375,-105.3466796875,34.11865234375
0.055006980895996094,-1268438418,1,0.5667765736579895,-0.6611540913581848,0.7454853057861328,37.4755859375,-119.5068359375,48.828125
0.055082082748413086,-1268438399,1,0.6087687611579895,-0.6325896382331848,0.7686786651611328,40.4052734375,-102.84423828125,29.11376953125
0.07944512367248535,-1268438378,0,0.7650023102760315,-0.4712558090686798,0.7904646396636963,36.2548828125,-99.18212890625,19.47021484375
0.08519816398620605,-1268438380,1,0.6610148549079895,-0.5779021382331848,0.7489032745361328,33.69140625,-82.33642578125,9.1552734375
0.08527493476867676,-1268438361,1,0.7471964955329895,-0.5300505757331848,0.7164325714111328,33.14208984375,-57.2509765625,-4.33349609375
0.12110018730163574,-1268438359,0,0.8011351227760315,-0.3733554184436798,0.7089216709136963,31.92138671875,-88.134765625,8.36181640625
0.12110710144042969,-1268438340,0,0.8548460602760315,-0.2925448715686798,0.6674177646636963,42.05322265625,-64.88037109375,-2.8076171875
0.12436199188232422,-1268438342,1,0.7891886830329895,-0.4673064649105072,0.7061786651611328,48.4619140625,-31.79931640625,-11.65771484375
0.1375429630279541,-1268438304,0,0.9410277009010315,-0.3931308090686798,0.7555525302886963,52.79541015625,-36.31591796875,-12.14599609375
0.14485907554626465,-1268438306,1,0.6991007924079895,-0.5014861226081848,0.7716083526611328,71.77734375,-23.13232421875,-20.1416015625
0.17341899871826172,-1268438285,0,0.9232054352760315,-0.4434237778186798,0.7770369052886963,43.212890625,-43.9453125,-16.7236328125
0.17545104026794434,-1268438287,1,0.6720011830329895,-0.5293181538581848,0.7747821807861328,61.6455078125,-29.541015625,-30.70068359375
0.19852304458618164,-1268438266,0,0.8326292634010315,-0.3831210434436798,0.7191755771636963,33.69140625,-37.17041015625,-29.6630859375
0.1985311508178711,-1268438247,0,0.7816038727760315,-0.3609042465686798,0.6661970615386963,31.18896484375,-29.72412109375,-56.5185546875
0.2050611972808838,-1268438268,1,0.6810343861579895,-0.5080779194831848,0.7264423370361328,56.0302734375,-27.77099609375,-40.52734375
0.20514893531799316,-1268438249,1,0.6624796986579895,-0.4909881055355072,0.7064228057861328,55.0537109375,-12.51220703125,-48.095703125
0.22759604454040527,-1268438228,0,0.8040648102760315,-0.4092440903186798,0.6849958896636963,45.10498046875,-11.41357421875,-72.57080078125
0.2350940704345703,-1268438230,1,0.6834757924079895,-0.5637419819831848,0.7127704620361328,74.52392578125,-3.47900390625,-56.33544921875
0.23523807525634766,-1268438211,1,0.6414836049079895,-0.5617888569831848,0.7696552276611328,74.3408203125,7.01904296875,-70.068359375
0.27164411544799805,-1268438209,0,0.8370237946510315,-0.4807772934436798,0.7706892490386963,46.5087890625,-0.67138671875,-84.04541015625
0.27165699005126953,-1268438190,0,0.8799925446510315,-0.5142245888710022,0.7977888584136963,35.7666015625,1.953125,-97.10693359375
0.27346205711364746,-1268438192,1,0.6724894642829895,-0.5529997944831848,0.7926044464111328,65.24658203125,11.5966796875,-82.03125
0.28759193420410156,-1268438171,0,0.8721800446510315,-0.4375644028186798,0.7257673740386963,20.81298828125,2.50244140625,-105.89599609375
0.2951209545135498,-1268438173,1,0.7264445424079895,-0.5019744038581848,0.7652606964111328,46.7529296875,22.88818359375,-91.30859375
0.29520702362060547,-1268438154,1,0.7232707142829895,-0.5207732319831848,0.7479267120361328,45.8984375,28.50341796875,-87.2802734375
0.3240032196044922,-1268438152,0,0.9390745759010315,-0.3462558090686798,0.6896345615386963,16.11328125,2.3193359375,-99.18212890625
0.32558703422546387,-1268438133,0,0.9908323884010315,-0.3069491684436798,0.7091658115386963,25.5126953125,9.70458984375,-100.76904296875
0.326113224029541,-1268438135,1,0.7428019642829895,-0.5363982319831848,0.7489032745361328,61.767578125,22.64404296875,-82.21435546875
0.34774303436279297,-1268438114,0,1.0262328386306763,-0.4380526840686798,0.7792341709136963,41.93115234375,5.67626953125,-108.09326171875
0.34789419174194336,-1268438095,0,1.0206176042556763,-0.4829745590686798,0.7848494052886963,18.12744140625,-22.94921875,-121.2158203125
0.35524797439575195,-1268438116,1,0.7269328236579895,-0.5068572163581848,0.8170185089111328,72.509765625,11.23046875,-89.41650390625
0.3552672863006592,-1268438097,1,0.6993449330329895,-0.3864959180355072,0.8099384307861328,47.79052734375,2.197265625,-108.88671875
0.378298282623291,-1268438076,0,0.9871702790260315,-0.2981601059436798,0.6351912021636963,-27.7099609375,-30.8837890625,-131.40869140625
0.3849761486053467,-1268438078,1,0.8507121205329895,-0.2439177930355072,0.7403583526611328,6.65283203125,-3.11279296875,-127.13623046875
0.4076120853424072,-1268438040,0,1.0276976823806763,0.132503941655159,0.4694196879863739,-60.11962890625,58.2275390625,-139.0380859375
0.4247119426727295,-1268438042,1,0.8770793080329895,-0.018575992435216904,0.6922626495361328,-12.5732421875,35.46142578125,-103.69873046875
0.43754124641418457,-1268438021,0,0.9798460602760315,0.183773472905159,0.5399763584136963,-38.26904296875,67.7490234375,-134.033203125
0.44527125358581543,-1268438023,1,0.9032023549079895,-0.0993865430355072,0.7364521026611328,17.08984375,75.98876953125,-117.919921875
0.4453880786895752,-1268438004,1,0.4762004017829895,0.0741974413394928,1.5911884307861328,-18.5546875,57.43408203125,-85.8154296875
0.4747021198272705,-1268438002,0,1.1783324480056763,0.118099644780159,1.5856306552886963,10.7421875,97.412109375,-74.52392578125
0.47471022605895996,-1268437983,0,1.1734496355056763,0.232845738530159,0.6906111240386963,-74.27978515625,4.8828125,-62.80517578125
0.47746706008911133,-1268437985,1,1.2025187015533447,0.017312679439783096,1.2213153839111328,-71.83837890625,81.11572265625,-104.8583984375
0.5010659694671631,-1268437964,0,1.0010863542556763,0.084164097905159,0.6842634677886963,-60.36376953125,154.84619140625,-109.31396484375
0.501075029373169,-1268437945,0,0.7076292634010315,-0.067691370844841,1.0687849521636963,-23.49853515625,233.154296875,-109.19189453125
0.50502610206604,-1268437966,1,1.1102335453033447,0.2927033007144928,0.5184345245361328,-50.4150390625,177.978515625,41.015625
0.5051231384277344,-1268437947,1,0.8265421986579895,-0.2300017774105072,1.0499286651611328,-14.2822265625,130.18798828125,-4.5166015625
0.5290651321411133,-1268437926,0,0.9481077790260315,0.216732457280159,0.9269392490386963,-100.89111328125,216.552734375,-90.88134765625
0.5567810535430908,-1268437907,0,0.8921995759010315,0.109310582280159,1.3109724521636963,-111.572265625,215.576171875,-64.697265625
0.557682991027832,-1268437888,0,0.8140745759010315,0.058285195380449295,1.0646345615386963,-71.22802734375,140.31982421875,-39.48974609375
0.5714282989501953,-1268437928,1,0.4503214955329895,-0.4328826367855072,0.9383563995361328,16.2353515625,78.91845703125,-18.9208984375
0.5714371204376221,-1268437909,1,0.3736613392829895,-0.2946990430355072,1.1705341339111328,-6.34765625,8.056640625,-19.53125
0.5714430809020996,-1268437890,1,0.4259074330329895,0.1022736132144928,0.8299579620361328,17.63916015625,-31.67724609375,13.427734375
0.5875301361083984,-1268437869,0,0.6951780915260315,-0.056460898369550705,0.7667829990386963,-84.04541015625,20.8740234375,-22.4609375
0.5950560569763184,-1268437871,1,0.4876750111579895,-0.2292693555355072,0.6981220245361328,28.6865234375,-33.14208984375,26.611328125
0.5951471328735352,-1268437852,1,0.4928019642829895,-0.045919742435216904,0.5389423370361328,59.38720703125,-47.2412109375,42.96875
0.6247832775115967,-1268437850,0,0.6011839509010315,-0.009830038994550705,0.5079939365386963,-89.2333984375,91.61376953125,-90.576171875
0.624791145324707,-1268437831,0,0.4752074182033539,0.2955898940563202,0.6063826084136963,-81.35986328125,77.1484375,-94.1162109375
0.6268370151519775,-1268437833,1,0.3646281361579895,-0.1655486524105072,0.4276142120361328,74.462890625,-22.216796875,74.5849609375
0.6476631164550781,-1268437812,0,0.2144652158021927,0.3724941909313202,0.6222517490386963,-83.740234375,-6.16455078125,-75.8056640625
0.6549420356750488,-1268437814,1,0.3053019642829895,-0.050070133060216904,0.4591083526611328,113.8916015625,-9.1552734375,101.5625
0.6779141426086426,-1268437776,0,0.3856078088283539,-0.034244101494550705,0.3644392192363739,-28.01513671875,-11.41357421875,-74.52392578125
0.6850042343139648,-1268437778,1,-0.024776164442300797,0.2045685350894928,0.2064228057861328,155.09033203125,-14.404296875,124.1455078125
0.707801103591919,-1268437757,0,0.2132445126771927,-0.2947421371936798,0.5228865146636963,-15.31982421875,19.04296875,-140.44189453125
0.7079451084136963,-1268437738,0,-0.06434337794780731,-0.3579745590686798,0.7072126865386963,32.89794921875,6.103515625,-151.55029296875
0.7251160144805908,-1268437759,1,0.1998332142829895,0.019021663814783096,0.4232196807861328,122.1923828125,-57.55615234375,118.896484375
0.7251241207122803,-1268437740,1,0.2115519642829895,0.015603695064783096,0.6380634307861328,98.08349609375,-59.26513671875,88.43994140625
0.7379050254821777,-1268437719,0,0.7105589509010315,0.106380894780159,1.3185408115386963,14.5263671875,-29.84619140625,-170.2880859375
0.745042085647583,-1268437721,1,0.0824015736579895,-0.3037322461605072,0.8792743682861328,28.62548828125,82.3974609375,-27.587890625
0.7451169490814209,-1268437702,1,0.5196574330329895,-0.028585758060216904,0.6026630401611328,2.13623046875,8.056640625,-2.44140625
0.7748019695281982,-1268437700,0,0.6024046540260315,0.128109410405159,0.8893415927886963,20.08056640625,32.958984375,-193.115234375
0.7748103141784668,-1268437681,0,0.5745726227760315,0.122494176030159,0.9279158115386963,9.46044921875,63.96484375,-130.79833984375
0.7775731086730957,-1268437683,1,0.2601359486579895,-0.1274627149105072,0.5985126495361328,-30.57861328125,7.6904296875,18.6767578125
0.7978823184967041,-1268437662,0,0.6981077790260315,-0.159244105219841,0.7902204990386963,32.958984375,53.52783203125,-102.9052734375
0.8051552772521973,-1268437664,1,0.3460734486579895,-0.2981170117855072,0.7261981964111328,-32.65380859375,-46.7529296875,8.48388671875
0.8052830696105957,-1268437645,1,0.7296183705329895,0.050759945064783096,1.2681903839111328,-45.0439453125,-31.3720703125,14.5263671875
0.8340213298797607,-1268437626,1,0.5460246205329895,-0.1687224805355072,0.8961200714111328,-26.06201171875,18.85986328125,-2.38037109375
0.8691461086273193,-1268437643,0,0.1907835751771927,0.155941441655159,0.6566755771636963,76.84326171875,42.236328125,-47.9736328125
0.8691530227661133,-1268437624,0,0.8565550446510315,0.3666348159313202,0.8995954990386963,98.6328125,28.74755859375,41.1376953125
0.8691580295562744,-1268437605,0,0.6197386384010315,0.3385586440563202,1.1256697177886963,44.921875,124.6337890625,162.53662109375
0.8691630363464355,-1268437586,0,0.4581175744533539,0.195492222905159,1.1229841709136963,12.20703125,103.33251953125,257.2021484375
0.8709430694580078,-1268437607,1,0.3560832142829895,-0.1823943555355072,0.5538349151611328,11.3525390625,39.36767578125,-39.9169921875
0.8709492683410645,-1268437588,1,0.4371379017829895,-0.0945037305355072,0.6788349151611328,66.10107421875,69.4580078125,-87.7685546875
0.8908722400665283,-1268437567,0,0.2894164025783539,0.220394566655159,1.0192244052886963,-16.17431640625,98.388671875,255.18798828125
0.8951621055603027,-1268437569,1,0.6158488392829895,-0.041769351810216904,1.0579853057861328,42.66357421875,36.2548828125,-64.697265625
0.9242281913757324,-1268437548,0,0.2105589658021927,0.140804722905159,0.8336775302886963,-32.8369140625,85.0830078125,210.14404296875
0.9261901378631592,-1268437550,1,0.6226847767829895,-0.014181461185216904,0.8551044464111328,-18.37158203125,31.1279296875,-40.6494140625
0.9475340843200684,-1268437512,0,0.09556873142719269,0.162777379155159,0.8890974521636963,41.9921875,-24.23095703125,108.09326171875
0.9554190635681152,-1268437514,1,0.6546671986579895,-0.2248748242855072,0.5399188995361328,-5.859375,24.90234375,-25.146484375
0.9555680751800537,-1268437495,1,0.4605754017829895,-0.1208709180355072,0.6402606964111328,56.5185546875,79.40673828125,-58.04443359375
0.9788351058959961,-1268437493,0,0.3643675744533539,0.4032559096813202,0.8922712802886963,31.67724609375,-21.97265625,13.61083984375
0.9788501262664795,-1268437474,0,0.6465941071510315,0.3129238784313202,0.9301130771636963,-24.7802734375,-5.859375,-27.03857421875
0.9849722385406494,-1268437476,1,0.4991496205329895,0.043435726314783096,0.7747821807861328,85.5712890625,39.48974609375,-54.5654296875
1.0077152252197266,-1268437455,0,0.7398558259010315,0.212093785405159,0.9052107334136963,-64.5751953125,41.80908203125,-43.51806640625
1.007845163345337,-1268437436,0,0.6002073884010315,0.189632847905159,0.7914412021636963,-40.283203125,89.111328125,-25.45166015625
1.0235002040863037,-1268437457,1,0.4288371205329895,0.1432892382144928,0.8468036651611328,46.93603515625,31.67724609375,-28.50341796875
1.0235071182250977,-1268437438,1,0.4849894642829895,0.0004669763147830963,0.9046649932861328,26.06201171875,17.51708984375,-26.30615234375
1.0376179218292236,-1268437417,0,0.2518187463283539,0.3156094253063202,1.0272810459136963,-10.3759765625,103.6376953125,-41.07666015625
1.0453813076019287,-1268437419,1,0.3961222767829895,0.012429866939783096,0.8187274932861328,24.84130859375,21.97265625,-53.22265625
1.045612096786499,-1268437400,1,0.3783000111579895,0.1240021288394928,0.8004169464111328,36.2548828125,15.625,-89.35546875
1.0786020755767822,-1268437381,1,0.5457804799079895,0.3876740038394928,0.7264423370361328,75.50048828125,15.93017578125,-64.63623046875
1.097938060760498,-1268437398,0,0.1617308408021927,0.225277379155159,0.9738142490386963,-17.4560546875,81.9091796875,-86.48681640625
1.098006010055542,-1268437379,0,0.1910277158021927,0.178890660405159,0.8576033115386963,7.32421875,51.7578125,-108.58154296875
1.0991261005401611,-1268437360,0,0.2330199033021927,0.174740269780159,1.0385115146636963,54.38232421875,40.10009765625,-103.515625
1.1069719791412354,-1268437362,1,0.5011027455329895,0.3359161913394928,0.6846942901611328,109.4970703125,58.53271484375,-16.4794921875
1.1069841384887695,-1268437343,1,0.2559855580329895,0.3803497850894928,0.7252216339111328,147.15576171875,101.50146484375,-7.01904296875
1.1279282569885254,-1268437341,0,0.2598753869533539,0.3810391128063202,1.0228865146636963,73.73046875,71.96044921875,-53.40576171875
1.1280462741851807,-1268437322,0,0.06871326267719269,0.5534023642539978,1.0143415927886963,54.13818359375,172.119140625,-15.19775390625
1.1349730491638184,-1268437324,1,0.1846964955329895,0.4706818163394928,0.8555927276611328,138.427734375,109.0087890625,-40.83251953125
1.1710028648376465,-1268437303,0,0.3282347619533539,0.158871129155159,1.0883162021636963,-1.8310546875,137.02392578125,-44.7998046875
1.173799991607666,-1268437305,1,0.2493937611579895,0.7028595805168152,0.9903583526611328,115.66162109375,117.919921875,-62.1337890625
1.173807144165039,-1268437286,1,0.1580851674079895,0.7504670023918152,1.1505146026611328,110.41259765625,126.220703125,-39.24560546875
1.1875059604644775,-1268437284,0,-0.016980092972517014,-0.027164023369550705,1.3644392490386963,-47.18017578125,-0.732421875,-124.08447265625
1.194931983947754,-1268437250,1,0.0804484486579895,0.7731720805168152,1.1060810089111328,52.30712890625,84.89990234375,-11.29150390625
1.2249751091003418,-1268437248,0,-0.10633556544780731,0.3851895034313202,1.0326521396636963,34.423828125,-42.78564453125,-121.39892578125
1.224985122680664,-1268437229,0,0.3978148400783539,0.5922207236289978,1.0704939365386963,39.794921875,17.63916015625,-14.70947265625
1.2267589569091797,-1268437231,1,-0.046260539442300797,0.7116486430168152,1.0560321807861328,22.27783203125,58.4716796875,-45.654296875
1.247642993927002,-1268437210,0,0.3360472619533539,0.5519375205039978,1.1449568271636963,-11.474609375,48.095703125,-6.04248046875
1.2552011013031006,-1268437212,1,0.1363566517829895,0.7345978617668152,0.8143329620361328,11.04736328125,49.98779296875,-120.66650390625
1.255310297012329,-1268437193,1,0.1307414174079895,0.7136017680168152,0.9056415557861328,24.169921875,54.0771484375,-117.431640625
1.2806432247161865,-1268437191,0,0.022082407027482986,0.5775722861289978,1.3046247959136963,-4.638671875,39.55078125,-16.17431640625
1.2806551456451416,-1268437172,0,0.08384998142719269,0.4721035659313202,1.2008650302886963,52.978515625,6.2255859375,-24.84130859375
1.2850310802459717,-1268437174,1,0.009647663682699203,0.4977814257144928,0.8824481964111328,47.607421875,55.72509765625,-121.4599609375
1.3077421188354492,-1268437153,0,0.06309802830219269,0.2616543471813202,1.0497419834136963,97.7783203125,-5.79833984375,8.23974609375
1.3236300945281982,-1268437155,1,0.037723835557699203,0.4816681444644928,0.7513446807861328,74.5849609375,24.84130859375,-168.0908203125
1.3236422538757324,-1268437136,1,-0.1109578013420105,0.4511505663394928,0.8409442901611328,67.87109375,-11.23046875,-230.28564453125
1.3376901149749756,-1268437134,0,-0.031628530472517014,0.2821621596813202,1.1893904209136963,126.52587890625,-14.404296875,63.65966796875
1.3377909660339355,-1268437115,0,0.07603748142719269,0.4899258315563202,1.2379744052886963,151.18408203125,-31.1279296875,124.267578125
1.3449020385742188,-1268437117,1,-0.2012898325920105,0.6193634867668152,0.9969501495361328,62.744140625,-19.04296875,-218.81103515625
1.3765020370483398,-1268437096,0,0.021105844527482986,0.8680996298789978,1.1732771396636963,126.28173828125,-10.43701171875,143.00537109375
1.3765089511871338,-1268437077,0,-0.022351186722517014,0.6835293173789978,1.3283064365386963,87.95166015625,27.83203125,108.642578125
1.3781609535217285,-1268437098,1,-0.3214070200920105,0.8510529398918152,0.9818134307861328,30.8837890625,-54.8095703125,-215.8203125
1.3781671524047852,-1268437079,1,-0.6680867075920105,0.6059357523918152,0.9051532745361328,17.9443359375,-174.4384765625,-210.44921875
1.3977789878845215,-1268437058,0,0.5972777009010315,0.4225430190563202,1.2509138584136963,63.720703125,21.240234375,64.3310546875
1.4049930572509766,-1268437060,1,0.1214640736579895,0.056619320064783096,0.9134540557861328,11.71875,-354.3701171875,-182.43408203125
1.4051122665405273,-1268437041,1,0.8565714955329895,0.9296662211418152,0.2547626495361328,99.91455078125,-140.31982421875,79.345703125
1.4303193092346191,-1268437039,0,1.0748168230056763,0.5260586142539978,0.1852400004863739,-26.91650390625,3.90625,-10.07080078125
1.4303271770477295,-1268437020,0,0.3702269494533539,0.6061367392539978,1.0717146396636963,30.1513671875,3.7841796875,49.49951171875
1.4349651336669922,-1268437022,1,0.049198444932699203,0.4819122850894928,0.7540302276611328,71.47216796875,-24.0478515625,53.5888671875
1.4574882984161377,-1268436984,0,0.4659300744533539,0.4220547378063202,0.9120466709136963,-107.84912109375,-6.16455078125,76.84326171875
1.4868249893188477,-1268436965,0,-0.4830445349216461,0.5697597861289978,0.8732283115386963,-35.46142578125,50.47607421875,47.91259765625
1.497680902481079,-1268436986,1,-0.1854206919670105,0.7070099711418152,1.1654071807861328,54.0771484375,-116.02783203125,71.47216796875
1.4976909160614014,-1268436967,1,-0.1392781138420105,0.5883576273918152,0.6282978057861328,35.2783203125,-67.3828125,78.67431640625
1.524219036102295,-1268436946,0,0.0074339695274829865,0.2880215346813202,0.8400251865386963,35.7666015625,-11.8408203125,53.28369140625
1.5256829261779785,-1268436927,0,0.2479124814271927,0.3043789565563202,0.8624861240386963,55.96923828125,-14.6484375,12.0849609375
1.5263152122497559,-1268436948,1,-0.0015828050673007965,0.5270783305168152,0.5780048370361328,68.29833984375,28.25927734375,16.54052734375
1.5263221263885498,-1268436929,1,-0.018916789442300797,0.5929962992668152,0.6051044464111328,74.462890625,18.1884765625,-24.90234375
1.5476622581481934,-1268436908,0,-0.041882436722517014,0.3971523940563202,0.7904646396636963,34.97314453125,4.57763671875,-36.865234375
1.555217981338501,-1268436910,1,-0.1793171763420105,0.6213166117668152,0.6273212432861328,63.8427734375,-0.48828125,-39.61181640625
1.5553240776062012,-1268436891,1,-0.1148640513420105,0.6620880961418152,0.6964130401611328,56.70166015625,11.29150390625,-38.63525390625
1.6068391799926758,-1268436889,0,-0.037976186722517014,0.4386563003063202,0.7736189365386963,-4.69970703125,9.94873046875,-55.35888671875
1.6078290939331055,-1268436870,0,-0.08118908107280731,0.082455113530159,1.0158064365386963,-56.2744140625,15.5029296875,-42.66357421875
1.6194360256195068,-1268436851,0,0.2022581845521927,0.4620938003063202,0.6405622959136963,-16.845703125,0.18310546875,31.73828125
1.6194429397583008,-1268436832,0,0.2776976525783539,0.5712246298789978,0.6723005771636963,-35.58349609375,8.6669921875,65.0634765625
1.6211271286010742,-1268436872,1,0.0059855543076992035,0.3525177538394928,0.5274677276611328,47.54638671875,-11.71875,-46.5087890625
1.6211342811584473,-1268436853,1,0.1610148549079895,0.5261017680168152,0.3585224151611328,5.18798828125,-29.84619140625,-64.453125
1.6377201080322266,-1268436813,0,0.3519164025783539,0.4747891128063202,0.9118025302886963,-45.47119140625,-7.26318359375,65.49072265625
1.6450769901275635,-1268436834,1,0.0926554799079895,0.6325470805168152,0.4053974151611328,5.126953125,-10.25390625,-34.60693359375
1.6451499462127686,-1268436815,1,0.0731242299079895,0.6340119242668152,0.4456806182861328,-2.9296875,-1.28173828125,-6.28662109375
1.6757891178131104,-1268436794,0,0.3487425744533539,0.4581875503063202,1.0712263584136963,-64.27001953125,-31.25,50.84228515625
1.6757960319519043,-1268436775,0,0.3458128869533539,0.5111660361289978,0.7719099521636963,-73.73046875,-10.07080078125,63.1103515625
1.6773042678833008,-1268436796,1,0.0719035267829895,0.7382599711418152,0.6536884307861328,-30.8837890625,-41.80908203125,48.64501953125
1.6773111820220947,-1268436777,1,0.1641886830329895,0.8180939555168152,0.5672626495361328,-51.33056640625,-55.0537109375,55.35888671875
1.697957992553711,-1268436756,0,0.3165160119533539,0.4476895034313202,0.7504255771636963,-102.11181640625,11.04736328125,48.828125
1.7051222324371338,-1268436758,1,0.2452433705329895,0.7953888773918152,0.5587177276611328,-75.98876953125,-0.54931640625,42.6025390625
1.7286200523376465,-1268436720,0,0.7767210602760315,0.3973965346813202,1.4110701084136963,-119.7509765625,20.751953125,62.1337890625
1.7349300384521484,-1268436722,1,0.4273722767829895,1.0185333490371704,1.0211200714111328,-90.4541015625,1.3427734375,28.13720703125
1.7575721740722656,-1268436701,0,0.6768675446510315,0.3715176284313202,1.0443708896636963,-81.9091796875,60.36376953125,30.517578125
1.7738401889801025,-1268436703,1,0.4815714955329895,0.8859650492668152,0.7938251495361328,-63.41552734375,10.009765625,19.10400390625
1.7738502025604248,-1268436684,1,0.3724406361579895,0.8842560648918152,0.7454853057861328,-37.353515625,38.57421875,-6.9580078125
1.7877099514007568,-1268436682,0,0.4986449182033539,0.5250820517539978,1.2084333896636963,-25.32958984375,84.5947265625,-15.93017578125
1.7878050804138184,-1268436663,0,0.5298948884010315,0.4015469253063202,0.9650251865386963,-13.3056640625,80.56640625,-47.4853515625
1.794936180114746,-1268436665,1,0.3487589955329895,0.8415314555168152,0.6851825714111328,-21.8505859375,67.56591796875,-23.62060546875
1.826073169708252,-1268436646,1,0.3990519642829895,0.9284455180168152,0.7183856964111328,-45.83740234375,19.47021484375,-6.9580078125
1.8260822296142578,-1268436627,1,0.3634074330329895,0.8393341898918152,0.8219013214111328,-62.744140625,-16.17431640625,21.3623046875
1.847778081893921,-1268436644,0,0.8145628571510315,0.5441250205039978,1.2894880771636963,-54.6875,58.4716796875,-55.0537109375
1.8478929996490479,-1268436625,0,0.5994749665260315,0.4220547378063202,1.4667341709136963,-65.185546875,29.1748046875,-9.6435546875
1.8488860130310059,-1268436606,0,0.5889769196510315,0.5653652548789978,1.3036482334136963,-30.76171875,-15.68603515625,36.4990234375
1.8549041748046875,-1268436608,1,0.3182414174079895,0.8053986430168152,0.7318134307861328,-55.2978515625,-39.9169921875,48.33984375
1.8776741027832031,-1268436587,0,0.4861937463283539,0.4144863784313202,1.0995466709136963,8.48388671875,-46.44775390625,33.8134765625
1.87778902053833,-1268436568,0,0.3814574182033539,0.4452480971813202,0.9030134677886963,66.7724609375,-30.09033203125,-20.93505859375
1.8853802680969238,-1268436589,1,0.3480265736579895,0.7782990336418152,0.7728290557861328,-34.97314453125,-34.36279296875,59.5703125
1.8855221271514893,-1268436570,1,0.2862589955329895,0.7197052836418152,0.8126239776611328,18.6767578125,-15.869140625,14.16015625
1.9076590538024902,-1268436549,0,0.2408324033021927,0.4071621596813202,0.8402693271636963,68.42041015625,-9.521484375,-74.89013671875
1.9223802089691162,-1268436551,1,0.1800578236579895,0.6896759867668152,0.7584247589111328,67.7490234375,26.79443359375,-38.0859375
1.9223871231079102,-1268436532,1,0.1107218861579895,0.6982209086418152,0.6524677276611328,76.35498046875,44.43359375,-64.8193359375
1.9376699924468994,-1268436530,0,0.2293577939271927,0.3661465346813202,0.8241560459136963,54.87060546875,27.34375,-106.93359375
1.937788963317871,-1268436511,0,0.3174925744533539,0.5805019736289978,0.9342634677886963,12.87841796875,57.55615234375,-114.74609375
1.9448792934417725,-1268436513,1,0.1038859486579895,0.7428986430168152,0.6107196807861328,61.21826171875,47.8515625,-62.98828125
1.9751319885253906,-1268436492,0,0.2940550744533539,0.5014004111289978,1.0885603427886963,-14.404296875,54.87060546875,-88.9892578125
1.9787101745605469,-1268436494,1,0.1387980580329895,0.7341095805168152,0.6685810089111328,51.8798828125,28.13720703125,-44.49462890625
1.9979379177093506,-1268436456,0,0.2100706845521927,0.3610195815563202,1.0319197177886963,60.60791015625,17.88330078125,14.09912109375
2.005587100982666,-1268436458,1,0.042606648057699203,0.6401154398918152,0.5396747589111328,31.73828125,-4.08935546875,-48.7060546875
2.0278971195220947,-1268436437,0,0.2139769345521927,0.3112148940563202,0.8981306552886963,186.70654296875,-39.1845703125,0.1220703125
2.028043031692505,-1268436418,0,0.2706175744533539,0.6661953330039978,0.5722029209136963,215.9423828125,-113.70849609375,-70.6787109375
2.0350611209869385,-1268436439,1,0.055546101182699203,0.4938751757144928,0.6312274932861328,28.25927734375,15.07568359375,-69.51904296875
2.0351381301879883,-1268436420,1,-0.1627156138420105,0.6847931742668152,0.7157001495361328,70.556640625,-10.3759765625,-68.9697265625
2.0593421459198,-1268436399,0,0.5250120759010315,0.6334804892539978,0.8544294834136963,188.53759765625,-89.9658203125,-131.7138671875
2.0762572288513184,-1268436401,1,-0.030635539442300797,1.0148712396621704,0.3421649932861328,106.38427734375,-50.048828125,-31.494140625
2.0762650966644287,-1268436382,1,-0.010127726942300797,0.9260041117668152,0.5152606964111328,86.9140625,-23.681640625,-7.4462890625
2.0878453254699707,-1268436380,0,0.3690062463283539,0.6923183798789978,0.7846052646636963,145.69091796875,-35.64453125,-76.11083984375
2.0879900455474854,-1268436361,0,0.4559203088283539,0.7684902548789978,0.6598494052886963,124.93896484375,-10.31494140625,-38.330078125
2.09502911567688,-1268436363,1,-0.018916789442300797,0.8071076273918152,0.5450458526611328,52.30712890625,-42.54150390625,22.4609375
2.125840187072754,-1268436344,1,0.0950968861579895,0.9499298930168152,0.4720478057861328,33.5693359375,-39.794921875,27.89306640625
2.1258480548858643,-1268436325,1,0.045780476182699203,0.7465607523918152,0.4910907745361328,43.27392578125,-20.99609375,20.93505859375
2.1475799083709717,-1268436342,0,0.1832152158021927,0.6010097861289978,0.6647322177886963,122.00927734375,5.126953125,-38.02490234375
2.147693157196045,-1268436323,0,0.3082152307033539,0.6840175986289978,0.6222517490386963,134.46044921875,-7.38525390625,-17.333984375
2.1488893032073975,-1268436304,0,0.4224730432033539,0.6932949423789978,0.6566755771636963,131.40869140625,-12.75634765625,-15.9912109375
2.154932975769043,-1268436306,1,0.044315632432699203,0.7814728617668152,0.4207782745361328,27.40478515625,-0.18310546875,4.33349609375
2.1777942180633545,-1268436285,0,0.5237913727760315,0.8497890830039978,0.7140486240386963,129.638671875,1.64794921875,-30.3955078125
2.1779351234436035,-1268436266,0,0.3401976525783539,0.8856777548789978,0.5397322177886963,79.833984375,23.86474609375,-39.306640625
2.188220977783203,-1268436287,1,0.0723918080329895,0.9050080180168152,0.3543720245361328,7.01904296875,-7.32421875,29.1748046875
2.1882309913635254,-1268436268,1,0.030155476182699203,0.8449494242668152,0.4974384307861328,14.22119140625,-10.1318359375,54.8095703125
2.2076430320739746,-1268436247,0,0.4432249963283539,0.9098476767539978,0.5556013584136963,59.08203125,6.89697265625,-67.07763671875
2.223241090774536,-1268436249,1,0.1270793080329895,0.8229767680168152,0.6043720245361328,-13.36669921875,-6.9580078125,90.27099609375
2.224055051803589,-1268436230,1,0.3197062611579895,0.5651642680168152,0.5721454620361328,-91.552734375,-21.78955078125,107.84912109375
2.2375519275665283,-1268436228,0,0.5865355134010315,1.1085782051086426,0.7462751865386963,28.50341796875,-3.72314453125,-79.89501953125
2.2741639614105225,-1268436192,0,0.2398558408021927,1.1410489082336426,0.7926619052886963,-134.521484375,128.96728515625,-77.7587890625
2.276362180709839,-1268436194,1,0.2970011830329895,0.6249787211418152,0.5421161651611328,-76.66015625,-44.43359375,89.35546875
2.276369094848633,-1268436175,1,0.4024699330329895,0.6342560648918152,0.5386981964111328,-56.70166015625,-21.42333984375,57.861328125
2.297791004180908,-1268436173,0,0.1436644345521927,0.7487148642539978,0.8993513584136963,-162.2314453125,149.5361328125,-108.154296875
2.2978920936584473,-1268436154,0,-0.5875367522239685,0.9237636923789978,0.2882673442363739,-228.515625,181.94580078125,-88.92822265625
2.305087089538574,-1268436156,1,0.4976847767829895,0.6691681742668152,0.6102313995361328,-53.3447265625,-0.732421875,23.49853515625
2.3276259899139404,-1268436135,0,-0.1292847841978073,0.7457851767539978,0.8825056552886963,-214.53857421875,127.3193359375,-104.79736328125
2.327726125717163,-1268436116,0,0.06505115330219269,0.4257168471813202,0.8480818271636963,-181.396484375,105.1025390625,-90.88134765625
2.3565032482147217,-1268436097,0,-0.4989136755466461,0.8712734580039978,0.6378767490386963,-99.609375,118.2861328125,-72.44873046875
2.373462200164795,-1268436137,1,0.5589640736579895,0.6523224711418152,0.8275165557861328,-48.7060546875,-13.24462890625,-17.578125
2.373469114303589,-1268436118,1,0.5335734486579895,0.7853791117668152,0.6544208526611328,-82.82470703125,-27.4658203125,-12.63427734375
2.3878211975097656,-1268436078,0,-0.039685171097517014,0.4591641128063202,0.9611189365386963,-72.6318359375,66.46728515625,-63.65966796875
2.387885093688965,-1268436059,0,-0.1383179873228073,0.4369473159313202,0.8873884677886963,-57.12890625,63.53759765625,-36.31591796875
2.39493989944458,-1268436099,1,0.4908488392829895,0.7551056742668152,0.6224384307861328,-89.111328125,-23.86474609375,23.5595703125
2.395031213760376,-1268436080,1,0.4288371205329895,0.5248810648918152,0.6427021026611328,-75.50048828125,-28.86962890625,29.96826171875
2.3963260650634766,-1268436061,1,0.5235636830329895,0.4806915819644928,0.7323017120361328,-54.3212890625,-6.34765625,-11.5966796875
2.4253718852996826,-1268436040,0,-0.0028199367225170135,0.5328945517539978,0.9183943271636963,-46.0205078125,32.71484375,-7.32421875
2.428287982940674,-1268436042,1,0.2188761830329895,0.8862091898918152,0.5936298370361328,-23.0712890625,-8.7890625,-23.8037109375
2.4479880332946777,-1268436021,0,-0.0057496242225170135,0.5868496298789978,0.8395369052886963,-20.01953125,-9.521484375,-20.93505859375
2.4481260776519775,-1268436002,0,0.06871326267719269,0.6078457236289978,0.8427107334136963,-23.62060546875,-27.89306640625,-32.5927734375
2.455348014831543,-1268436023,1,0.3538859486579895,0.8346955180168152,0.6724872589111328,-44.12841796875,-17.08984375,28.80859375
2.4554672241210938,-1268436004,1,0.2345011830329895,0.6706330180168152,0.7484149932861328,-36.1328125,-13.12255859375,44.921875
2.4776570796966553,-1268435983,0,0.030627328902482986,0.7819179892539978,0.7880232334136963,-54.87060546875,-11.77978515625,-45.34912109375
2.477755069732666,-1268435964,0,0.022082407027482986,0.6173672080039978,0.7474958896636963,-70.3125,-1.89208984375,-88.43994140625
2.484977960586548,-1268435985,1,0.2081339955329895,0.6618439555168152,0.7686786651611328,-32.40966796875,-16.845703125,45.7763671875
2.4850471019744873,-1268435966,1,0.1934855580329895,0.7111603617668152,0.7718524932861328,-39.85595703125,-3.5400390625,11.53564453125
2.5228700637817383,-1268435930,1,-0.0699421763420105,0.8901154398918152,1.0538349151611328,-21.91162109375,7.32421875,-19.71435546875
2.537626266479492,-1268435928,0,-0.08070079982280731,0.6095547080039978,0.9271833896636963,-71.4111328125,-21.1181640625,-92.28515625
2.537680149078369,-1268435909,0,-0.12293712794780731,0.5927090048789978,0.9503767490386963,-49.8046875,-38.87939453125,-82.763671875
2.544877052307129,-1268435911,1,-0.0723835825920105,0.8808380961418152,1.0550556182861328,-4.82177734375,11.16943359375,-8.1787109375
2.575468063354492,-1268435890,0,-0.1637086123228073,0.5504726767539978,0.9535505771636963,-40.4052734375,-68.54248046875,-54.443359375
2.5778520107269287,-1268435892,1,-0.1636921763420105,0.7692658305168152,0.9847431182861328,0.1220703125,11.8408203125,-15.44189453125
2.577860116958618,-1268435873,1,-0.3209187388420105,0.8866974711418152,1.0828876495361328,5.55419921875,13.00048828125,0.06103515625
2.59833025932312,-1268435871,0,-0.07069103419780731,0.5397304892539978,1.0575544834136963,-62.01171875,-58.7158203125,-31.8603515625
2.598397970199585,-1268435852,0,-0.10535900294780731,0.5858730673789978,1.1359236240386963,-99.67041015625,-16.05224609375,-13.5498046875
2.6050939559936523,-1268435854,1,-0.4256550669670105,0.8559357523918152,1.1815204620361328,19.71435546875,16.2353515625,46.56982421875
2.6569879055023193,-1268435833,0,-0.3280152380466461,0.5463222861289978,1.0389997959136963,-90.9423828125,-8.11767578125,-18.9208984375
2.6579511165618896,-1268435814,0,-0.2210816591978073,0.4923672378063202,1.0289900302886963,-82.275390625,-37.29248046875,-25.69580078125
2.659905195236206,-1268435795,0,-0.1810425966978073,0.4584316909313202,1.0363142490386963,-84.3505859375,-84.5947265625,-37.90283203125
2.6736340522766113,-1268435835,1,-0.3394734263420105,0.9181916117668152,1.2071552276611328,32.04345703125,28.50341796875,77.5146484375
2.6736409664154053,-1268435816,1,-0.2987019419670105,0.6835724711418152,1.2435321807861328,37.29248046875,37.41455078125,81.48193359375
2.6736462116241455,-1268435797,1,-0.2403523325920105,0.6867462992668152,1.2320575714111328,27.40478515625,38.0859375,66.5283203125
2.673650026321411,-1268435778,1,-0.1895710825920105,0.7136017680168152,1.2559833526611328,20.5078125,31.8603515625,65.91796875
2.687685966491699,-1268435776,0,-0.1402711123228073,0.3434414565563202,1.2140486240386963,-104.98046875,-110.65673828125,-81.48193359375
2.687819004058838,-1268435757,0,-0.08753673732280731,0.3429531753063202,1.5231306552886963,-132.87353515625,-75.927734375,-119.56787109375
2.694875955581665,-1268435759,1,-0.1165730357170105,0.6379181742668152,1.1490497589111328,46.0205078125,37.04833984375,85.75439453125
2.7240710258483887,-1268435738,0,-0.4229859411716461,0.184750035405159,1.4262068271636963,-127.86865234375,-6.65283203125,-129.57763671875
2.726078987121582,-1268435740,1,-0.017940226942300797,0.4780060350894928,1.0340595245361328,69.3359375,52.1240234375,88.43994140625
2.726085901260376,-1268435721,1,0.061649616807699203,0.3674103319644928,0.9478778839111328,72.75390625,62.07275390625,72.32666015625
2.750730037689209,-1268435719,0,-0.5677613615989685,0.119320347905159,1.4525740146636963,-111.6943359375,47.42431640625,-103.57666015625
2.7507410049438477,-1268435700,0,-0.6165894865989685,-0.019595663994550705,1.3727400302886963,-72.93701171875,38.87939453125,-64.39208984375
2.7551751136779785,-1268435702,1,0.1612589955329895,0.2768341600894928,0.8243427276611328,62.1337890625,72.32666015625,44.61669921875
2.7776479721069336,-1268435664,0,-0.5467652678489685,-0.014712851494550705,1.3639509677886963,12.0849609375,-59.5703125,47.54638671875
2.7850141525268555,-1268435666,1,0.2679484486579895,0.2055450975894928,0.7567157745361328,23.98681640625,66.5283203125,24.96337890625
2.807706117630005,-1268435645,0,-0.3448609411716461,0.239437535405159,1.2521345615386963,38.39111328125,-77.08740234375,67.44384765625
2.823056221008301,-1268435647,1,0.2872355580329895,0.1581818163394928,0.7652606964111328,18.37158203125,59.9365234375,42.78564453125
2.8376431465148926,-1268435626,0,-0.3316773474216461,0.182308629155159,1.1806013584136963,51.69677734375,-61.82861328125,71.59423828125
2.837790012359619,-1268435607,0,-0.3433960974216461,0.109066441655159,1.0985701084136963,67.32177734375,-46.630859375,53.7109375
2.8451831340789795,-1268435628,1,0.3392375111579895,0.0881134569644928,0.7908954620361328,21.97265625,60.85205078125,68.4814453125
2.845283269882202,-1268435609,1,0.3961222767829895,0.030252132564783096,0.7647724151611328,18.73779296875,65.61279296875,81.60400390625
2.874803066253662,-1268435588,0,-0.2559937536716461,0.116634801030159,1.0211775302886963,86.9140625,-52.91748046875,52.06298828125
2.8768362998962402,-1268435590,1,0.4979289174079895,0.035134945064783096,0.6905536651611328,6.8359375,69.27490234375,62.92724609375
2.8768441677093506,-1268435571,1,0.4705851674079895,0.0729767382144928,0.6917743682861328,-2.9296875,70.80078125,27.099609375
2.8977019786834717,-1268435569,0,-0.1419800966978073,0.173763707280159,1.0109236240386963,81.97021484375,-41.259765625,65.00244140625
2.897801160812378,-1268435550,0,-0.09974376857280731,0.243343785405159,0.9247419834136963,65.97900390625,-28.564453125,62.255859375
2.905189275741577,-1268435552,1,0.3851359486579895,0.1828400194644928,0.6883563995361328,-0.9765625,66.2841796875,14.34326171875
2.93015193939209,-1268435531,0,-0.08094494044780731,0.3356289565563202,0.8854353427886963,47.4853515625,-27.2216796875,33.50830078125
2.9355032444000244,-1268435533,1,0.3826945424079895,0.2204376757144928,0.6336688995361328,7.8125,58.4716796875,34.66796875
2.935596227645874,-1268435514,1,0.4581339955329895,0.2199493944644928,0.5921649932861328,2.9296875,51.33056640625,62.3779296875
2.957968235015869,-1268435512,0,-0.1278199404478073,0.3851895034313202,0.8781111240386963,16.2353515625,-13.24462890625,-13.18359375
2.959503173828125,-1268435493,0,-0.2242554873228073,0.3095059096813202,0.8510115146636963,0.67138671875,-7.50732421875,-32.16552734375
2.974853992462158,-1268435495,1,0.5518839955329895,0.1852814257144928,0.5997333526611328,-5.67626953125,50.9033203125,56.15234375
2.9877309799194336,-1268435474,0,-0.2755250036716461,0.175472691655159,0.8605329990386963,-5.06591796875,-19.1650390625,-22.3388671875
2.9878292083740234,-1268435455,0,-0.3411988317966461,0.118587926030159,0.9115583896636963,-8.11767578125,-28.01513671875,1.8310546875
2.9952361583709717,-1268435476,1,0.6021769642829895,0.2033478319644928,0.6163349151611328,-17.578125,50.048828125,23.92578125
2.99534010887146,-1268435457,1,0.5987589955329895,0.2761017382144928,0.6597919464111328,-22.27783203125,45.83740234375,-1.77001953125
3.027027130126953,-1268435436,0,-0.3082398474216461,0.232357457280159,0.9210798740386963,-16.17431640625,-29.9072265625,21.91162109375
3.0301740169525146,-1268435438,1,0.5611613392829895,0.3339630663394928,0.6871356964111328,-22.3388671875,41.32080078125,-3.96728515625
3.047600030899048,-1268435400,0,-0.3050660192966461,0.121029332280159,0.9987165927886963,-33.63037109375,-28.80859375,11.41357421875
3.0548439025878906,-1268435402,1,0.4813273549079895,0.4013458788394928,0.8094501495361328,-17.02880859375,31.982421875,-1.03759765625
3.077827215194702,-1268435381,0,-0.2447632998228073,0.070248082280159,1.0070173740386963,-39.1845703125,-25.87890625,10.19287109375
3.0861260890960693,-1268435383,1,0.4266398549079895,0.4701935350894928,0.8663349151611328,-15.56396484375,18.37158203125,-5.615234375
3.0862269401550293,-1268435364,1,0.3455851674079895,0.5312287211418152,0.8919696807861328,-8.4228515625,1.46484375,4.5166015625
3.1210601329803467,-1268435362,0,-0.2310914248228073,0.063656285405159,0.9872419834136963,-41.3818359375,-26.67236328125,24.71923828125
3.121068239212036,-1268435343,0,-0.1881226748228073,0.093929722905159,1.0360701084136963,-40.1611328125,-28.076171875,37.109375
3.123729944229126,-1268435345,1,0.2598918080329895,0.5607697367668152,0.9161396026611328,-1.64794921875,-7.32421875,25.146484375
3.140591859817505,-1268435324,0,-0.1361207216978073,0.107845738530159,1.0402204990386963,-37.29248046875,-33.203125,40.1611328125
3.1406021118164062,-1268435305,0,-0.07313244044780731,0.154720738530159,1.0075056552886963,-30.57861328125,-46.08154296875,40.71044921875
3.1459991931915283,-1268435326,1,0.2203410267829895,0.5700470805168152,0.8892841339111328,4.08935546875,-13.97705078125,42.3583984375
3.146027088165283,-1268435307,1,0.2120402455329895,0.6198517680168152,0.8358173370361328,3.0517578125,-27.16064453125,59.38720703125
3.1749091148376465,-1268435286,0,-0.016003530472517014,0.213802769780159,1.0626814365386963,-20.99609375,-59.26513671875,35.2783203125
3.177206039428711,-1268435288,1,0.1910441517829895,0.6789337992668152,0.8565692901611328,-6.591796875,-32.470703125,63.3544921875
3.1977832317352295,-1268435267,0,0.022082407027482986,0.2736172378063202,1.1132185459136963,-16.05224609375,-63.96484375,35.888671875
3.1978890895843506,-1268435248,0,0.08555896580219269,0.3126797378063202,1.0910017490386963,-23.25439453125,-32.8369140625,44.7998046875
3.2050681114196777,-1268435269,1,0.2117961049079895,0.6945587992668152,0.8892841339111328,-8.97216796875,-25.390625,62.19482421875
3.205156087875366,-1268435250,1,0.2349894642829895,0.7050568461418152,0.8831806182861328,-2.74658203125,-16.17431640625,63.04931640625
3.2301461696624756,-1268435229,0,0.09044177830219269,0.2999844253063202,1.1056501865386963,-32.5927734375,11.962890625,63.5986328125
3.2350220680236816,-1268435231,1,0.2852824330329895,0.6967560648918152,0.9176044464111328,5.615234375,-7.14111328125,63.29345703125
3.2351651191711426,-1268435212,1,0.3277629017829895,0.6535431742668152,0.9635028839111328,7.4462890625,-0.42724609375,65.5517578125
3.257982015609741,-1268435210,0,0.09825427830219269,0.2587246596813202,1.1659529209136963,-31.6162109375,46.32568359375,96.435546875
3.258070230484009,-1268435191,0,0.1934691220521927,0.3612637221813202,1.2367537021636963,-16.90673828125,45.10498046875,116.455078125
3.2734761238098145,-1268435193,1,0.4295695424079895,0.5658966898918152,1.0096454620361328,11.962890625,11.41357421875,71.77734375
3.2875800132751465,-1268435172,0,0.2515746057033539,0.3468594253063202,1.3046247959136963,-11.65771484375,49.98779296875,116.39404296875
3.2948732376098633,-1268435174,1,0.5299113392829895,0.4438263475894928,1.0286884307861328,20.01953125,24.59716796875,72.1435546875
3.3263392448425293,-1268435136,0,0.2874632775783539,0.3126797378063202,1.3505232334136963,0.79345703125,67.07763671875,82.21435546875
3.3286662101745605,-1268435138,1,0.6776164174079895,0.3014923632144928,1.0267353057861328,36.31591796875,41.68701171875,20.263671875
3.347860097885132,-1268435117,0,0.2574339807033539,0.3175625503063202,1.3566267490386963,-6.16455078125,60.9130859375,38.51318359375
3.3479621410369873,-1268435098,0,0.3511839807033539,0.218441441655159,1.2814314365386963,-2.62451171875,77.0263671875,36.4990234375
3.3578991889953613,-1268435119,1,0.6366007924079895,0.3029572069644928,0.9927997589111328,44.3115234375,37.65869140625,-13.48876953125
3.3579092025756836,-1268435100,1,0.5692179799079895,0.3505646288394928,0.9124774932861328,50.537109375,30.517578125,-39.12353515625
3.3784499168395996,-1268435079,0,0.3687621057033539,0.213802769780159,1.2274763584136963,8.9111328125,97.2900390625,36.62109375
3.3849611282348633,-1268435081,1,0.4937785267829895,0.4150177538394928,0.8077411651611328,50.6591796875,24.10888671875,-48.15673828125
3.3850700855255127,-1268435062,1,0.4595988392829895,0.4677521288394928,0.7652606964111328,44.189453125,18.73779296875,-45.654296875
3.4204161167144775,-1268435060,0,0.3030882775783539,0.2543301284313202,1.2492048740386963,11.16943359375,105.65185546875,27.7099609375
3.420423984527588,-1268435041,0,0.2969847619533539,0.2567715346813202,1.2030622959136963,5.7373046875,116.51611328125,18.310546875
3.423114061355591,-1268435043,1,0.4610636830329895,0.4994904100894928,0.6759052276611328,34.48486328125,16.17431640625,-43.27392578125
3.4375901222229004,-1268435022,0,0.2852660119533539,0.2748379409313202,1.1666853427886963,8.4228515625,115.1123046875,20.1416015625
3.445026159286499,-1268435024,1,0.4676554799079895,0.5422150492668152,0.6282978057861328,25.32958984375,15.869140625,-59.2041015625
3.4451310634613037,-1268435005,1,0.4180949330329895,0.5658966898918152,0.6763935089111328,16.7236328125,29.11376953125,-95.458984375
3.4747562408447266,-1268435003,0,0.2244749814271927,0.2894863784313202,1.1093122959136963,17.2119140625,99.2431640625,8.4228515625
3.4747631549835205,-1268434984,0,0.2029906064271927,0.2853359878063202,1.0612165927886963,22.76611328125,85.44921875,-5.0048828125
3.4768331050872803,-1268434986,1,0.3509562611579895,0.6142365336418152,0.7420673370361328,14.58740234375,40.95458984375,-107.421875
3.497715950012207,-1268434965,0,0.11802966892719269,0.210384801030159,1.0123884677886963,22.39990234375,70.00732421875,-16.66259765625
3.497826099395752,-1268434946,0,0.10801990330219269,0.167171910405159,0.9469587802886963,23.5595703125,58.4716796875,-17.333984375
3.5051872730255127,-1268434967,1,0.3497355580329895,0.5976349711418152,0.7406024932861328,21.91162109375,48.40087890625,-98.08349609375
3.505280017852783,-1268434948,1,0.3426554799079895,0.5226837992668152,0.7320575714111328,31.18896484375,50.29296875,-83.06884765625
3.5306150913238525,-1268434927,0,0.08409412205219269,0.163753941655159,0.9003279209136963,22.39990234375,45.71533203125,-20.8740234375
3.535757064819336,-1268434929,1,0.3568156361579895,0.4638458788394928,0.6964130401611328,36.68212890625,45.0439453125,-79.40673828125
3.5358850955963135,-1268434910,1,0.3033488392829895,0.4482208788394928,0.6510028839111328,41.93115234375,39.794921875,-93.32275390625
3.5712530612945557,-1268434908,0,0.08262927830219269,0.146175816655159,0.8817732334136963,13.5498046875,37.65869140625,-30.3955078125
3.587829113006592,-1268434872,0,0.07750232517719269,0.052425820380449295,0.8270857334136963,-6.28662109375,27.83203125,-39.4287109375
3.6237452030181885,-1268434853,0,0.08189685642719269,-0.007876913994550705,0.7709333896636963,-10.19287109375,31.43310546875,-30.2734375
3.6237540245056152,-1268434834,0,0.07261951267719269,-0.009341757744550705,0.7106306552886963,-16.9677734375,35.15625,-22.4609375
3.6257221698760986,-1268434874,1,0.1693156361579895,0.4557892382144928,0.5777606964111328,39.1845703125,27.2216796875,-98.0224609375
3.625728130340576,-1268434855,1,0.1231730580329895,0.4130646288394928,0.5167255401611328,36.43798828125,22.39990234375,-88.37890625
3.6258671283721924,-1268434836,1,0.0848429799079895,0.3637482225894928,0.4686298370361328,31.06689453125,18.6767578125,-88.56201171875
3.647693157196045,-1268434815,0,0.07115466892719269,-0.008365195244550705,0.7094099521636963,-33.50830078125,27.83203125,-25.69580078125
3.6477980613708496,-1268434796,0,0.058459360152482986,-0.057193320244550705,0.7828962802886963,-50.96435546875,22.76611328125,-37.17041015625
3.6552231311798096,-1268434817,1,0.0789836049079895,0.3449493944644928,0.4244403839111328,24.59716796875,23.5595703125,-105.712890625
3.6553361415863037,-1268434798,1,0.046024616807699203,0.3346954882144928,0.4237079620361328,14.95361328125,31.73828125,-119.140625
3.7068421840667725,-1268434777,0,0.040881235152482986,-0.061343710869550705,0.8007185459136963,-47.119140625,30.21240234375,-59.4482421875
3.709233045578003,-1268434758,0,-0.020398061722517014,-0.126285120844841,0.7958357334136963,-38.818359375,30.1513671875,-90.576171875
3.7209951877593994,-1268434739,0,0.025012094527482986,-0.131656214594841,0.8707869052886963,-41.50390625,1.40380859375,-86.48681640625
3.7218940258026123,-1268434779,1,0.043827351182699203,0.3014923632144928,0.4259052276611328,8.6669921875,33.203125,-116.63818359375
3.7226781845092773,-1268434760,1,0.0880168080329895,0.2790314257144928,0.4051532745361328,-0.06103515625,28.13720703125,-113.8916015625
3.722683906555176,-1268434741,1,0.1680949330329895,0.3056427538394928,0.3721942901611328,-14.6484375,15.625,-111.75537109375
3.7375922203063965,-1268434720,0,0.1285277158021927,-0.096011683344841,0.8956892490386963,-46.44775390625,-40.52734375,-67.81005859375
3.745706081390381,-1268434722,1,0.1715129017829895,0.3085724413394928,0.4075946807861328,-36.62109375,3.96728515625,-122.0703125
3.7457151412963867,-1268434703,1,0.0972941517829895,0.3022247850894928,0.4876728057861328,-61.58447265625,0.42724609375,-150.93994140625
3.774225950241089,-1268434701,0,0.06871326267719269,-0.033999960869550705,1.0394880771636963,-69.64111328125,-49.8046875,-55.35888671875
3.7742342948913574,-1268434682,0,0.07506091892719269,-0.017154257744550705,1.0863630771636963,-102.60009765625,-50.10986328125,-61.21826171875
3.7762162685394287,-1268434684,1,-0.014033976942300797,0.3381134569644928,0.5499286651611328,-75.439453125,2.8076171875,-191.40625
3.798126220703125,-1268434663,0,0.12486560642719269,0.001644570380449295,1.0267927646636963,-122.98583984375,-41.44287109375,-60.9130859375
3.7982311248779297,-1268434644,0,0.12291248142719269,0.052914101630449295,1.0170271396636963,-118.7744140625,-49.86572265625,-74.89013671875
3.8051910400390625,-1268434665,1,-0.060908976942300797,0.3935333788394928,0.5860614776611328,-77.1484375,-5.615234375,-199.76806640625
3.805251121520996,-1268434646,1,-0.014278117567300797,0.5031525492668152,0.5987567901611328,-73.6083984375,-35.7666015625,-169.98291015625
3.834036111831665,-1268434610,1,0.032841023057699203,0.2504669725894928,0.8092060089111328,-79.4677734375,-85.87646484375,-114.013671875
3.8578200340270996,-1268434608,0,0.2059202939271927,-0.036929648369550705,1.2306501865386963,-134.58251953125,-135.31494140625,-140.869140625
3.859575033187866,-1268434589,0,0.2081175595521927,-0.136539027094841,1.3226912021636963,-155.09033203125,-150.0244140625,-142.9443359375
3.8725922107696533,-1268434591,1,0.037967976182699203,0.1283966600894928,0.9818134307861328,-98.0224609375,-73.486328125,-141.78466796875
3.8878211975097656,-1268434570,0,0.2676878869533539,-0.128482386469841,1.4227888584136963,-144.6533203125,-152.587890625,-122.4365234375
3.8950002193450928,-1268434572,1,-0.0760456919670105,0.2475372850894928,1.1466083526611328,-102.294921875,-52.55126953125,-201.35498046875
3.895080089569092,-1268434553,1,-0.2725788950920105,0.2729279100894928,1.2086200714111328,-59.814453125,-39.794921875,-234.130859375
3.925678253173828,-1268434551,0,0.2637816369533539,-0.048160117119550705,1.5365583896636963,-143.1884765625,-161.865234375,-126.28173828125
3.9256861209869385,-1268434532,0,0.3548460900783539,-0.034976523369550705,1.6556990146636963,-175.29296875,-177.24609375,-165.58837890625
3.9468722343444824,-1268434513,0,0.4039183557033539,-0.205874964594841,1.8053572177886963,-213.37890625,-170.2880859375,-191.0400390625
3.947741985321045,-1268434494,0,0.2791624963283539,-0.2532382309436798,1.9110701084136963,-218.1396484375,-166.1376953125,-176.08642578125
3.955368995666504,-1268434534,1,-0.4156453013420105,0.2656036913394928,1.2960224151611328,-21.8505859375,-51.8798828125,-234.55810546875
3.9555320739746094,-1268434515,1,-0.4730183482170105,0.2358185350894928,1.4876728057861328,-14.34326171875,-74.76806640625,-216.85791015625
3.9555840492248535,-1268434496,1,-0.6788288950920105,0.2165314257144928,1.7823505401611328,-10.07080078125,-96.3134765625,-202.880859375
3.9797592163085938,-1268434475,0,0.1544066220521927,-0.200748011469841,2.1364119052886963,-172.30224609375,-177.42919921875,-135.07080078125
3.984858274459839,-1268434477,1,-0.8892781138420105,0.3254181444644928,1.8941669464111328,20.3857421875,-95.52001953125,-210.99853515625
4.007696151733398,-1268434456,0,0.12095935642719269,-0.148013636469841,2.3139021396636963,-122.13134765625,-200.5615234375,-119.93408203125
4.007821083068848,-1268434437,0,0.1768675595521927,-0.111392542719841,2.4533064365386963,-82.94677734375,-218.994140625,-114.74609375
4.0249669551849365,-1268434458,1,-0.9925495982170105,0.3227325975894928,1.7872333526611328,58.10546875,-75.62255859375,-207.6416015625
4.0249762535095215,-1268434439,1,-0.9981648325920105,0.3530060350894928,1.6888446807861328,95.8251953125,-60.11962890625,-169.0673828125
4.0378429889678955,-1268434418,0,0.2840453088283539,-0.168033167719841,2.5524275302886963,-47.18017578125,-222.22900390625,-111.6943359375
4.0454630851745605,-1268434420,1,-0.9923054575920105,0.2560822069644928,1.6038837432861328,117.0654296875,-59.08203125,-124.6337890625
4.045820951461792,-1268434401,1,-1.0186727046966553,0.1166779100894928,1.5726337432861328,124.1455078125,-69.82421875,-70.12939453125
4.076251983642578,-1268434399,0,0.3807249963283539,-0.2661776840686798,2.7074568271636963,12.5732421875,-205.99365234375,-120.2392578125
4.076261281967163,-1268434380,0,0.4844847619533539,-0.3535800278186798,2.8681013584136963,67.07763671875,-178.89404296875,-144.22607421875
4.077921152114868,-1268434382,1,-1.0301473140716553,0.1518341600894928,1.5570087432861328,117.85888671875,-72.8759765625,-42.66357421875
4.097632169723511,-1268434344,0,0.5010862946510315,-0.7617831826210022,2.8458845615386963,138.5498046875,-80.87158203125,-179.74853515625
4.1049110889434814,-1268434346,1,-0.7818562388420105,0.1364533007144928,1.4320087432861328,126.52587890625,-28.25927734375,13.3056640625
4.127535104751587,-1268434325,0,0.4879027307033539,-0.9854159951210022,2.7086775302886963,170.47119140625,-45.59326171875,-185.60791015625
4.135300159454346,-1268434327,1,-0.7130085825920105,0.0029083825647830963,1.3714618682861328,139.6484375,-19.1650390625,38.0859375
4.157639026641846,-1268434306,0,0.5267210602760315,-1.1182284355163574,2.6339704990386963,192.81005859375,-36.62109375,-190.49072265625
4.159326076507568,-1268434287,0,0.6888304352760315,-1.2820467948913574,2.6105329990386963,216.796875,-30.029296875,-209.8388671875
4.174333095550537,-1268434308,1,-0.6981160044670105,-0.055929508060216904,1.3004169464111328,139.0380859375,-35.33935546875,41.9921875
4.174341917037964,-1268434289,1,-0.6995808482170105,0.006082210689783096,1.1431903839111328,139.2822265625,-56.33544921875,50.537109375
4.187582969665527,-1268434268,0,0.8609495759010315,-1.4912753105163574,2.5983259677886963,237.12158203125,9.765625,-223.32763671875
4.195122003555298,-1268434270,1,-0.6934773325920105,0.043191585689783096,0.9603290557861328,135.3759765625,-58.65478515625,85.26611328125
4.195187091827393,-1268434251,1,-0.6116902232170105,0.058084163814783096,0.7567157745361328,128.41796875,-41.1376953125,118.408203125
4.224246025085449,-1268434249,0,1.0587035417556763,-1.7361483573913574,2.4877302646636963,255.31005859375,84.228515625,-241.5771484375
4.224252939224243,-1268434230,0,1.2361937761306763,-1.9299960136413574,2.3512556552886963,256.53076171875,142.822265625,-247.9248046875
4.226311922073364,-1268434232,1,-0.5699421763420105,0.0715118944644928,0.6834735870361328,113.8916015625,-25.0244140625,131.28662109375
4.247639179229736,-1268434211,0,1.4686156511306763,-2.0737948417663574,2.0585310459136963,260.25390625,201.96533203125,-223.20556640625
4.2549519538879395,-1268434213,1,-0.5006062388420105,0.2062775194644928,0.5821552276611328,89.35546875,-4.39453125,135.7421875
4.255016088485718,-1268434194,1,-0.4058796763420105,0.3053986132144928,0.5260028839111328,74.15771484375,29.541015625,148.86474609375
4.277669906616211,-1268434192,0,1.6107054948806763,-2.0986971855163574,1.7140486240386963,251.28173828125,236.87744140625,-180.60302734375
4.2777910232543945,-1268434173,0,1.7479125261306763,-2.1299471855163574,1.3710310459136963,234.19189453125,245.60546875,-127.86865234375
4.284889221191406,-1268434175,1,-0.2899128794670105,0.3095490038394928,0.5220966339111328,74.3408203125,72.69287109375,164.1845703125
4.30784797668457,-1268434154,0,1.8506957292556763,-2.1397128105163574,1.0177595615386963,241.39404296875,243.83544921875,-91.796875
4.307894229888916,-1268434135,0,1.9427367448806763,-2.1255526542663574,0.6156599521636963,286.68212890625,306.45751953125,-72.57080078125
4.325303077697754,-1268434156,1,-0.1815144419670105,0.2636505663394928,0.5428485870361328,71.4111328125,92.59033203125,174.072265625
4.325311183929443,-1268434137,1,0.011356648057699203,0.2324005663394928,0.5108661651611328,52.67333984375,92.95654296875,189.8193359375
4.337538242340088,-1268434116,0,1.7425414323806763,-1.8792147636413574,0.5062849521636963,325.68359375,324.8291015625,-28.38134765625
4.344973087310791,-1268434118,1,0.2049601674079895,0.1818634569644928,0.5018329620361328,28.50341796875,79.52880859375,192.19970703125
4.373650074005127,-1268434080,0,1.6685668230056763,-1.6091952323913574,0.1574079692363739,408.3251953125,285.64453125,34.1796875
4.375683069229126,-1268434082,1,0.3385050892829895,0.2182404100894928,0.4974384307861328,31.79931640625,82.8857421875,143.00537109375
4.397587060928345,-1268434061,0,1.5523558855056763,-1.5198397636413574,-0.0515763983130455,441.7724609375,252.99072265625,31.55517578125
4.405364036560059,-1268434063,1,0.3546183705329895,0.1396271288394928,0.3983173370361328,40.58837890625,119.62890625,135.92529296875
4.405431032180786,-1268434044,1,0.4937785267829895,0.0004669763147830963,0.2750263214111328,11.53564453125,193.17626953125,117.12646484375
4.427749156951904,-1268434042,0,1.3355590105056763,-1.4048495292663574,-0.3379533588886261,472.71728515625,199.27978515625,13.0615234375
4.427839040756226,-1268434023,0,1.0945922136306763,-1.4241366386413574,-0.5332658290863037,485.41259765625,129.57763671875,-1.89208984375
4.438295125961304,-1268434025,1,0.7061808705329895,0.0724884569644928,0.3895282745361328,-3.47900390625,302.30712890625,2.0751953125
4.471621990203857,-1268434004,0,0.9254027009010315,-1.3894686698913574,-0.6033341884613037,487.12158203125,54.8095703125,10.7421875
4.471630096435547,-1268433985,0,0.8597288727760315,-1.2901034355163574,-0.5068986415863037,461.48681640625,23.86474609375,3.7841796875
4.473436117172241,-1268434006,1,0.4981730580329895,0.5600373148918152,0.6446552276611328,-20.01953125,275.20751953125,-79.52880859375
4.473442077636719,-1268433987,1,0.3553507924079895,0.7709748148918152,0.7774677276611328,-70.49560546875,125.18310546875,26.611328125
4.487834215164185,-1268433966,0,0.8831663727760315,-1.2512850761413574,-0.4099748432636261,424.62158203125,27.64892578125,10.80322265625
4.495228052139282,-1268433968,1,0.4427531361579895,0.6242462992668152,0.6990985870361328,-80.38330078125,43.0908203125,99.12109375
4.5258660316467285,-1268433947,0,0.9134398102760315,-1.2925448417663574,-0.3870256245136261,411.07177734375,66.2841796875,52.490234375
4.525876998901367,-1268433928,0,0.9991331696510315,-1.3589510917663574,-0.3167131245136261,402.34375,102.96630859375,94.23828125
4.527674913406372,-1268433949,1,0.7015421986579895,0.5300080180168152,0.6583271026611328,-58.65478515625,51.6357421875,71.6552734375
4.527681112289429,-1268433930,1,0.9356730580329895,1.0905548334121704,1.1390399932861328,18.73779296875,76.5380859375,-55.96923828125
4.547698020935059,-1268433909,0,1.0862914323806763,-1.4089999198913574,-0.3240373432636261,402.34375,124.51171875,114.19677734375
4.555082082748413,-1268433911,1,-0.3243367075920105,1.2953888177871704,0.8690204620361328,-40.83251953125,20.20263671875,157.65380859375
4.555099010467529,-1268433892,1,-0.1268269419670105,1.0395294427871704,0.9630146026611328,-51.8798828125,-34.85107421875,223.44970703125
4.577932119369507,-1268433890,0,1.1780883073806763,-1.5154452323913574,-0.3679826557636261,422.119140625,116.76025390625,124.267578125
4.577980041503906,-1268433871,0,1.2283812761306763,-1.6048007011413574,-0.4719865620136261,448.73046875,88.134765625,128.72314453125
4.585036039352417,-1268433873,1,-0.4334675669670105,0.8490998148918152,0.7867450714111328,-13.61083984375,-17.76123046875,199.27978515625
4.611277103424072,-1268433852,0,1.0189086198806763,-1.7813143730163574,-0.6204240322113037,508.23974609375,-16.2353515625,111.75537109375
4.626759052276611,-1268433854,1,-0.7217976450920105,0.6237580180168152,0.6329364776611328,-10.68115234375,64.208984375,165.8935546875
4.637691020965576,-1268433816,0,1.2581664323806763,-1.9570956230163574,-0.3193986713886261,624.267578125,-160.64453125,80.9326171875
4.644942283630371,-1268433818,1,-1.0594441890716553,0.5973908305168152,0.5799579620361328,-16.78466796875,193.42041015625,141.90673828125
4.676700115203857,-1268433797,0,1.5552855730056763,-1.9766268730163574,-0.0247209295630455,576.171875,-41.68701171875,88.134765625
4.676709890365601,-1268433778,0,1.5113402605056763,-1.9505038261413574,0.0197126641869545,469.78759765625,81.4208984375,77.69775390625
4.678337097167969,-1268433799,1,-0.8008992075920105,0.4050079882144928,0.6724872589111328,-49.01123046875,183.7158203125,240.66162109375
4.678344011306763,-1268433780,1,-0.4561726450920105,0.2126251757144928,0.8197040557861328,-73.73046875,181.396484375,313.8427734375
4.697807312011719,-1268433759,0,1.4068480730056763,-2.0361971855163574,-0.2561662495136261,411.1328125,137.6953125,0.42724609375
4.705281019210815,-1268433761,1,-0.2247273325920105,0.0922638475894928,0.9720478057861328,-85.51025390625,180.84716796875,336.5478515625
4.7054290771484375,-1268433742,1,-0.0980183482170105,-0.047872867435216904,1.1910419464111328,-107.0556640625,172.79052734375,357.666015625
4.756920099258423,-1268433740,0,1.3611937761306763,-2.2471346855163574,-0.3411271870136261,391.78466796875,127.86865234375,-71.10595703125
4.769893169403076,-1268433721,0,1.3323851823806763,-2.4048495292663574,-0.2730119526386261,390.93017578125,52.490234375,-102.96630859375
4.769903182983398,-1268433702,0,1.4500609636306763,-2.5200839042663574,-0.3438127338886261,429.8095703125,-41.93115234375,-98.44970703125
4.769913196563721,-1268433683,0,2.1602659225463867,-2.8006014823913574,-0.7410295009613037,452.20947265625,-113.8916015625,-175.23193359375
4.771674871444702,-1268433723,1,-0.1114460825920105,-0.0871795117855072,1.4276142120361328,-139.5263671875,119.7509765625,408.14208984375
4.771681070327759,-1268433704,1,-0.055049601942300797,-0.036642398685216904,1.6365985870361328,-164.24560546875,9.765625,492.85888671875
4.77168607711792,-1268433685,1,0.022098835557699203,0.011697445064783096,1.8148212432861328,-141.2353515625,-85.75439453125,570.068359375
4.787844181060791,-1268433664,0,2.1392698287963867,-2.3535799980163574,-0.9822404384613037,333.31298828125,-54.13818359375,-261.65771484375
4.79512619972229,-1268433666,1,0.2047160267829895,0.035379085689783096,1.8397235870361328,-66.95556640625,-201.0498046875,641.9677734375
4.82468318939209,-1268433645,0,1.8065062761306763,-2.8938632011413574,-1.1406877040863037,71.96044921875,-31.1279296875,-376.15966796875
4.8246910572052,-1268433626,0,1.0408812761306763,-4.008365154266357,-1.2290666103363037,19.59228515625,-148.0712890625,-303.52783203125
4.8270111083984375,-1268433647,1,0.3223918080329895,-0.057882633060216904,1.8443622589111328,-1.220703125,-298.828125,670.22705078125
4.827024936676025,-1268433628,1,0.5941203236579895,-0.0757049024105072,1.6658954620361328,29.47998046875,-380.9814453125,675.23193359375
4.847656965255737,-1268433607,0,0.7144652009010315,-3.4002108573913574,-0.8269670009613037,176.025390625,-307.67822265625,-151.2451171875
4.8553900718688965,-1268433609,1,0.9752238392829895,-0.0825408399105072,1.6329364776611328,95.15380859375,-334.228515625,658.99658203125
4.855494976043701,-1268433590,1,1.1353800296783447,-0.2920134961605072,1.6873798370361328,290.46630859375,-93.26171875,581.11572265625
4.878046989440918,-1268433588,0,0.5704222321510315,-2.5115389823913574,-0.7110002040863037,201.59912109375,-365.234375,-128.7841796875
4.906665086746216,-1268433552,0,0.2391234189271927,-2.0176424980163574,-0.2974260151386261,-89.53857421875,-370.05615234375,-294.12841796875
4.923502206802368,-1268433554,1,1.1514933109283447,-0.8447478413581848,1.5599384307861328,437.68310546875,160.5224609375,337.09716796875
4.923509120941162,-1268433535,1,1.4432413578033447,-0.6186736226081848,1.3817157745361328,349.7314453125,4.69970703125,233.154296875
4.937722206115723,-1268433533,0,0.4329710900783539,-1.7351717948913574,0.3903181254863739,-166.259765625,-303.64990234375,-390.44189453125
4.937872886657715,-1268433514,0,0.1968870908021927,-1.2620272636413574,0.0963728204369545,-172.9736328125,-287.841796875,-398.37646484375
4.944886207580566,-1268433516,1,0.6873820424079895,-0.6699431538581848,0.9969501495361328,402.28271484375,22.39990234375,61.5234375
4.975499153137207,-1268433495,0,-0.2113160341978073,-0.8101230263710022,-0.5191056728363037,-160.7666015625,-483.94775390625,-325.62255859375
4.975511074066162,-1268433476,0,0.1839476376771927,-1.1006503105163574,-0.011049054563045502,-144.4091796875,-723.81591796875,-308.9599609375
4.97804594039917,-1268433497,1,0.1270793080329895,-0.5749724507331848,0.8380146026611328,464.2333984375,58.89892578125,19.10400390625
4.978053331375122,-1268433478,1,-0.042354289442300797,-0.5114958882331848,0.6204853057861328,465.4541015625,82.82470703125,15.56396484375
4.999835968017578,-1268433457,0,0.3155394494533539,-1.5957674980163574,1.1024763584136963,-188.53759765625,-754.82177734375,-258.1787109375
5.00513219833374,-1268433459,1,-0.2205769419670105,-0.3611052930355072,0.4451923370361328,341.9189453125,51.6357421875,56.640625
5.0052711963653564,-1268433440,1,-0.3807331919670105,-0.3759978711605072,0.2283954620361328,217.8955078125,20.1416015625,87.82958984375
5.027786016464233,-1268433438,0,-0.1634644716978073,-1.0532870292663574,1.3248884677886963,-181.33544921875,-579.89501953125,-101.74560546875
5.027904033660889,-1268433419,0,0.1319456845521927,-0.5452304482460022,1.1766951084136963,-169.5556640625,-521.728515625,47.8515625
5.034925222396851,-1268433421,1,-0.6326863169670105,-0.3823455274105072,0.09655953198671341,142.08984375,45.22705078125,75.68359375
5.057672023773193,-1268433400,0,0.8121214509010315,-0.179019495844841,1.1378767490386963,-184.87548828125,-511.5966796875,112.36572265625
5.0741331577301025,-1268433402,1,-0.4954792857170105,-0.4602263867855072,0.3543720245361328,141.6015625,75.25634765625,63.5986328125
5.074141025543213,-1268433383,1,-0.2957722544670105,-0.2099822461605072,0.5430927276611328,183.04443359375,99.30419921875,14.5263671875
5.0876312255859375,-1268433381,0,0.8951292634010315,0.003597695380449295,1.4164412021636963,-135.009765625,-363.76953125,154.6630859375
5.087733030319214,-1268433362,0,1.0037719011306763,0.4513516128063202,1.5438826084136963,-28.564453125,-127.86865234375,255.31005859375
5.095234155654907,-1268433364,1,-1.2906453609466553,0.8022248148918152,0.9522724151611328,119.07958984375,65.85693359375,187.68310546875
5.1256372928619385,-1268433343,0,1.4012328386306763,0.7636074423789978,1.1127302646636963,27.7099609375,51.81884765625,333.67919921875
5.125647306442261,-1268433324,0,1.5096312761306763,0.7633633017539978,0.3685896098613739,31.67724609375,187.98828125,362.48779296875
5.126092195510864,-1268433345,1,0.3892863392829895,-0.2785857617855072,0.4683856964111328,69.580078125,26.4892578125,-23.193359375
5.126097917556763,-1268433326,1,0.3455851674079895,-0.1013396680355072,0.5308856964111328,105.712890625,-7.01904296875,-136.8408203125
5.154006004333496,-1268433290,1,0.1019328236579895,0.3146759569644928,0.8363056182861328,-155.09033203125,-316.0400390625,-43.51806640625
5.180593967437744,-1268433288,0,1.4688597917556763,0.5751308798789978,-0.4534318745136261,68.7255859375,191.5283203125,315.85693359375
5.180603981018066,-1268433269,0,1.5057250261306763,0.4032559096813202,-0.4573381245136261,56.15234375,235.16845703125,324.0966796875
5.184990167617798,-1268433271,1,0.3133586049079895,0.4177033007144928,0.9879169464111328,-261.29150390625,-401.2451171875,61.95068359375
5.209164142608643,-1268433250,0,1.5457640886306763,0.199154332280159,-0.5415666103363037,79.1015625,270.1416015625,350.15869140625
5.2256200313568115,-1268433252,1,0.6290324330329895,0.3969513475894928,0.6773700714111328,-170.34912109375,-263.7939453125,62.31689453125
5.225629091262817,-1268433233,1,1.1449015140533447,0.7612091898918152,0.7786884307861328,-163.02490234375,-228.69873046875,70.49560546875
5.237816095352173,-1268433231,0,1.5176879167556763,-0.003482382744550705,-0.8093888759613037,125.79345703125,280.1513671875,345.03173828125
5.237874984741211,-1268433212,0,1.4153929948806763,-0.3447909653186798,-0.9771134853363037,176.26953125,272.4609375,331.4208984375
5.244807958602905,-1268433214,1,1.4237101078033447,0.7172638773918152,0.5108661651611328,-280.029296875,-370.30029296875,143.00537109375
5.276631116867065,-1268433193,0,1.4734984636306763,-0.6814609169960022,-0.8230607509613037,205.26123046875,288.57421875,337.70751953125
5.276638031005859,-1268433174,0,1.6768676042556763,-0.6511874794960022,-0.6599748134613037,218.26171875,351.9287109375,326.23291015625
5.2799670696258545,-1268433195,1,1.4657022953033447,0.9330841898918152,0.9932880401611328,-420.5322265625,-593.56689453125,219.23828125
5.279973983764648,-1268433176,1,2.2254679203033447,0.6760041117668152,0.1903095245361328,-142.4560546875,-483.33740234375,299.86572265625
5.297530174255371,-1268433155,0,1.8638793230056763,-0.5261874794960022,-0.8457658290863037,234.130859375,416.259765625,268.61572265625
5.304978132247925,-1268433157,1,2.5367472171783447,0.1440216600894928,-0.4100322723388672,-19.83642578125,-184.6923828125,200.01220703125
5.327878952026367,-1268433136,0,1.9034301042556763,-0.5152011513710022,-1.0943009853363037,267.08984375,447.20458984375,120.361328125
5.328026294708252,-1268433117,0,1.7105590105056763,-0.9912753701210022,-1.1611955165863037,314.94140625,414.306640625,-25.87890625
5.3352110385894775,-1268433138,1,2.6449015140533447,0.1371857225894928,-0.4598369598388672,-23.49853515625,-129.150390625,192.87109375
5.335334062576294,-1268433119,1,2.6685831546783447,0.005838070064783096,-0.8963603973388672,-87.158203125,-184.326171875,207.763671875
5.372910261154175,-1268433098,0,1.6234008073806763,-1.3862948417663574,-0.9231584072113037,363.1591796875,372.49755859375,-77.81982421875
5.374823093414307,-1268433100,1,2.3416788578033447,-0.2273162305355072,-1.1942119598388672,-27.2216796875,-108.88671875,175.1708984375
5.3891870975494385,-1268433079,0,1.6419554948806763,-1.4297518730163574,-0.5852677822113037,384.21630859375,356.8115234375,-84.47265625
5.389195203781128,-1268433060,0,1.8692504167556763,-1.0278964042663574,-0.6919572353363037,313.96484375,354.1259765625,-109.7412109375
5.395627021789551,-1268433081,1,1.8712198734283447,-0.3208220899105072,-1.1668682098388672,61.5234375,14.70947265625,135.55908203125
5.395690202713013,-1268433062,1,1.2132608890533447,-0.7392790913581848,-1.0233135223388672,52.42919921875,80.26123046875,145.08056640625
5.42412805557251,-1268433024,0,1.5367308855056763,-1.0559725761413574,-0.7730119228363037,149.5361328125,260.498046875,-229.98046875
5.42615008354187,-1268433026,1,0.5782511830329895,-0.9277556538581848,-1.3760967254638672,146.3623046875,38.2080078125,40.0390625
5.447690010070801,-1268433005,0,1.3345824480056763,-1.0562167167663574,-0.4360978901386261,154.96826171875,148.62060546875,-245.30029296875
5.455333948135376,-1268433007,1,0.059696491807699203,-0.9214079976081848,-1.2410869598388672,228.82080078125,104.98046875,-62.6220703125
5.478390216827393,-1268432986,0,1.2623168230056763,-0.9553866982460022,-0.4197404682636261,110.7177734375,107.2998046875,-232.60498046875
5.478399038314819,-1268432967,0,0.6443968415260315,-1.5012850761413574,-0.7256486415863037,-18.6767578125,78.91845703125,-198.05908203125
5.485013008117676,-1268432988,1,-0.6549031138420105,-1.0075896978378296,-0.9786357879638672,253.47900390625,142.51708984375,-35.58349609375
5.48511815071106,-1268432969,1,-0.6331745982170105,-1.0322479009628296,-0.7337627410888672,261.3525390625,182.67822265625,-83.0078125
5.509191989898682,-1268432948,0,0.6297484040260315,-0.7691074013710022,0.0956403985619545,76.47705078125,54.01611328125,-232.84912109375
5.524425983428955,-1268432950,1,-0.5025593638420105,-1.0371307134628296,-0.5552959442138672,262.63427734375,163.9404296875,-132.8125
5.524437189102173,-1268432931,1,-0.3275105357170105,-1.2348846197128296,-0.2593975067138672,255.43212890625,135.43701171875,-235.53466796875
5.537765264511108,-1268432929,0,0.2745238244533539,-0.8389316201210022,0.1954939067363739,42.236328125,96.13037109375,-240.966796875
5.537883043289185,-1268432910,0,0.2322874814271927,-0.6707187294960022,0.5289900302886963,7.568359375,143.49365234375,-261.65771484375
5.576536178588867,-1268432891,0,0.057238657027482986,-0.6819491982460022,0.7084333896636963,45.83740234375,131.34765625,-238.09814453125
5.579862117767334,-1268432912,1,-0.9664265513420105,-1.0676482915878296,0.08532906323671341,280.3955078125,155.21240234375,-302.24609375
5.579872131347656,-1268432893,1,-0.8091999888420105,-1.0537322759628296,0.4202899932861328,246.27685546875,200.50048828125,-376.708984375
5.579878091812134,-1268432874,1,-0.5967976450920105,-0.9902556538581848,0.7266864776611328,182.55615234375,176.57470703125,-431.0302734375
5.597846031188965,-1268432872,0,-0.027966421097517014,-0.3882479965686798,0.6017439365386963,21.3623046875,111.99951171875,-218.6279296875
5.59796404838562,-1268432853,0,-0.1720093935728073,-0.129947230219841,0.6364119052886963,-46.630859375,101.4404296875,-239.501953125
5.605170011520386,-1268432855,1,-0.5245320200920105,-0.9607146382331848,0.9630146026611328,154.78515625,148.25439453125,-498.59619140625
5.627763986587524,-1268432834,0,-0.2557496130466461,-0.131656214594841,1.1046736240386963,-41.748046875,102.35595703125,-254.94384765625
5.627887964248657,-1268432815,0,-0.057019155472517014,0.103451207280159,1.4943220615386963,-27.099609375,155.33447265625,-271.30126953125
5.634998083114624,-1268432836,1,-0.7308308482170105,-0.7961638569831848,1.2574481964111328,108.88671875,109.7412109375,-574.76806640625
5.635085105895996,-1268432817,1,-0.9298054575920105,-0.6135466694831848,1.5213642120361328,18.24951171875,47.30224609375,-585.205078125
5.657629013061523,-1268432796,0,0.1429320126771927,0.3849453628063202,1.4298689365386963,-33.26416015625,206.48193359375,-296.93603515625
5.672563076019287,-1268432798,1,-0.9661824107170105,-0.4389861524105072,1.6951923370361328,-85.0830078125,-7.75146484375,-602.05078125
5.687803030014038,-1268432760,0,0.3973265588283539,0.4559902846813202,1.3236677646636963,8.36181640625,215.39306640625,-377.197265625
5.6952619552612305,-1268432762,1,-1.3343465328216553,-0.2231658399105072,2.024293899536133,-89.84375,-76.2939453125,-641.357421875
5.723854064941406,-1268432741,0,0.4727660119533539,0.4835781753063202,1.2018415927886963,2.50244140625,238.4033203125,-406.55517578125
5.725881099700928,-1268432743,1,-1.4634969234466553,-0.1123259961605072,2.067750930786133,-59.63134765625,-115.6005859375,-581.11572265625
5.725888013839722,-1268432724,1,-1.3055379390716553,0.039285335689783096,2.071901321411133,21.97265625,-110.65673828125,-542.54150390625
5.748536109924316,-1268432722,0,0.5787230134010315,0.5180019736289978,0.9872419834136963,4.39453125,222.35107421875,-451.96533203125
5.748619079589844,-1268432703,0,0.6710081696510315,0.3055996596813202,0.9354841709136963,-10.55908203125,172.36328125,-493.46923828125
5.754883289337158,-1268432705,1,-1.6776082515716553,0.3715607225894928,1.9617938995361328,132.080078125,-99.365234375,-603.8818359375
5.80692720413208,-1268432684,0,0.4612914025783539,0.3788418471813202,0.9662458896636963,-28.01513671875,99.06005859375,-490.41748046875
5.81937313079834,-1268432665,0,0.2718382775783539,0.5114101767539978,1.1202986240386963,-25.7568359375,15.7470703125,-484.86328125
5.819383144378662,-1268432646,0,0.3033324182033539,0.5907558798789978,1.3634626865386963,-23.5595703125,-52.001953125,-492.1875
5.821198225021362,-1268432686,1,-2.1602742671966553,0.6403595805168152,1.8682880401611328,156.67724609375,-129.7607421875,-569.51904296875
5.821205139160156,-1268432667,1,-2.0821492671966553,0.6960236430168152,1.8922138214111328,99.7314453125,-190.73486328125,-442.56591796875
5.821210861206055,-1268432648,1,-1.7498738765716553,0.5641877055168152,1.8983173370361328,39.36767578125,-271.05712890625,-355.8349609375
5.821216106414795,-1268432629,1,-1.8817098140716553,0.2184845507144928,1.7122821807861328,41.1376953125,-278.86962890625,-457.763671875
5.837830066680908,-1268432627,0,0.3904906213283539,0.5939297080039978,1.4701521396636963,-50.84228515625,-47.2412109375,-533.203125
5.837915897369385,-1268432608,0,0.4354124963283539,0.3690762221813202,1.5001814365386963,-103.515625,16.11328125,-604.00390625
5.84498405456543,-1268432610,1,-2.3006551265716553,0.050759945064783096,1.6678485870361328,35.64453125,-239.74609375,-535.46142578125
5.876599073410034,-1268432589,0,0.2320433408021927,0.038265664130449295,1.5277693271636963,-141.2353515625,87.09716796875,-642.4560546875
5.877043962478638,-1268432591,1,-2.4356648921966553,-0.022726383060216904,1.7264423370361328,23.49853515625,-231.75048828125,-501.15966796875
5.877050876617432,-1268432572,1,-2.4154012203216553,-0.0915740430355072,1.5907001495361328,38.51318359375,-219.29931640625,-439.88037109375
5.897669315338135,-1268432570,0,-0.2821168005466461,-0.167300745844841,1.4118025302886963,-155.76171875,137.26806640625,-620.849609375
5.897767066955566,-1268432551,0,-0.6268433928489685,-0.4524569809436798,1.4169294834136963,-118.71337890625,76.66015625,-552.18505859375
5.904818058013916,-1268432553,1,-2.5714070796966553,-0.1987517774105072,1.0631122589111328,70.068359375,-166.32080078125,-390.625
5.927863121032715,-1268432532,0,-0.7874879240989685,-0.4868808090686798,1.1854841709136963,-75.927734375,-64.75830078125,-517.27294921875
5.934873104095459,-1268432534,1,-2.2720906734466553,-0.4778045117855072,0.5391864776611328,46.9970703125,-124.0234375,-359.55810546875
5.957627058029175,-1268432496,0,-0.5640992522239685,-0.5855136513710022,1.1300642490386963,-119.5068359375,-271.91162109375,-455.38330078125
5.972693204879761,-1268432498,1,-1.5386922359466553,0.1491486132144928,0.6055927276611328,186.1572265625,-9.33837890625,-392.76123046875
5.988089084625244,-1268432477,0,-0.2103394716978073,-0.6121249794960022,1.4518415927886963,-165.95458984375,-265.31982421875,-461.48681640625
5.98820424079895,-1268432458,0,-0.12293712794780731,-1.0144686698913574,1.6771833896636963,-121.09375,-81.0546875,-506.2255859375
5.995066165924072,-1268432479,1,-2.3104207515716553,-0.5022185444831848,-0.3873271942138672,154.60205078125,109.86328125,-247.13134765625
5.995146036148071,-1268432460,1,-1.7833211421966553,0.2211700975894928,-0.1551494598388672,237.79296875,143.85986328125,-185.48583984375
6.0238261222839355,-1268432439,0,-0.2196168154478073,-1.1348299980163574,1.1862165927886963,-80.74951171875,145.08056640625,-479.06494140625
6.025886058807373,-1268432441,1,-1.6444051265716553,0.3354279100894928,-0.06945609301328659,208.19091796875,121.826171875,-34.3017578125
6.025895118713379,-1268432422,1,-1.1832234859466553,-0.1714080274105072,-0.2828350067138672,141.845703125,191.89453125,-1.953125
6.0476438999176025,-1268432420,0,-0.1456422060728073,-0.9236484169960022,0.5912458896636963,-89.35546875,222.10693359375,-407.3486328125
6.047775030136108,-1268432401,0,0.1846800595521927,-0.8899570107460022,0.1613142192363739,-71.6552734375,195.6787109375,-368.46923828125
6.0549352169036865,-1268432403,1,-1.2203328609466553,0.040750179439783096,-0.03698538988828659,170.8984375,248.4130859375,13.12255859375
6.077402114868164,-1268432382,0,0.3250609338283539,-0.7576327919960022,-0.011781476438045502,-4.45556640625,152.16064453125,-380.18798828125
6.085324048995972,-1268432384,1,-1.3885457515716553,0.054177913814783096,0.08752632886171341,141.7236328125,238.8916015625,148.98681640625
6.0854668617248535,-1268432365,1,-1.1539266109466553,-0.2566131055355072,-0.1458721160888672,114.2578125,200.439453125,265.56396484375
6.121490001678467,-1268432363,0,0.4727660119533539,-0.5894199013710022,0.0326521173119545,73.6083984375,129.57763671875,-364.990234375
6.121499061584473,-1268432344,0,0.6846800446510315,-0.4365878403186798,0.1014997735619545,112.548828125,142.02880859375,-340.576171875
6.124181032180786,-1268432346,1,-0.9234578013420105,-0.4646209180355072,-0.3646221160888672,81.35986328125,214.29443359375,292.3583984375
6.137791156768799,-1268432325,0,0.8836546540260315,-0.3054843246936798,0.0966169610619545,83.740234375,144.95849609375,-351.13525390625
6.137895107269287,-1268432306,0,0.9503050446510315,-0.6397128701210022,0.4879743754863739,51.3916015625,104.30908203125,-316.34521484375
6.145004034042358,-1268432327,1,-0.6654011607170105,-0.6425994038581848,-0.3565654754638672,75.439453125,263.36669921875,272.0947265625
6.1451640129089355,-1268432308,1,-0.4515339732170105,-0.5825408101081848,-0.09899710863828659,57.80029296875,285.64453125,235.595703125
6.175626993179321,-1268432287,0,0.6421995759010315,-0.7752109169960022,0.9054548740386963,90.63720703125,90.02685546875,-227.6611328125
6.178998231887817,-1268432289,1,-0.3729206919670105,-0.6396697163581848,0.2003192901611328,34.48486328125,316.34521484375,199.21875
6.179006099700928,-1268432270,1,-0.2117878794670105,-0.7302458882331848,0.5362567901611328,7.50732421875,318.66455078125,162.7197265625
6.197508096694946,-1268432268,0,0.6790648102760315,-0.7312656044960022,1.0726912021636963,122.6806640625,98.08349609375,-154.1748046875
6.231695175170898,-1268432232,0,0.5294066071510315,-0.4768710434436798,1.0326521396636963,128.35693359375,110.83984375,-43.88427734375
6.2354490756988525,-1268432234,1,0.3585246205329895,-0.6689665913581848,0.9403095245361328,-65.0634765625,233.09326171875,35.46142578125
6.235887289047241,-1268432215,1,0.1265910267829895,-0.3786834180355072,1.1358661651611328,-71.10595703125,162.7197265625,-48.15673828125
6.2580602169036865,-1268432213,0,0.4007445275783539,-0.3269686996936798,1.1095564365386963,145.263671875,40.34423828125,-41.80908203125
6.259674310684204,-1268432194,0,0.3350706994533539,-0.3223300278186798,1.4135115146636963,145.44677734375,-15.93017578125,-36.68212890625
6.27456521987915,-1268432196,1,-0.0804402232170105,-0.2082732617855072,1.0921649932861328,-91.552734375,125.9765625,-85.87646484375
6.288000106811523,-1268432175,0,0.2098265439271927,-0.3091464340686798,1.5326521396636963,159.0576171875,-39.61181640625,0.6103515625
6.2880589962005615,-1268432156,0,0.1251097470521927,-0.2839999496936798,1.6329939365386963,147.39990234375,-20.263671875,58.04443359375
6.297863960266113,-1268432177,1,-0.2178913950920105,-0.0864470899105072,1.0760517120361328,-118.896484375,85.14404296875,-103.1494140625
6.297873020172119,-1268432158,1,-0.2757527232170105,0.0651642382144928,1.1812763214111328,-112.48779296875,39.48974609375,-97.71728515625
6.32445502281189,-1268432137,0,-0.0006226710975170135,-0.2874179184436798,1.6962263584136963,126.03759765625,15.7470703125,119.384765625
6.326556921005249,-1268432139,1,-0.2789265513420105,0.009011898189783096,1.2698993682861328,-131.89697265625,-7.87353515625,-108.154296875
6.326565980911255,-1268432120,1,-0.3404499888420105,0.044168148189783096,1.4337177276611328,-149.5361328125,-55.2978515625,-117.67578125
6.347677946090698,-1268432118,0,-0.09876720607280731,-0.212466761469841,1.5507185459136963,97.2900390625,13.0615234375,152.64892578125
6.3479321002960205,-1268432099,0,-0.3958863317966461,-0.2612948715686798,1.5897810459136963,106.62841796875,-25.20751953125,158.69140625
6.354921102523804,-1268432101,1,-0.5245320200920105,0.2118927538394928,1.5401630401611328,-167.90771484375,-120.7275390625,-149.2919921875
6.3775482177734375,-1268432080,0,-0.6781129240989685,0.085140660405159,1.4474470615386963,143.12744140625,-59.326171875,171.0205078125
6.384988069534302,-1268432082,1,-0.8802449107170105,0.1955353319644928,1.6588153839111328,-174.4384765625,-172.91259765625,-175.78125
6.409314155578613,-1268432061,0,-0.8204469084739685,0.3720059096813202,1.0941755771636963,151.2451171875,-56.396484375,198.974609375
6.420650005340576,-1268432042,0,-0.7581910490989685,0.8519863486289978,0.9249861240386963,73.974609375,-82.6416015625,216.6748046875
6.423297166824341,-1268432063,1,-1.0367391109466553,0.2299591600894928,1.6375751495361328,-178.52783203125,-212.82958984375,-184.26513671875
6.423305988311768,-1268432044,1,-1.1500203609466553,0.1872345507144928,1.6380634307861328,-173.88916015625,-238.83056640625,-175.78125
6.43771505355835,-1268432023,0,-0.7804078459739685,0.8510097861289978,1.1998884677886963,-46.69189453125,-187.1337890625,108.642578125
6.437843084335327,-1268432004,0,-0.5794801115989685,0.5971035361289978,1.7135603427886963,-152.03857421875,-257.62939453125,12.14599609375
6.44519305229187,-1268432025,1,-1.2320516109466553,0.059060726314783096,1.5567646026611328,-153.6865234375,-276.85546875,-196.22802734375
6.445258140563965,-1268432006,1,-1.2657430171966553,-0.1443084180355072,1.5191669464111328,-137.5732421875,-300.9033203125,-231.01806640625
6.4789719581604,-1268431970,1,-1.3863484859466553,-0.0822966992855072,1.8092060089111328,-91.24755859375,-316.46728515625,-263.73291015625
6.4977500438690186,-1268431968,0,-0.8075074553489685,0.2860684096813202,2.4208357334136963,-14.70947265625,-180.84716796875,3.41796875
6.497853994369507,-1268431949,0,-0.9898805022239685,0.2792324721813202,2.4042341709136963,109.9853515625,-226.6845703125,14.34326171875
6.504893064498901,-1268431951,1,-1.7137410640716553,0.010476741939783096,1.8724384307861328,-1.77001953125,-315.73486328125,-255.06591796875
6.530686140060425,-1268431930,0,-1.0096558332443237,0.2802090346813202,2.4616072177886963,88.0126953125,-218.75,23.86474609375
6.535293102264404,-1268431932,1,-1.8182332515716553,-0.0945037305355072,1.8492450714111328,40.71044921875,-312.3779296875,-224.12109375
6.535451889038086,-1268431913,1,-1.6326863765716553,-0.023458804935216904,1.6341571807861328,60.791015625,-333.0078125,-175.9033203125
6.557797193527222,-1268431911,0,-1.0169800519943237,0.128353551030159,2.4774763584136963,54.8095703125,-160.64453125,8.4228515625
6.55785608291626,-1268431892,0,-1.2591675519943237,-0.194888636469841,2.1788923740386963,86.42578125,-107.23876953125,21.484375
6.574702262878418,-1268431894,1,-1.4212605953216553,0.1071564257144928,1.5548114776611328,93.6279296875,-325.86669921875,-130.92041015625
6.588208913803101,-1268431873,0,-1.3192261457443237,-0.220767542719841,1.7279646396636963,108.58154296875,-108.70361328125,32.470703125
6.588344097137451,-1268431854,0,-1.3206909894943237,-0.4138827621936798,1.4711287021636963,66.89453125,-87.0361328125,17.39501953125
6.595018148422241,-1268431875,1,-1.5706746578216553,0.0795685350894928,1.2579364776611328,128.84521484375,-222.96142578125,-92.59033203125
6.595035076141357,-1268431856,1,-1.3968465328216553,-0.008077945560216904,1.3533954620361328,141.78466796875,-186.279296875,-78.30810546875
6.6240150928497314,-1268431835,0,-1.2257202863693237,-0.5947909951210022,1.3090193271636963,53.64990234375,-61.95068359375,6.16455078125
6.6262030601501465,-1268431837,1,-1.4190633296966553,0.023660335689783096,1.3677997589111328,170.59326171875,-201.0498046875,-77.57568359375
6.647754192352295,-1268431816,0,-1.1541870832443237,-0.8526034951210022,0.8961775302886963,66.2841796875,-53.40576171875,23.49853515625
6.647841215133667,-1268431797,0,-1.0035523176193237,-1.0469393730163574,0.3480817973613739,80.74951171875,-97.10693359375,33.8134765625
6.654997110366821,-1268431818,1,-1.3863484859466553,0.1779572069644928,1.1126728057861328,140.19775390625,-247.61962890625,-19.83642578125
6.655079126358032,-1268431799,1,-1.1077840328216553,0.1520783007144928,0.8179950714111328,140.80810546875,-210.02197265625,30.6396484375
6.6776111125946045,-1268431778,0,-0.7144898772239685,-0.9937167763710022,0.3209821879863739,118.408203125,-125.54931640625,29.23583984375
6.687221050262451,-1268431780,1,-0.9114949107170105,-0.043478336185216904,0.7869892120361328,173.88916015625,-130.7373046875,26.91650390625
6.687231063842773,-1268431761,1,-0.6971394419670105,-0.039816226810216904,0.8692646026611328,179.50439453125,-98.6328125,7.75146484375
6.721343040466309,-1268431759,0,-0.5369996428489685,-0.9483066201210022,-0.1897599995136261,116.8212890625,-146.1181640625,36.1328125
6.721353054046631,-1268431740,0,-0.2950562536716461,-0.9885898232460022,-0.1663224995136261,122.61962890625,-165.771484375,73.974609375
6.7231690883636475,-1268431742,1,-0.4637410044670105,-0.0793670117855072,0.8304462432861328,185.1806640625,-83.8623046875,-27.4658203125
6.737729072570801,-1268431704,0,0.3499632775783539,-1.1138339042663574,-0.4678361713886261,180.35888671875,-240.53955078125,162.2314453125
6.745126962661743,-1268431706,1,-0.5745808482170105,0.0790802538394928,0.5750751495361328,145.8740234375,-28.38134765625,30.33447265625
6.774346113204956,-1268431685,0,0.7779417634010315,-1.2276034355163574,-0.0606096014380455,193.29833984375,-327.20947265625,165.58837890625
6.776645183563232,-1268431687,1,-0.3865925669670105,0.059304866939783096,0.7525653839111328,143.5546875,7.38525390625,66.162109375
6.797727108001709,-1268431666,0,1.0567504167556763,-1.1734042167663574,0.0231306329369545,298.828125,-382.568359375,133.48388671875
6.797842025756836,-1268431647,0,1.1314574480056763,-1.1565585136413574,-0.1797502338886261,421.38671875,-460.8154296875,108.0322265625
6.804960012435913,-1268431668,1,-0.2586628794670105,0.1613556444644928,0.8673114776611328,122.314453125,-20.56884765625,110.7177734375
6.805025100708008,-1268431649,1,-0.1605183482170105,0.2062775194644928,0.9168720245361328,120.7275390625,-47.2412109375,123.6572265625
6.860350131988525,-1268431628,0,1.3145629167556763,-1.1282382011413574,-0.5059220790863037,534.3017578125,-583.31298828125,113.58642578125
6.860367298126221,-1268431609,0,1.5325804948806763,-1.1372714042663574,-0.8189103603363037,609.619140625,-699.52392578125,98.32763671875
6.875088214874268,-1268431630,1,-0.1527058482170105,0.3386017382144928,0.8975849151611328,143.310546875,-55.23681640625,144.22607421875
6.8750951290130615,-1268431611,1,-0.1712605357170105,0.2890411913394928,0.9168720245361328,130.0048828125,-39.97802734375,183.10546875
6.8750998973846436,-1268431592,1,-0.0660359263420105,0.3454376757144928,0.9801044464111328,120.849609375,-27.77099609375,238.22021484375
6.88783597946167,-1268431590,0,1.6067992448806763,-1.0117831230163574,-0.7202775478363037,606.50634765625,-767.9443359375,94.78759765625
6.887969017028809,-1268431571,0,1.7933226823806763,-0.8137851357460022,-0.5335099697113037,539.1845703125,-762.14599609375,77.69775390625
6.895060062408447,-1268431573,1,-0.0733601450920105,0.4555450975894928,1.0201435089111328,123.59619140625,-30.6396484375,258.23974609375
6.895195960998535,-1268431554,1,-0.1436726450920105,0.5182892680168152,1.0296649932861328,139.70947265625,-36.1328125,296.93603515625
6.925401210784912,-1268431552,0,1.9954711198806763,-0.6870761513710022,-0.4385392963886261,513.85498046875,-671.7529296875,9.33837890625
6.9254090785980225,-1268431533,0,1.9219847917556763,-0.9046054482460022,-0.1699846088886261,491.8212890625,-500.48828125,-85.26611328125
6.946764230728149,-1268431514,0,1.7657347917556763,-1.3086581230163574,-0.0310685858130455,452.08740234375,-338.80615234375,-129.45556640625
6.9476659297943115,-1268431495,0,1.3887816667556763,-1.6863436698913574,0.011900164186954498,368.896484375,-148.3154296875,-148.193359375
6.955397129058838,-1268431535,1,-0.1319538950920105,0.4919220507144928,0.9920673370361328,165.771484375,-51.7578125,355.28564453125
6.955524206161499,-1268431516,1,0.008426960557699203,0.2804962694644928,0.8870868682861328,162.4755859375,-55.2978515625,399.84130859375
6.955607175827026,-1268431497,1,0.2137492299079895,0.1782013475894928,0.8023700714111328,144.22607421875,-34.66796875,389.2822265625
6.9775800704956055,-1268431476,0,1.0831176042556763,-1.9881014823913574,-0.2483537495136261,319.091796875,-64.697265625,-175.048828125
6.984884023666382,-1268431478,1,0.3866007924079895,0.1540314257144928,0.8109149932861328,153.13720703125,33.26416015625,320.73974609375
7.00749397277832,-1268431440,0,0.8126097321510315,-2.2315096855163574,-0.2612932026386261,382.8125,-145.20263671875,-264.95361328125
7.023422002792358,-1268431442,1,0.4630168080329895,0.2087189257144928,1.0762958526611328,192.138671875,96.435546875,332.1533203125
7.037477970123291,-1268431421,0,0.7491331696510315,-2.2307772636413574,-0.0376603826880455,369.873046875,-168.64013671875,-282.40966796875
7.0451741218566895,-1268431423,1,0.7640421986579895,0.1342560350894928,1.1497821807861328,191.83349609375,84.228515625,348.7548828125
7.045190095901489,-1268431404,1,1.0389444828033447,0.0978790819644928,1.1846942901611328,175.6591796875,73.79150390625,308.41064453125
7.075433015823364,-1268431402,0,0.6712523102760315,-2.2920565605163574,0.0912458673119545,296.69189453125,-130.9814453125,-275.69580078125
7.077155113220215,-1268431383,0,0.7322874665260315,-2.2881503105163574,0.0009138360619544983,222.16796875,-55.5419921875,-275.57373046875
7.077259063720703,-1268431385,1,1.0765421390533447,0.2343536913394928,1.2635517120361328,191.0400390625,83.740234375,265.0146484375
7.097965240478516,-1268431364,0,0.7957640290260315,-2.2429842948913574,-0.0747697576880455,193.05419921875,7.8125,-327.2705078125
7.098076105117798,-1268431345,0,0.8084593415260315,-2.1873202323913574,-0.1660783588886261,196.1669921875,33.3251953125,-376.15966796875
7.105072021484375,-1268431366,1,0.9034464955329895,0.3903595507144928,1.2779560089111328,222.59521484375,92.46826171875,283.5693359375
7.105313062667847,-1268431347,1,0.7857707142829895,0.1933380663394928,1.0953388214111328,209.5947265625,54.0771484375,370.60546875
7.1277382373809814,-1268431326,0,0.7220335602760315,-2.2366366386413574,-0.3660295307636261,163.51318359375,52.3681640625,-392.822265625
7.13485312461853,-1268431328,1,0.9669230580329895,-0.1650603711605072,0.8424091339111328,164.6728515625,19.71435546875,398.86474609375
7.171753168106079,-1268431307,0,0.3563109338283539,-2.3484530448913574,-0.6660783290863037,124.1455078125,46.69189453125,-342.041015625
7.1717610359191895,-1268431288,0,0.024035532027482986,-2.1187167167663574,-0.7832658290863037,178.28369140625,-28.38134765625,-259.09423828125
7.175157070159912,-1268431309,1,0.9896281361579895,-0.2929900586605072,0.7625751495361328,187.255859375,44.7998046875,311.1572265625
7.17516303062439,-1268431290,1,0.8006632924079895,-0.5058806538581848,0.5382099151611328,241.0888671875,118.7744140625,218.20068359375
7.187734127044678,-1268431269,0,0.09044177830219269,-1.6443514823913574,-0.7105119228363037,210.693359375,-67.3828125,-227.9052734375
7.195002317428589,-1268431271,1,0.6009562611579895,-0.3113006055355072,0.6502704620361328,274.59716796875,173.095703125,187.8662109375
7.195077180862427,-1268431252,1,0.5904582142829895,-0.1530974805355072,0.7220478057861328,198.79150390625,96.13037109375,263.48876953125
7.226745128631592,-1268431250,0,0.2781859338283539,-1.2327303886413574,-0.6878068447113037,170.5322265625,-79.65087890625,-236.99951171875
7.227643966674805,-1268431231,0,0.5535765290260315,-0.9990878701210022,-0.2781389057636261,42.66357421875,-78.79638671875,-306.45751953125
7.230084180831909,-1268431233,1,0.9510539174079895,0.028543148189783096,0.7645282745361328,172.42431640625,25.57373046875,226.4404296875
7.248593091964722,-1268431212,0,0.6170530915260315,-1.0281405448913574,-0.1145646795630455,-31.79931640625,-26.123046875,-356.93359375
7.254979133605957,-1268431214,1,0.7244914174079895,0.054910335689783096,0.7364521026611328,197.75390625,38.14697265625,154.96826171875
7.277604103088379,-1268431176,0,0.4361449182033539,-0.6646152138710022,-0.5654923915863037,-88.80615234375,-91.9189453125,-356.99462890625
7.284956932067871,-1268431178,1,0.2535441517829895,0.1777130663394928,0.9019794464111328,241.3330078125,74.462890625,80.810546875
7.307770252227783,-1268431157,0,0.4410277307033539,-0.5989413857460022,-0.5850236415863037,-114.8681640625,-189.02587890625,-357.23876953125
7.309496164321899,-1268431138,0,0.5760374665260315,-0.8079257607460022,-0.3604142963886261,-149.96337890625,-255.7373046875,-393.85986328125
7.3228490352630615,-1268431159,1,0.3053019642829895,-0.025411929935216904,0.9769306182861328,231.14013671875,20.6298828125,75.13427734375
7.323703050613403,-1268431140,1,0.1727336049079895,-0.1211150586605072,0.7952899932861328,231.201171875,-9.09423828125,42.724609375
7.337541103363037,-1268431119,0,0.2281370908021927,-0.9187656044960022,-0.1218888983130455,-227.5390625,-282.89794921875,-279.11376953125
7.344986200332642,-1268431121,1,-0.7769734263420105,0.1945587694644928,0.5382099151611328,186.46240234375,11.04736328125,160.58349609375
7.37449312210083,-1268431100,0,0.09825427830219269,-0.7261386513710022,0.1202986016869545,-177.91748046875,-315.7958984375,-165.34423828125
7.374504089355469,-1268431081,0,0.1736937314271927,-0.4558749496936798,0.4403669536113739,-167.17529296875,-365.478515625,-119.5068359375
7.376632213592529,-1268431102,1,-0.029903117567300797,-0.4726775586605072,0.4481220245361328,123.291015625,44.3115234375,100.830078125
7.376641035079956,-1268431083,1,-0.4302937388420105,-0.4372771680355072,0.6165790557861328,68.603515625,-0.79345703125,120.30029296875
7.397531986236572,-1268431062,0,0.4454222619533539,-0.5662265419960022,0.6581404209136963,-192.19970703125,-333.06884765625,-68.90869140625
7.404929161071777,-1268431064,1,-0.3648640513420105,-0.7231658101081848,0.8497333526611328,-28.076171875,-59.2041015625,138.97705078125
7.40505313873291,-1268431045,1,-0.1800495982170105,-0.7573454976081848,1.1661396026611328,-45.95947265625,-89.17236328125,129.39453125
7.434036016464233,-1268431026,1,0.042118366807699203,-0.7856658101081848,1.1304950714111328,-26.9775390625,-93.56689453125,86.48681640625
7.470250129699707,-1268431043,0,0.4534789025783539,-0.3916659653186798,0.8004744052886963,-152.587890625,-276.3671875,-6.28662109375
7.470257997512817,-1268431024,0,0.4454222619533539,-0.138492152094841,0.6776716709136963,-119.5068359375,-230.8349609375,66.22314453125
7.470263242721558,-1268431005,0,0.5760374665260315,-0.109439417719841,0.4467146098613739,-105.16357421875,-211.97509765625,136.29150390625
7.47026801109314,-1268430986,0,0.6373167634010315,-0.106265589594841,0.3273298442363739,-75.68359375,-221.25244140625,196.4111328125
7.472708225250244,-1268431007,1,0.1939738392829895,-0.6382048726081848,1.0550556182861328,-17.51708984375,-93.017578125,46.875
7.472714185714722,-1268430988,1,0.3438761830329895,-0.3032439649105072,1.0579853057861328,-47.30224609375,-118.0419921875,45.47119140625
7.4879350662231445,-1268430967,0,0.7681761384010315,-0.083804652094841,0.2897321879863739,-21.1181640625,-210.3271484375,271.728515625
7.495141983032227,-1268430969,1,0.5379679799079895,-0.2888396680355072,1.2618427276611328,-122.00927734375,-199.8291015625,122.86376953125
7.525938034057617,-1268430948,0,0.9427366852760315,-0.004214804619550705,0.2516462504863739,-2.50244140625,-161.0107421875,316.89453125
7.528332233428955,-1268430950,1,0.8407023549079895,-0.3696502149105072,1.2806415557861328,-153.1982421875,-249.81689453125,156.1279296875
7.547501087188721,-1268430912,0,1.1685668230056763,-0.182681605219841,0.3082868754863739,5.615234375,-51.81884765625,380.859375
7.555041074752808,-1268430914,1,1.6788370609283447,-0.8405974507331848,1.0347919464111328,-102.4169921875,-222.22900390625,199.40185546875
7.55512809753418,-1268430895,1,1.7855265140533447,-0.8706267476081848,0.5711688995361328,-84.47265625,-242.5537109375,159.3017578125
7.578356981277466,-1268430893,0,1.3174926042556763,-0.3521151840686798,0.2101423442363739,68.17626953125,-41.32080078125,414.97802734375
7.57836389541626,-1268430874,0,1.6417113542556763,-0.3386874496936798,0.1349470317363739,135.31494140625,-37.29248046875,451.72119140625
7.585127115249634,-1268430876,1,2.0116007328033447,-0.9641326069831848,0.1439228057861328,-90.02685546875,-264.83154296875,140.19775390625
7.6095380783081055,-1268430855,0,1.8597289323806763,-0.131900355219841,0.1315290629863739,180.17578125,13.0615234375,423.88916015625
7.621453046798706,-1268430836,0,1.9207640886306763,0.009212929755449295,0.0368025079369545,193.359375,55.23681640625,338.68408203125
7.623481273651123,-1268430857,1,2.0704386234283447,-1.0019744634628296,-0.2103252410888672,-47.9736328125,-201.171875,69.4580078125
7.6234869956970215,-1268430838,1,1.9788858890533447,-1.0232146978378296,-0.3770732879638672,-24.2919921875,-172.66845703125,70.1904296875
7.639378070831299,-1268430817,0,1.7781859636306763,-0.2769198715686798,-0.0259416326880455,171.2646484375,107.23876953125,233.58154296875
7.644930124282837,-1268430819,1,1.9576456546783447,-1.3894256353378296,-0.8289775848388672,-10.498046875,-157.2265625,60.1806640625
7.674134016036987,-1268430798,0,1.6876097917556763,-0.4068026840686798,-0.2324846088886261,171.32568359375,162.04833984375,185.9130859375
7.674143075942993,-1268430779,0,1.6326781511306763,-0.5745273232460022,-0.2603166401386261,178.52783203125,193.603515625,119.2626953125
7.676265001296997,-1268430800,1,1.7098429203033447,-1.3122771978378296,-1.1238994598388672,31.005859375,-137.3291015625,24.71923828125
7.676271915435791,-1268430781,1,1.1702921390533447,-0.9685271382331848,-1.2689189910888672,68.359375,-106.0791015625,1.953125
7.697659969329834,-1268430760,0,1.5623656511306763,-0.7078281044960022,-0.2639787495136261,177.734375,201.5380859375,80.26123046875
7.704997301101685,-1268430762,1,0.8192179799079895,-0.7190154194831848,-1.3553447723388672,93.26171875,-84.716796875,21.91162109375
7.705036163330078,-1268430743,1,0.6156046986579895,-0.6201384663581848,-1.3765850067138672,90.88134765625,-61.6455078125,15.380859375
7.730926275253296,-1268430741,0,1.3546019792556763,-0.8137851357460022,-0.1563127338886261,168.02978515625,183.28857421875,34.3017578125
7.730938196182251,-1268430722,0,1.3694945573806763,-0.7791171669960022,-0.1196916326880455,193.603515625,167.6025390625,-2.685546875
7.734867095947266,-1268430724,1,0.3939250111579895,-0.6050017476081848,-1.3709697723388672,108.642578125,-27.9541015625,-4.0283203125
7.77168607711792,-1268430703,0,1.4056273698806763,-0.8609042763710022,-0.0437638983130455,200.25634765625,195.12939453125,-32.958984375
7.771697044372559,-1268430684,0,1.4925414323806763,-0.9607577919960022,0.1456892192363739,222.35107421875,261.16943359375,-69.2138671875
7.775954008102417,-1268430705,1,0.3336222767829895,-0.7998259663581848,-1.2442607879638672,137.20703125,-4.8828125,-18.798828125
7.775966167449951,-1268430686,1,0.2601359486579895,-0.5634978413581848,-1.3365459442138672,184.5703125,3.11279296875,-94.8486328125
7.794368028640747,-1268430650,1,0.025028523057699203,-0.8257048726081848,-1.0030498504638672,194.580078125,80.9326171875,-92.34619140625
7.827157020568848,-1268430648,0,1.7601195573806763,-0.7527499794960022,-0.0891740545630455,230.40771484375,329.52880859375,-166.56494140625
7.8271660804748535,-1268430629,0,1.6431761980056763,-0.7122226357460022,-0.2656877338886261,188.96484375,316.83349609375,-206.72607421875
7.828955888748169,-1268430631,1,-0.043330851942300797,-1.1081756353378296,-0.7530498504638672,190.7958984375,91.85791015625,-97.59521484375
7.847729921340942,-1268430610,0,1.5330687761306763,-0.3040194809436798,-0.009584210813045502,195.1904296875,280.8837890625,-267.02880859375
7.856775999069214,-1268430612,1,0.1090129017829895,-1.3005584478378296,-0.4774150848388672,176.81884765625,105.28564453125,-164.12353515625
7.856831073760986,-1268430593,1,-0.4869343638420105,-1.0114959478378296,-0.3189678192138672,220.88623046875,114.19677734375,-223.0224609375
7.88408088684082,-1268430574,1,-0.6175495982170105,-1.0681365728378296,-0.1507549285888672,252.13623046875,176.81884765625,-280.09033203125
7.91958212852478,-1268430591,0,1.4334594011306763,-0.6868320107460022,0.0355818048119545,180.84716796875,262.75634765625,-259.33837890625
7.9196271896362305,-1268430572,0,1.2410765886306763,-0.7786288857460022,0.1432478129863739,192.19970703125,243.65234375,-236.63330078125
7.919634103775024,-1268430553,0,1.4339476823806763,-0.5071445107460022,0.3666364848613739,221.74072265625,214.41650390625,-237.73193359375
7.9196391105651855,-1268430534,0,1.2581664323806763,-0.5457187294960022,0.5294783115386963,204.2236328125,217.83447265625,-238.09814453125
7.920618057250977,-1268430555,1,-0.5506550669670105,-1.0361541509628296,0.3433856964111328,195.80078125,200.0732421875,-320.37353515625
7.920624017715454,-1268430536,1,-0.4605671763420105,-0.9499724507331848,0.7950458526611328,111.63330078125,175.9033203125,-361.328125
7.93757700920105,-1268430515,0,1.2554808855056763,-0.3450351059436798,0.4154646098613739,173.15673828125,213.2568359375,-253.0517578125
7.944967985153198,-1268430517,1,-0.3961140513420105,-0.7893279194831848,1.2052021026611328,107.177734375,151.67236328125,-481.3232421875
7.974100112915039,-1268430496,0,1.1900511980056763,-0.3750644028186798,0.4005720317363739,111.38916015625,213.2568359375,-277.2216796875
7.974107027053833,-1268430477,0,1.0345336198806763,-0.4192538559436798,0.4723493754863739,88.31787109375,195.86181640625,-279.296875
7.97623610496521,-1268430498,1,-0.6009480357170105,-0.6250212788581848,1.1641864776611328,143.6767578125,108.94775390625,-549.37744140625
7.976243019104004,-1268430479,1,-0.8111531138420105,-0.5046599507331848,1.0726337432861328,124.45068359375,86.60888671875,-551.513671875
7.997647285461426,-1268430458,0,0.9280882477760315,-0.207339808344841,0.5045759677886963,90.14892578125,154.6630859375,-281.18896484375
8.004945993423462,-1268430460,1,-0.8529011607170105,-0.3257049024105072,1.3272724151611328,32.40966796875,56.94580078125,-551.6357421875
8.005025148391724,-1268430441,1,-0.7606160044670105,-0.1613982617855072,1.6055927276611328,-41.6259765625,-3.5400390625,-592.34619140625
8.030089139938354,-1268430439,0,0.9085569977760315,-0.062808558344841,0.5919783115386963,86.85302734375,116.27197265625,-315.673828125
8.030100107192993,-1268430420,0,0.8480101227760315,-0.115787073969841,0.8224470615386963,48.40087890625,98.7548828125,-356.75048828125
8.03524112701416,-1268430422,1,-0.8907429575920105,-0.0805877149105072,1.5621356964111328,-23.681640625,-53.8330078125,-661.80419921875
8.059023141860962,-1268430384,0,0.6282835602760315,-0.00030855461955070496,0.9550154209136963,34.36279296875,108.58154296875,-405.6396484375
8.07335090637207,-1268430386,1,-1.3802449703216553,-0.043478336185216904,1.2799091339111328,108.642578125,-24.35302734375,-680.48095703125
8.087843179702759,-1268430365,0,0.5215941071510315,0.082943394780159,0.9635603427886963,39.48974609375,99.853515625,-445.86181640625
8.126649141311646,-1268430346,0,0.4405394494533539,0.077816441655159,1.0690290927886963,37.7197265625,82.51953125,-471.49658203125
8.126657009124756,-1268430327,0,0.2093382626771927,0.124447301030159,1.1017439365386963,22.3388671875,81.35986328125,-476.86767578125
8.128985166549683,-1268430367,1,-1.4905965328216553,0.1659943163394928,1.3751239776611328,121.39892578125,-41.80908203125,-634.33837890625
8.12899112701416,-1268430348,1,-1.7100789546966553,0.2785431444644928,1.4124774932861328,88.43994140625,-158.69140625,-598.5107421875
8.128996133804321,-1268430329,1,-1.8604695796966553,0.1865021288394928,1.3441181182861328,-27.4658203125,-267.333984375,-576.416015625
8.157568216323853,-1268430310,1,-1.7476766109466553,0.1772247850894928,1.4085712432861328,-126.52587890625,-312.56103515625,-505.9814453125
8.157601118087769,-1268430291,1,-1.6019246578216553,0.1296173632144928,1.4471454620361328,-120.91064453125,-272.216796875,-448.8525390625
8.1839439868927,-1268430272,1,-1.7198445796966553,-0.051534976810216904,1.4193134307861328,-53.22265625,-184.9365234375,-461.3037109375
8.2082040309906,-1268430308,0,-0.041150014847517014,0.217220738530159,1.0775740146636963,19.22607421875,76.84326171875,-469.7265625
8.221447944641113,-1268430289,0,-0.1583375185728073,0.2775234878063202,1.0265486240386963,24.90234375,60.72998046875,-478.94287109375
8.223361015319824,-1268430253,1,-1.8384969234466553,-0.2246306836605072,1.2808856964111328,21.42333984375,-65.12451171875,-498.10791015625
8.223372220993042,-1268430234,1,-1.6627156734466553,-0.4394744336605072,1.1505146026611328,33.26416015625,27.099609375,-507.2021484375
8.238102197647095,-1268430270,0,-0.2821168005466461,0.185970738530159,1.0480329990386963,23.86474609375,45.71533203125,-487.6708984375
8.238232135772705,-1268430251,0,-0.4107789099216461,0.144955113530159,1.0700056552886963,26.611328125,24.84130859375,-469.90966796875
8.238328218460083,-1268430232,0,-0.4754761755466461,0.226009801030159,1.0219099521636963,20.32470703125,-11.04736328125,-437.3779296875
8.238960981369019,-1268430213,0,-0.5174683928489685,0.156429722905159,1.0639021396636963,-12.87841796875,-40.83251953125,-437.8662109375
8.244901180267334,-1268430215,1,-1.4542195796966553,-0.5754607319831848,1.1075458526611328,48.2177734375,80.74951171875,-507.99560546875
8.274105072021484,-1268430194,0,-0.5081910490989685,0.219418004155159,0.9115583896636963,-14.22119140625,-75.439453125,-441.89453125
8.27411413192749,-1268430175,0,-0.4115113317966461,-0.009830038994550705,0.9420759677886963,-74.40185546875,-108.154296875,-462.0361328125
8.276149034500122,-1268430196,1,-1.6019246578216553,-0.7063201069831848,1.2437763214111328,63.90380859375,84.16748046875,-502.3193359375
8.276155948638916,-1268430177,1,-1.9544637203216553,-0.6054900288581848,1.3609638214111328,109.19189453125,18.24951171875,-466.36962890625
8.297546148300171,-1268430156,0,-0.3997925817966461,-0.047183554619550705,1.0060408115386963,-122.55859375,-148.62060546875,-448.05908203125
8.304862976074219,-1268430158,1,-2.1656453609466553,-0.3779509961605072,1.1881122589111328,178.89404296875,-51.57470703125,-354.55322265625
8.331927061080933,-1268430120,0,0.08629138767719269,-0.4878573715686798,1.1500837802886963,-144.775390625,-243.95751953125,-548.2177734375
8.335267066955566,-1268430122,1,-1.5955770015716553,-0.5957244038581848,1.0225849151611328,255.55419921875,-5.126953125,-140.68603515625
8.35771131515503,-1268430101,0,0.2122679501771927,-0.9527011513710022,1.1732771396636963,-97.10693359375,-261.53564453125,-563.29345703125
8.374768018722534,-1268430103,1,-2.0711629390716553,-1.1159881353378296,0.4940204620361328,273.49853515625,51.20849609375,-95.52001953125
8.37477707862854,-1268430084,1,-1.5987508296966553,-0.3940642774105072,1.0140399932861328,326.416015625,-10.80322265625,-67.87109375
8.38838815689087,-1268430082,0,0.3101683557033539,-1.0676913261413574,1.0411970615386963,-59.6923828125,-217.83447265625,-517.2119140625
8.388511180877686,-1268430063,0,0.2650023400783539,-1.2012362480163574,0.9205915927886963,-82.3974609375,-136.3525390625,-460.51025390625
8.426565170288086,-1268430044,0,0.1688109189271927,-1.2871737480163574,0.8771345615386963,-100.03662109375,-83.251953125,-393.98193359375
8.426573038101196,-1268430025,0,0.1358519345521927,-1.3357577323913574,0.7958357334136963,-56.94580078125,-27.89306640625,-350.5859375
8.428974151611328,-1268430065,1,-1.8218953609466553,-0.3652556836605072,0.7386493682861328,294.37255859375,-52.42919921875,65.49072265625
8.428981065750122,-1268430046,1,-1.4749715328216553,-0.5630095601081848,0.4591083526611328,254.08935546875,12.20703125,114.31884765625
8.428986310958862,-1268430027,1,-1.1978719234466553,-0.7253630757331848,0.2364521026611328,224.67041015625,110.41259765625,60.05859375
8.447591066360474,-1268430006,0,-0.2518433630466461,-1.1926913261413574,0.7272322177886963,85.26611328125,25.634765625,-255.31005859375
8.454811096191406,-1268430008,1,-1.4368855953216553,-0.033712711185216904,0.2918720245361328,248.046875,127.0751953125,52.490234375
8.481688261032104,-1268429987,0,0.1922484189271927,-1.0154452323913574,0.1181013360619545,127.25830078125,49.1943359375,-212.158203125
8.481695175170898,-1268429968,0,0.11583240330219269,-0.6973300576210022,-0.2056291401386261,82.03125,-28.80859375,-229.79736328125
8.485026121139526,-1268429989,1,-1.4932820796966553,-0.2109588086605072,0.07043648511171341,213.56201171875,91.552734375,150.20751953125
8.485136270523071,-1268429970,1,-1.2464559078216553,-0.4228728711605072,-0.2535381317138672,175.537109375,119.62890625,178.40576171875
8.509156227111816,-1268429949,0,0.1500120908021927,-0.6480136513710022,-0.0344865545630455,53.77197265625,-86.12060546875,-223.69384765625
8.526753187179565,-1268429951,1,-1.0306355953216553,-0.3860076367855072,-0.3995342254638672,130.37109375,203.06396484375,166.07666015625
8.526762008666992,-1268429932,1,-0.9896199107170105,-0.2971404492855072,-0.2020244598388672,113.34228515625,245.9716796875,156.494140625
8.538092136383057,-1268429930,0,0.3626585900783539,-0.3958163559436798,0.2643415629863739,70.068359375,-54.13818359375,-205.6884765625
8.538120031356812,-1268429911,0,0.2720824182033539,-0.4033847153186798,0.0465681329369545,60.97412109375,-26.7333984375,-166.56494140625
8.547405242919922,-1268429913,1,-0.8162800669670105,-0.3384002149105072,-0.0037822648882865906,83.3740234375,209.89990234375,179.13818359375
8.574877977371216,-1268429892,0,0.3392210900783539,-0.2944979965686798,0.0892927423119545,25.45166015625,-46.20361328125,-100.2197265625
8.57720398902893,-1268429894,1,-0.8416706919670105,-0.1982634961605072,0.03357125073671341,43.76220703125,209.5947265625,200.0732421875
8.597532033920288,-1268429856,0,0.7825804352760315,-0.163394495844841,0.6134626865386963,-22.88818359375,-78.55224609375,-90.33203125
8.604902029037476,-1268429858,1,-0.5059773325920105,-0.3567107617855072,0.09045601636171341,25.634765625,293.02978515625,155.6396484375
8.627671241760254,-1268429837,0,0.8270140290260315,-0.2940097153186798,0.9616072177886963,35.82763671875,-111.6943359375,-108.70361328125
8.627742052078247,-1268429818,0,0.8631468415260315,-0.3335604965686798,1.1224958896636963,122.6806640625,-119.5068359375,-80.50537109375
8.63509726524353,-1268429839,1,-0.2918660044670105,-0.3823455274105072,0.12414742261171341,-7.38525390625,252.3193359375,160.33935546875
8.635219097137451,-1268429820,1,-0.0711628794670105,-0.3962615430355072,0.2088642120361328,-47.54638671875,174.072265625,173.15673828125
8.657602071762085,-1268429799,0,0.9092894196510315,-0.234439417719841,1.2140486240386963,137.0849609375,-98.14453125,-27.9541015625
8.673612117767334,-1268429801,1,-0.018916789442300797,-0.6577361226081848,0.2000751495361328,-119.44580078125,138.916015625,130.55419921875
8.673622131347656,-1268429782,1,0.057743366807699203,-0.4787810742855072,0.3411884307861328,-140.80810546875,125.67138671875,45.83740234375
8.687609195709229,-1268429780,0,0.9166136384010315,-0.194888636469841,1.4105818271636963,106.87255859375,-73.486328125,23.86474609375
8.687724113464355,-1268429761,0,0.8848753571510315,-0.244449183344841,1.5936872959136963,91.552734375,-61.21826171875,73.974609375
8.695166110992432,-1268429763,1,-0.1165730357170105,-0.3115447461605072,0.5145282745361328,-153.076171875,126.8310546875,-17.2119140625
8.72488808631897,-1268429742,0,0.9173460602760315,-0.3042636215686798,1.7404158115386963,139.892578125,-76.23291015625,134.33837890625
8.728402137756348,-1268429744,1,-0.1495320200920105,-0.3003142774105072,0.6134052276611328,-146.17919921875,120.78857421875,-30.76171875
8.728410243988037,-1268429725,1,-0.0889851450920105,-0.3623259961605072,0.7154560089111328,-148.0712890625,109.92431640625,-56.45751953125
8.74772310256958,-1268429723,0,0.9891234040260315,-0.2754550278186798,1.6776716709136963,212.0361328125,-95.76416015625,163.4521484375
8.747791290283203,-1268429704,0,1.0823851823806763,0.187435582280159,1.5680525302886963,214.599609375,-102.72216796875,108.70361328125
8.75483226776123,-1268429706,1,-0.0782429575920105,-0.2829802930355072,0.8929462432861328,-170.41015625,63.720703125,-83.0078125
8.779153108596802,-1268429685,0,0.9122191071510315,0.2745938003063202,1.7142927646636963,143.6767578125,-96.5576171875,17.822265625
8.779160261154175,-1268429666,0,0.6981077790260315,0.221615269780159,1.9271833896636963,84.3505859375,-93.44482421875,39.9169921875
8.785420179367065,-1268429687,1,0.1578410267829895,-0.4582732617855072,1.0203876495361328,-244.384765625,6.591796875,-116.8212890625
8.785513162612915,-1268429668,1,0.0819132924079895,-0.3274138867855072,1.4327411651611328,-276.0009765625,-52.06298828125,-174.072265625
8.82213830947876,-1268429647,0,0.6795530915260315,0.3424648940563202,2.1256697177886963,31.55517578125,-57.31201171875,96.923828125
8.823971271514893,-1268429649,1,-0.1790730357170105,-0.1386931836605072,1.5577411651611328,-210.205078125,-55.17578125,-203.857421875
8.83762001991272,-1268429628,0,0.6568480134010315,0.3959316909313202,2.1569197177886963,-48.27880859375,-0.79345703125,104.00390625
8.844975233078003,-1268429630,1,-0.5220906138420105,0.0004669763147830963,1.6424579620361328,-150.7568359375,-15.44189453125,-246.09375
8.87487006187439,-1268429592,0,0.09434802830219269,0.121273472905159,2.2658064365386963,-60.791015625,12.51220703125,41.259765625
8.876935005187988,-1268429594,1,-0.5079304575920105,-0.2180388867855072,1.7708759307861328,-187.3779296875,-90.02685546875,-278.38134765625
8.876943111419678,-1268429575,1,-0.7349812388420105,-0.2973845899105072,1.9017353057861328,-202.2705078125,-153.564453125,-311.82861328125
8.89768099784851,-1268429573,0,0.07335193455219269,0.3969082534313202,2.2833845615386963,-36.1328125,-6.103515625,73.54736328125
8.897969961166382,-1268429554,0,0.013781625777482986,0.6759609580039978,2.3109724521636963,-54.931640625,21.97265625,64.453125
8.90484094619751,-1268429556,1,-1.1448934078216553,-0.1511443555355072,1.8868427276611328,-120.361328125,-207.82470703125,-311.46240234375
8.936375141143799,-1268429537,1,-1.3216512203216553,-0.1286834180355072,1.7779560089111328,-85.38818359375,-232.60498046875,-274.35302734375
8.936389923095703,-1268429518,1,-1.3048055171966553,-0.2910369336605072,1.7818622589111328,-72.75390625,-238.22021484375,-231.62841796875
8.958040237426758,-1268429535,0,-0.2818726599216461,0.6991543173789978,2.2506697177886963,-19.71435546875,-26.67236328125,-23.92578125
8.959672212600708,-1268429516,0,-0.3790406286716461,0.5521816611289978,2.2919294834136963,11.8408203125,-95.947265625,-84.8388671875
