sync_time,timestamp_ms,device_id,ax,ay,az,gx,gy,gz
0.02349114418029785,-1383110591,1,0.9812440276145935,-0.18120929598808289,0.1019158884882927,0.6103515625,0.0,0.54931640625
0.023501157760620117,-1383110572,1,0.9753846526145935,-0.16753742098808289,0.0948358103632927,0.6103515625,0.48828125,0.48828125
0.02356410026550293,-1383110577,0,-0.963523805141449,-0.19698894023895264,0.2667359411716461,-1.8310546875,1.5869140625,11.474609375
0.02357006072998047,-1383110558,0,-0.976707398891449,-0.19503581523895264,0.24183359742164612,-3.47900390625,5.2490234375,13.18359375
0.04905509948730469,-1383110553,1,0.9724549651145935,-0.16460773348808289,0.0955682322382927,1.40380859375,-0.48828125,0.67138671875
0.0554041862487793,-1383110539,0,-0.987449586391449,-0.18819987773895264,0.24281015992164612,-3.47900390625,-0.18310546875,12.939453125
0.06155705451965332,-1383110534,1,0.9790467619895935,-0.17608234286308289,0.0987420603632927,0.8544921875,-0.18310546875,-0.06103515625
0.06162905693054199,-1383110515,1,0.9726991057395935,-0.18389484286308289,0.1019158884882927,0.91552734375,1.5869140625,0.67138671875
0.08717703819274902,-1383110520,0,-0.976463258266449,-0.19625651836395264,0.23841562867164612,-1.15966796875,-10.7421875,13.36669921875
0.08718395233154297,-1383110501,0,-0.967430055141449,-0.19161784648895264,0.2630738317966461,-0.732421875,-10.6201171875,13.97705078125
0.09371018409729004,-1383110496,1,0.9685487151145935,-0.17364093661308289,0.1002069041132927,0.244140625,-0.3662109375,0.48828125
0.10654211044311523,-1383110482,0,-0.967430055141449,-0.21749675273895264,0.2555054724216461,-1.46484375,-1.953125,17.76123046875
0.10668802261352539,-1383110463,0,-0.985252320766449,-0.18893229961395264,0.23280039429664612,-2.8076171875,1.52587890625,16.4794921875
0.1390380859375,-1383110460,1,0.9663514494895935,-0.17412921786308289,0.1070428416132927,0.3662109375,1.46484375,1.15966796875
0.16547417640686035,-1383110427,0,-0.991355836391449,-0.19869792461395264,0.22718515992164612,-1.0986328125,-9.27734375,11.71875
0.16621112823486328,-1383110408,0,-0.953269898891449,-0.19894206523895264,0.2608765661716461,0.79345703125,-11.65771484375,12.63427734375
0.18749690055847168,-1383110441,1,0.9573182463645935,-0.17950031161308289,0.1070428416132927,0.18310546875,-0.42724609375,0.1220703125
0.18891191482543945,-1383110422,1,0.9748963713645935,-0.18389484286308289,0.0921502634882927,0.3662109375,-1.3427734375,-0.42724609375
0.18897414207458496,-1383110403,1,0.9800233244895935,-0.17315265536308289,0.0887322947382927,0.18310546875,-0.67138671875,0.0
0.21035408973693848,-1383110384,1,0.9763612151145935,-0.16753742098808289,0.0963006541132927,0.3662109375,0.79345703125,-0.244140625
0.2112870216369629,-1383110365,1,0.9729432463645935,-0.17217609286308289,0.0982537791132927,0.79345703125,0.0,0.8544921875
0.2369081974029541,-1383110389,0,-0.960349977016449,-0.20113933086395264,0.2747925817966461,-2.74658203125,-4.2724609375,13.7939453125
0.23691606521606445,-1383110370,0,-0.970359742641449,-0.18380534648895264,0.2562378942966461,-4.45556640625,4.45556640625,17.39501953125
0.23692107200622559,-1383110351,0,-0.978172242641449,-0.18282878398895264,0.22767344117164612,-3.5400390625,2.50244140625,14.16015625
0.24142217636108398,-1383110346,1,0.9680604338645935,-0.17388507723808289,0.1021600291132927,0.8544921875,0.732421875,0.06103515625
0.24154400825500488,-1383110327,1,0.9709901213645935,-0.18609210848808289,0.1009393259882927,0.8544921875,1.0986328125,-0.1220703125
0.2563960552215576,-1383110332,0,-0.986228883266449,-0.19723308086395264,0.23865976929664612,-0.67138671875,-8.30078125,12.0849609375
0.25658297538757324,-1383110313,0,-0.963279664516449,-0.21261394023895264,0.2608765661716461,0.732421875,-11.53564453125,11.23046875
0.2868070602416992,-1383110308,1,0.9809998869895935,-0.18194171786308289,0.0945916697382927,0.91552734375,-1.8310546875,0.30517578125
0.2937040328979492,-1383110294,0,-0.958396852016449,-0.21041667461395264,0.2774781286716461,-1.220703125,-5.31005859375,15.625
0.3185150623321533,-1383110275,0,-0.973045289516449,-0.19430339336395264,0.2586793005466461,-4.08935546875,0.244140625,17.4560546875
0.318526029586792,-1383110256,0,-0.987693727016449,-0.19186198711395264,0.22840586304664612,-2.38037109375,0.30517578125,16.54052734375
0.3405020236968994,-1383110289,1,0.9817323088645935,-0.16900226473808289,0.0955682322382927,0.732421875,0.3662109375,0.1220703125
0.34131884574890137,-1383110270,1,0.9714784026145935,-0.16534015536308289,0.0999627634882927,0.30517578125,1.40380859375,0.18310546875
0.3464219570159912,-1383110237,0,-0.982322633266449,-0.19088542461395264,0.24549570679664612,-0.8544921875,-6.591796875,10.68115234375
0.3614790439605713,-1383110251,1,0.9709901213645935,-0.18023273348808289,0.1058221384882927,-0.79345703125,-0.30517578125,0.732421875
0.36159706115722656,-1383110232,1,0.9714784026145935,-0.18072101473808289,0.0975213572382927,0.91552734375,-0.42724609375,0.732421875
0.38766908645629883,-1383110218,0,-0.964744508266449,-0.21090495586395264,0.24891367554664612,0.3662109375,-9.6435546875,9.3994140625
0.3876760005950928,-1383110199,0,-0.967918336391449,-0.20675456523895264,0.2647828161716461,-2.01416015625,-5.18798828125,12.20703125
0.39386796951293945,-1383110196,1,0.9770936369895935,-0.17608234286308289,0.0999627634882927,1.3427734375,-0.30517578125,-0.06103515625
0.40631914138793945,-1383110163,0,-0.986717164516449,-0.19064128398895264,0.23573008179664612,-3.173828125,0.244140625,18.310546875
0.43989109992980957,-1383110177,1,0.9758729338645935,-0.16436359286308289,0.1006951853632927,0.1220703125,0.6103515625,0.06103515625
0.43989992141723633,-1383110158,1,0.9697694182395935,-0.17119953036308289,0.1053338572382927,0.42724609375,-0.54931640625,0.732421875
0.44368410110473633,-1383110144,0,-0.977195680141449,-0.19088542461395264,0.22889414429664612,-1.03759765625,-8.11767578125,14.892578125
0.45404696464538574,-1383110139,1,0.9705018401145935,-0.17998859286308289,0.1038690134882927,-0.48828125,-0.42724609375,0.06103515625
0.4540560245513916,-1383110120,1,0.9741639494895935,-0.18535968661308289,0.0977654978632927,0.3662109375,-0.1220703125,-1.220703125
0.4664158821105957,-1383110125,0,-0.973289430141449,-0.19894206523895264,0.2635621130466461,0.06103515625,-12.6953125,11.90185546875
0.4665210247039795,-1383110106,0,-0.958640992641449,-0.19869792461395264,0.2650269567966461,-0.54931640625,-8.36181640625,12.39013671875
0.489199161529541,-1383110101,1,0.9746522307395935,-0.17534992098808289,0.0980096384882927,0.67138671875,1.52587890625,-0.1220703125
0.49627017974853516,-1383110087,0,-0.964500367641449,-0.20113933086395264,0.2581910192966461,-3.5400390625,1.708984375,13.7939453125
0.5114519596099854,-1383110082,1,0.9705018401145935,-0.17242023348808289,0.0999627634882927,-0.3662109375,1.3427734375,0.67138671875
0.5115861892700195,-1383110063,1,0.9726991057395935,-0.16656085848808289,0.0994744822382927,1.40380859375,-0.9765625,1.28173828125
0.5396921634674072,-1383110068,0,-0.974265992641449,-0.19454753398895264,0.23084726929664612,-3.84521484375,5.126953125,15.56396484375
0.5397000312805176,-1383110049,0,-0.993064820766449,-0.21017253398895264,0.22327890992164612,-1.953125,-4.94384765625,12.20703125
0.5442509651184082,-1383110044,1,0.9648866057395935,-0.17681476473808289,0.0941033884882927,-0.42724609375,-0.6103515625,1.220703125
0.5442581176757812,-1383110025,1,0.9758729338645935,-0.17705890536308289,0.0923944041132927,0.67138671875,-0.9765625,0.06103515625
0.5564160346984863,-1383110030,0,-0.969139039516449,-0.20138347148895264,0.24183359742164612,0.732421875,-12.63427734375,11.53564453125
0.5565061569213867,-1383110011,0,-0.956932008266449,-0.19991862773895264,0.2806519567966461,0.18310546875,-12.02392578125,14.0380859375
0.5729019641876221,-1383110006,1,0.9788026213645935,-0.17730304598808289,0.0884881541132927,-0.18310546875,-0.6103515625,0.54931640625
0.5933570861816406,-1383109992,0,-0.956687867641449,-0.20065104961395264,0.2752808630466461,-3.35693359375,-2.74658203125,18.310546875
0.6015071868896484,-1383109987,1,0.9788026213645935,-0.16656085848808289,0.0923944041132927,0.3662109375,0.54931640625,0.9765625
0.6015989780426025,-1383109968,1,0.9736756682395935,-0.16387531161308289,0.0989862009882927,0.6103515625,1.03759765625,-0.06103515625
0.6185328960418701,-1383109973,0,-0.982810914516449,-0.18673503398895264,0.24866953492164612,-2.74658203125,3.5400390625,18.61572265625
0.6185431480407715,-1383109954,0,-0.987937867641449,-0.18575847148895264,0.23426523804664612,-2.86865234375,-0.1220703125,13.97705078125
0.6452329158782959,-1383109935,0,-0.985984742641449,-0.19967448711395264,0.24281015992164612,-1.89208984375,-8.056640625,8.60595703125
0.6839702129364014,-1383109899,0,-0.951316773891449,-0.20602214336395264,0.2686890661716461,-1.52587890625,-2.8076171875,12.87841796875
0.6931049823760986,-1383109932,1,0.9722108244895935,-0.18023273348808289,0.0943475291132927,0.30517578125,0.1220703125,0.732421875
0.6931142807006836,-1383109913,1,0.9751405119895935,-0.17608234286308289,0.0921502634882927,0.79345703125,-0.244140625,-0.9765625
0.6931190490722656,-1383109894,1,0.9805116057395935,-0.16680499911308289,0.0953240916132927,0.6103515625,-1.52587890625,0.67138671875
0.6931240558624268,-1383109875,1,0.9831971526145935,-0.16192218661308289,0.0897088572382927,0.0,0.91552734375,0.42724609375
0.7065339088439941,-1383109880,0,-0.976707398891449,-0.19308269023895264,0.2581910192966461,-3.84521484375,0.6103515625,18.798828125
0.7066781520843506,-1383109861,0,-0.983543336391449,-0.18038737773895264,0.23280039429664612,-3.84521484375,-2.9296875,18.1884765625
0.7392380237579346,-1383109856,1,0.9692811369895935,-0.16997882723808289,0.0950799509882927,0.9765625,0.48828125,0.54931640625
0.7428879737854004,-1383109842,0,-0.978904664516449,-0.18356120586395264,0.24036875367164612,-0.732421875,-8.6669921875,14.09912109375
0.7540512084960938,-1383109837,1,0.9702576994895935,-0.17705890536308289,0.1043572947382927,0.79345703125,-0.8544921875,1.40380859375
0.754061222076416,-1383109818,1,0.9673280119895935,-0.18658038973808289,0.1046014353632927,1.46484375,-0.30517578125,1.52587890625
0.766564130783081,-1383109823,0,-0.956443727016449,-0.20040690898895264,0.2542847692966461,-1.5869140625,-8.9111328125,11.1083984375
0.7666630744934082,-1383109804,0,-0.969139039516449,-0.23409831523895264,0.24842539429664612,-3.23486328125,1.3427734375,9.09423828125
0.7913239002227783,-1383109799,1,0.9709901213645935,-0.20220538973808289,0.1153436228632927,1.28173828125,0.6103515625,1.03759765625
0.7962779998779297,-1383109785,0,-0.966453492641449,-0.22457683086395264,0.22376719117164612,-3.11279296875,7.080078125,10.3759765625
0.8115289211273193,-1383109780,1,0.9680604338645935,-0.18365070223808289,0.1099725291132927,0.54931640625,-1.0986328125,-0.18310546875
0.8116512298583984,-1383109761,1,0.9788026213645935,-0.15435382723808289,0.0992303416132927,0.91552734375,-1.03759765625,-0.91552734375
0.8442010879516602,-1383109742,1,0.9751405119895935,-0.15191242098808289,0.0980096384882927,-0.67138671875,-1.28173828125,0.06103515625
0.8565690517425537,-1383109766,0,-0.987205445766449,-0.19918620586395264,0.21278086304664612,-2.685546875,3.23486328125,11.04736328125
0.8567318916320801,-1383109747,0,-0.995994508266449,-0.18600261211395264,0.20423594117164612,-1.52587890625,-11.16943359375,15.07568359375
0.8579931259155273,-1383109728,0,-0.960838258266449,-0.18990886211395264,0.2518433630466461,1.77001953125,-17.88330078125,20.5078125
0.8581349849700928,-1383109709,0,-0.946189820766449,-0.20382487773895264,0.2928589880466461,1.03759765625,-18.61572265625,19.8974609375
0.885930061340332,-1383109723,1,0.9622010588645935,-0.16826984286308289,0.0733514353632927,0.3662109375,-2.74658203125,0.30517578125
0.8859388828277588,-1383109704,1,0.9927186369895935,-0.18951007723808289,0.060411982238292694,1.0986328125,-2.197265625,-0.1220703125
0.8930802345275879,-1383109690,0,-0.958640992641449,-0.20040690898895264,0.3150757849216461,-1.03759765625,-11.90185546875,21.17919921875
0.9014949798583984,-1383109668,1,0.9673280119895935,-0.16241046786308289,0.1085076853632927,1.15966796875,2.62451171875,0.79345703125
0.9177041053771973,-1383109671,0,-0.939598023891449,-0.19088542461395264,0.2806519567966461,-3.23486328125,7.38525390625,15.0146484375
0.9413161277770996,-1383109649,1,0.9668397307395935,-0.15777179598808289,0.1324334740638733,1.15966796875,1.89208984375,2.99072265625
0.9461209774017334,-1383109635,0,-1.0133284330368042,-0.19357097148895264,0.18494883179664612,-5.126953125,11.1083984375,7.8125
0.9615020751953125,-1383109630,1,0.9592713713645935,-0.17534992098808289,0.1243768259882927,0.42724609375,0.244140625,0.0
0.9615700244903564,-1383109611,1,0.9551209807395935,-0.19366046786308289,0.1031365916132927,0.42724609375,-3.173828125,-0.18310546875
0.986732006072998,-1383109616,0,-0.998435914516449,-0.23824870586395264,0.17493906617164612,0.0,-8.48388671875,3.23486328125
0.9867420196533203,-1383109597,0,-0.970115602016449,-0.24239909648895264,0.2567261755466461,3.23486328125,-23.98681640625,7.32421875
0.9922020435333252,-1383109592,1,0.9768494963645935,-0.19634601473808289,0.0818963572382927,-0.1220703125,-3.90625,-0.244140625
1.020787000656128,-1383109573,1,1.0015077590942383,-0.17022296786308289,0.0704217478632927,0.732421875,-0.8544921875,-0.79345703125
1.0381839275360107,-1383109554,1,0.9741639494895935,-0.14263507723808289,0.0992303416132927,1.5869140625,2.25830078125,0.18310546875
1.043330192565918,-1383109578,0,-0.943015992641449,-0.21505534648895264,0.3131226599216461,1.5869140625,-18.1884765625,14.46533203125
1.0433380603790283,-1383109559,0,-0.933982789516449,-0.18649089336395264,0.2938355505466461,-3.2958984375,2.5634765625,22.64404296875
1.0433440208435059,-1383109540,0,-0.971824586391449,-0.15621745586395264,0.24378672242164612,-7.32421875,11.77978515625,25.81787109375
1.0537631511688232,-1383109535,1,0.9680604338645935,-0.14825031161308289,0.1043572947382927,0.9765625,1.15966796875,2.8076171875
1.0537750720977783,-1383109516,1,0.9724549651145935,-0.19073078036308289,0.1065545603632927,0.48828125,-0.30517578125,0.6103515625
1.066580057144165,-1383109521,0,-1.0125960111618042,-0.18234050273895264,0.19691172242164612,-3.72314453125,3.90625,18.61572265625
1.066673994064331,-1383109502,0,-0.978904664516449,-0.21407878398895264,0.20911875367164612,1.15966796875,-18.1884765625,8.48388671875
1.0880939960479736,-1383109497,1,0.9597596526145935,-0.19121906161308289,0.0906854197382927,-0.48828125,1.40380859375,-1.03759765625
1.0962791442871094,-1383109483,0,-0.954246461391449,-0.23214519023895264,0.2747925817966461,2.86865234375,-21.484375,9.82666015625
1.1114518642425537,-1383109478,1,0.9736756682395935,-0.19073078036308289,0.1004510447382927,0.0,0.1220703125,0.42724609375
1.1115939617156982,-1383109459,1,0.9885682463645935,-0.17583820223808289,0.1077752634882927,0.30517578125,-1.40380859375,0.48828125
1.1402711868286133,-1383109464,0,-0.936668336391449,-0.20577800273895264,0.2965210974216461,-1.953125,-6.34765625,15.0146484375
1.1402812004089355,-1383109445,0,-0.961814820766449,-0.18258464336395264,0.24696055054664612,-7.568359375,11.04736328125,20.44677734375
1.1451101303100586,-1383109440,1,0.9746522307395935,-0.16094562411308289,0.1065545603632927,0.9765625,1.220703125,0.244140625
1.1564481258392334,-1383109426,0,-0.992820680141449,-0.16085612773895264,0.21546640992164612,-5.0048828125,6.7138671875,15.93017578125
1.1845619678497314,-1383109404,1,0.9729432463645935,-0.17266437411308289,0.0877557322382927,-0.1220703125,-3.5400390625,0.79345703125
1.191709041595459,-1383109407,0,-0.996971070766449,-0.19088542461395264,0.23548594117164612,-1.0986328125,-10.55908203125,4.150390625
1.2013850212097168,-1383109385,1,0.9792909026145935,-0.17827960848808289,0.0775018259882927,0.79345703125,-0.42724609375,-0.48828125
1.2186009883880615,-1383109371,0,-0.949607789516449,-0.22286784648895264,0.2938355505466461,-0.1220703125,-8.4228515625,9.1552734375
1.2186100482940674,-1383109352,0,-0.953758180141449,-0.21676433086395264,0.2686890661716461,-4.69970703125,7.38525390625,17.88330078125
1.240727186203003,-1383109366,1,0.9883241057395935,-0.17315265536308289,0.0853143259882927,1.46484375,1.220703125,1.03759765625
1.2407360076904297,-1383109347,1,0.9761170744895935,-0.17290851473808289,0.1041131541132927,0.91552734375,1.28173828125,0.79345703125
1.2462871074676514,-1383109333,0,-0.989646852016449,-0.19650065898895264,0.21033945679664612,-6.2255859375,13.0615234375,23.8037109375
1.2615160942077637,-1383109328,1,0.9631776213645935,-0.17046710848808289,0.1146112009882927,0.244140625,0.67138671875,1.3427734375
1.2616362571716309,-1383109309,1,0.9651307463645935,-0.18194171786308289,0.1168084666132927,0.6103515625,0.42724609375,-0.732421875
1.2886860370635986,-1383109314,0,-1.0084456205368042,-0.18527019023895264,0.17323008179664612,-2.25830078125,-6.28662109375,20.3857421875
1.2886929512023926,-1383109295,0,-0.995506227016449,-0.19088542461395264,0.23450937867164612,3.0517578125,-25.5126953125,13.97705078125
1.2946839332580566,-1383109290,1,0.9636659026145935,-0.17754718661308289,0.0977654978632927,0.3662109375,-2.38037109375,-0.91552734375
1.3064241409301758,-1383109276,0,-0.958640992641449,-0.20138347148895264,0.2913941442966461,3.662109375,-25.20751953125,11.16943359375
1.3378140926361084,-1383109271,1,0.9785584807395935,-0.18340656161308289,0.0818963572382927,0.42724609375,-2.74658203125,-0.18310546875
1.337825059890747,-1383109252,1,0.9932069182395935,-0.18242999911308289,0.0889764353632927,0.3662109375,-0.30517578125,0.67138671875
1.3433470726013184,-1383109257,0,-0.953514039516449,-0.18673503398895264,0.3197144567966461,-1.52587890625,-8.544921875,13.00048828125
1.3433558940887451,-1383109238,0,-0.954978883266449,-0.18014323711395264,0.2782105505466461,-4.8828125,13.24462890625,14.58740234375
1.3655591011047363,-1383109219,0,-0.973045289516449,-0.18307292461395264,0.22889414429664612,-5.67626953125,15.9912109375,14.16015625
1.3667399883270264,-1383109200,0,-1.0184553861618042,-0.19674479961395264,0.18763437867164612,-3.662109375,2.25830078125,9.765625
1.3915278911590576,-1383109233,1,0.9714784026145935,-0.16802570223808289,0.0931268259882927,0.9765625,0.91552734375,1.46484375
1.391535997390747,-1383109214,1,0.9675721526145935,-0.16192218661308289,0.1046014353632927,0.732421875,1.03759765625,2.38037109375
1.3931541442871094,-1383109195,1,0.9705018401145935,-0.17412921786308289,0.1121697947382927,0.3662109375,-0.30517578125,0.48828125
1.396665096282959,-1383109181,0,-0.981346070766449,-0.21652019023895264,0.21131601929664612,1.0986328125,-14.22119140625,7.50732421875
1.4117052555084229,-1383109176,1,0.9685487151145935,-0.17779132723808289,0.0965447947382927,0.0,-0.30517578125,-0.9765625
1.4390790462493896,-1383109162,0,-0.947898805141449,-0.23776042461395264,0.2669800817966461,-0.42724609375,-18.5546875,12.451171875
1.439087152481079,-1383109143,0,-0.958640992641449,-0.21163737773895264,0.2762574255466461,-1.52587890625,-9.3994140625,20.08056640625
1.4434230327606201,-1383109140,1,0.9866151213645935,-0.18658038973808289,0.0931268259882927,0.732421875,0.48828125,-0.91552734375
1.4916820526123047,-1383109107,0,-0.984031617641449,-0.16549479961395264,0.22865000367164612,-4.94384765625,2.86865234375,19.95849609375
1.5019469261169434,-1383109121,1,0.9773377776145935,-0.15581867098808289,0.1016717478632927,1.46484375,0.54931640625,0.18310546875
1.5021510124206543,-1383109102,1,0.9712342619895935,-0.15801593661308289,0.1060662791132927,0.67138671875,0.1220703125,0.9765625
1.5022060871124268,-1383109083,1,0.9763612151145935,-0.17119953036308289,0.0911737009882927,0.30517578125,-0.06103515625,-0.8544921875
1.5027320384979248,-1383109064,1,0.9726991057395935,-0.18682453036308289,0.0928826853632927,-0.18310546875,-1.0986328125,0.244140625
1.5193111896514893,-1383109088,0,-0.992088258266449,-0.16598308086395264,0.22718515992164612,-2.62451171875,-5.2490234375,11.23046875
1.519320011138916,-1383109069,0,-0.977928102016449,-0.22213542461395264,0.2662476599216461,1.15966796875,-11.23046875,6.2255859375
1.51932692527771,-1383109050,0,-0.954246461391449,-0.22091472148895264,0.2804078161716461,-1.15966796875,-6.8359375,9.765625
1.541081190109253,-1383109045,1,0.9724549651145935,-0.18706867098808289,0.0980096384882927,0.0,0.06103515625,1.15966796875
1.546159267425537,-1383109031,0,-0.958396852016449,-0.20358073711395264,0.2723511755466461,-3.90625,2.38037109375,16.17431640625
1.561405897140503,-1383109026,1,0.9756287932395935,-0.17046710848808289,0.1067987009882927,-0.30517578125,1.220703125,-0.30517578125
1.5615010261535645,-1383109007,1,0.9675721526145935,-0.15728351473808289,0.1026483103632927,-0.3662109375,0.06103515625,1.28173828125
1.5870022773742676,-1383109012,0,-0.974021852016449,-0.19088542461395264,0.20765390992164612,-4.8828125,6.103515625,19.83642578125
1.587010145187378,-1383108993,0,-1.0089339017868042,-0.16915690898895264,0.19788828492164612,-1.953125,-6.8359375,17.08984375
1.5932481288909912,-1383108988,1,0.9631776213645935,-0.17168781161308289,0.1092401072382927,0.54931640625,-0.06103515625,0.3662109375
1.6063759326934814,-1383108974,0,-0.984519898891449,-0.18795573711395264,0.23499765992164612,2.13623046875,-16.90673828125,11.962890625
1.6214320659637451,-1383108969,1,0.9766053557395935,-0.17510578036308289,0.0899529978632927,0.1220703125,-0.732421875,-0.54931640625
1.6215600967407227,-1383108950,1,0.9822205901145935,-0.17388507723808289,0.0762811228632927,0.79345703125,-0.06103515625,0.1220703125
1.6426281929016113,-1383108955,0,-0.960838258266449,-0.19772136211395264,0.2848023474216461,1.77001953125,-16.90673828125,9.46044921875
1.6443431377410889,-1383108936,0,-0.941062867641449,-0.20016276836395264,0.2987183630466461,-1.40380859375,-3.41796875,14.70947265625
1.6526179313659668,-1383108931,1,0.9836854338645935,-0.17705890536308289,0.0894647166132927,0.67138671875,1.708984375,0.06103515625
1.6667211055755615,-1383108917,0,-0.958885133266449,-0.18136394023895264,0.2515992224216461,-5.92041015625,10.498046875,16.17431640625
1.689626932144165,-1383108912,1,0.9680604338645935,-0.16900226473808289,0.1016717478632927,0.9765625,0.79345703125,0.732421875
1.6965160369873047,-1383108898,0,-0.988182008266449,-0.19015300273895264,0.19398203492164612,-5.06591796875,6.9580078125,15.5029296875
1.6965901851654053,-1383108879,0,-1.0069807767868042,-0.18966472148895264,0.19324961304664612,-2.3193359375,-5.2490234375,11.5966796875
1.7115180492401123,-1383108876,1,0.9656190276145935,-0.17730304598808289,0.1182733103632927,0.8544921875,-1.220703125,0.91552734375
1.7402329444885254,-1383108843,0,-0.946433961391449,-0.21603190898895264,0.2730835974216461,0.91552734375,-15.9912109375,13.18359375
1.7451939582824707,-1383108857,1,0.9680604338645935,-0.18365070223808289,0.0984979197382927,0.42724609375,-2.685546875,0.42724609375
1.745203971862793,-1383108838,1,0.9768494963645935,-0.17925617098808289,0.0828729197382927,0.1220703125,-0.9765625,0.18310546875
1.7562901973724365,-1383108824,0,-0.963767945766449,-0.19674479961395264,0.2950562536716461,-2.50244140625,-5.55419921875,18.24951171875
1.7854132652282715,-1383108819,1,0.9878358244895935,-0.17608234286308289,0.0877557322382927,0.54931640625,-0.3662109375,0.18310546875
1.7854211330413818,-1383108800,1,0.9766053557395935,-0.16656085848808289,0.0945916697382927,-0.30517578125,0.0,1.15966796875
1.7921710014343262,-1383108805,0,-0.965965211391449,-0.18038737773895264,0.2528199255466461,-3.662109375,3.5400390625,18.06640625
1.7921791076660156,-1383108786,0,-0.977928102016449,-0.17477214336395264,0.23035898804664612,-3.47900390625,2.9296875,14.7705078125
1.8031439781188965,-1383108781,1,0.9753846526145935,-0.16387531161308289,0.1004510447382927,-0.42724609375,0.732421875,0.244140625
1.8427579402923584,-1383108762,1,0.9770936369895935,-0.17217609286308289,0.0970330759882927,0.91552734375,-0.9765625,0.3662109375
1.8435931205749512,-1383108743,1,0.9734315276145935,-0.17657062411308289,0.0955682322382927,0.732421875,-0.54931640625,1.03759765625
1.8479301929473877,-1383108767,0,-0.996482789516449,-0.19772136211395264,0.22742930054664612,-2.25830078125,-5.615234375,9.21630859375
1.8480839729309082,-1383108748,0,-0.978660523891449,-0.20821940898895264,0.2620972692966461,0.1220703125,-8.48388671875,9.033203125
1.8482072353363037,-1383108729,0,-0.972312867641449,-0.21993815898895264,0.2564820349216461,-2.13623046875,-5.615234375,14.70947265625
1.8615949153900146,-1383108724,1,0.9736756682395935,-0.18999835848808289,0.0989862009882927,0.732421875,0.9765625,-0.42724609375
1.86167311668396,-1383108705,1,0.9761170744895935,-0.18194171786308289,0.0948358103632927,0.0,-0.6103515625,0.6103515625
1.8930110931396484,-1383108686,1,0.9707459807395935,-0.16753742098808289,0.1031365916132927,0.54931640625,0.06103515625,1.220703125
1.9067871570587158,-1383108710,0,-0.966209352016449,-0.21236979961395264,0.2547730505466461,-2.38037109375,-1.28173828125,17.88330078125
1.9068942070007324,-1383108691,0,-0.989890992641449,-0.19235026836395264,0.23768320679664612,-3.2958984375,0.0,17.15087890625
1.9069809913635254,-1383108672,0,-0.988426148891449,-0.19137370586395264,0.23060312867164612,-1.40380859375,-6.89697265625,13.916015625
1.9382069110870361,-1383108667,1,0.9753846526145935,-0.16460773348808289,0.0919061228632927,-0.30517578125,-1.0986328125,0.42724609375
1.9382212162017822,-1383108648,1,0.9775819182395935,-0.18120929598808289,0.0872674509882927,0.9765625,-1.03759765625,0.06103515625
1.9435222148895264,-1383108653,0,-0.976463258266449,-0.19235026836395264,0.24500742554664612,0.3662109375,-9.3994140625,10.1318359375
1.9435300827026367,-1383108634,0,-0.952293336391449,-0.19381511211395264,0.2628296911716461,-1.0986328125,-8.11767578125,9.58251953125
1.9655799865722656,-1383108615,0,-0.950340211391449,-0.20431315898895264,0.2703980505466461,-2.74658203125,-1.8310546875,14.58740234375
1.9905269145965576,-1383108612,1,0.9809998869895935,-0.18291828036308289,0.0914178416132927,0.06103515625,1.03759765625,0.9765625
1.990535020828247,-1383108593,1,0.9729432463645935,-0.17022296786308289,0.1063104197382927,0.18310546875,-0.67138671875,1.15966796875
1.9964721202850342,-1383108579,0,-0.989402711391449,-0.19259440898895264,0.21864023804664612,-4.45556640625,0.48828125,15.625
2.011486053466797,-1383108574,1,0.9690369963645935,-0.17095538973808289,0.1050897166132927,1.3427734375,1.89208984375,-0.06103515625
2.039482831954956,-1383108560,0,-0.995994508266449,-0.20504558086395264,0.22401133179664612,-0.30517578125,-9.033203125,15.07568359375
2.0394911766052246,-1383108541,0,-0.967185914516449,-0.21432292461395264,0.23524180054664612,-0.42724609375,-12.6953125,12.5732421875
2.043550968170166,-1383108555,1,0.9670838713645935,-0.17657062411308289,0.1085076853632927,-0.3662109375,-0.79345703125,0.244140625
2.04355788230896,-1383108536,1,0.9687928557395935,-0.18462726473808289,0.0999627634882927,0.67138671875,-1.708984375,0.1220703125
2.056274890899658,-1383108522,0,-0.962791383266449,-0.20846354961395264,0.2701539099216461,-1.40380859375,-10.986328125,13.36669921875
2.0714690685272217,-1383108517,1,0.9809998869895935,-0.17998859286308289,0.0897088572382927,0.3662109375,-1.28173828125,0.6103515625
2.071502208709717,-1383108498,1,0.9753846526145935,-0.17486163973808289,0.0931268259882927,0.91552734375,0.6103515625,0.67138671875
2.091888904571533,-1383108503,0,-0.971336305141449,-0.19112956523895264,0.2852906286716461,-2.5634765625,-3.41796875,14.404296875
2.1031391620635986,-1383108479,1,0.9695252776145935,-0.16289874911308289,0.0948358103632927,0.48828125,1.52587890625,0.0
2.1195971965789795,-1383108484,0,-0.963035523891449,-0.17428386211395264,0.2535523474216461,-4.150390625,2.5634765625,13.5498046875
2.1196072101593018,-1383108465,0,-0.991355836391449,-0.18844401836395264,0.23060312867164612,-2.9296875,-0.30517578125,13.36669921875
2.140454053878784,-1383108460,1,0.9734315276145935,-0.17119953036308289,0.0992303416132927,0.42724609375,0.0,0.91552734375
2.1404621601104736,-1383108441,1,0.9770936369895935,-0.17534992098808289,0.0999627634882927,0.1220703125,-0.244140625,0.3662109375
2.151845932006836,-1383108446,0,-0.977928102016449,-0.20138347148895264,0.22742930054664612,-1.52587890625,-5.126953125,10.92529296875
2.151855945587158,-1383108427,0,-0.964012086391449,-0.21041667461395264,0.24989023804664612,-1.64794921875,-8.4228515625,11.71875
2.1870920658111572,-1383108408,0,-0.970848023891449,-0.20821940898895264,0.2589234411716461,-2.50244140625,-7.4462890625,15.44189453125
2.1870999336242676,-1383108389,0,-0.973533570766449,-0.20699870586395264,0.2567261755466461,-2.74658203125,-3.96728515625,17.02880859375
2.1936120986938477,-1383108422,1,0.9724549651145935,-0.18194171786308289,0.0997186228632927,0.244140625,0.30517578125,0.1220703125
2.1936211585998535,-1383108403,1,0.9739198088645935,-0.18169757723808289,0.0975213572382927,0.0,-1.52587890625,0.91552734375
2.1936261653900146,-1383108384,1,0.9722108244895935,-0.17461749911308289,0.1011834666132927,-0.54931640625,0.0,0.30517578125
2.207879066467285,-1383108370,0,-0.975486695766449,-0.19405925273895264,0.24793711304664612,-1.3427734375,-3.23486328125,17.39501953125
2.2396202087402344,-1383108348,1,0.9717225432395935,-0.17046710848808289,0.0977654978632927,-0.244140625,-1.40380859375,1.77001953125
2.2438111305236816,-1383108351,0,-0.965476930141449,-0.18453776836395264,0.24305430054664612,-1.15966796875,-5.126953125,13.61083984375
2.2524759769439697,-1383108329,1,0.9783143401145935,-0.17510578036308289,0.0933709666132927,-0.06103515625,-0.732421875,0.67138671875
2.295236110687256,-1383108315,0,-0.959617555141449,-0.19820964336395264,0.2608765661716461,-1.52587890625,-5.43212890625,10.19287109375
2.296265125274658,-1383108296,0,-0.968406617641449,-0.20870769023895264,0.24793711304664612,-3.2958984375,-1.77001953125,12.8173828125
2.3123490810394287,-1383108310,1,0.9795350432395935,-0.17852374911308289,0.0909295603632927,0.67138671875,0.48828125,0.48828125
2.312469005584717,-1383108291,1,0.9753846526145935,-0.18267413973808289,0.0965447947382927,0.48828125,-1.46484375,1.708984375
2.3124899864196777,-1383108272,1,0.9746522307395935,-0.17046710848808289,0.1014276072382927,-0.06103515625,-0.6103515625,0.42724609375
2.31386399269104,-1383108253,1,0.9761170744895935,-0.17290851473808289,0.1002069041132927,0.91552734375,1.0986328125,-0.06103515625
2.3395211696624756,-1383108277,0,-0.981590211391449,-0.20065104961395264,0.24403086304664612,-2.99072265625,0.42724609375,16.17431640625
2.339529037475586,-1383108258,0,-0.988426148891449,-0.19894206523895264,0.22669687867164612,-2.86865234375,-4.150390625,16.54052734375
2.339534044265747,-1383108239,0,-0.977195680141449,-0.19015300273895264,0.22669687867164612,-1.708984375,-9.70458984375,15.0146484375
2.3446600437164307,-1383108234,1,0.9736756682395935,-0.17095538973808289,0.1058221384882927,0.732421875,0.30517578125,0.0
2.357860803604126,-1383108220,0,-0.960349977016449,-0.18942058086395264,0.2525757849216461,-0.30517578125,-10.68115234375,13.61083984375
2.3841211795806885,-1383108215,1,0.9766053557395935,-0.18072101473808289,0.0906854197382927,0.79345703125,-1.3427734375,0.18310546875
2.384129047393799,-1383108196,1,0.9766053557395935,-0.18120929598808289,0.0882440134882927,0.6103515625,0.06103515625,-0.06103515625
2.391235113143921,-1383108201,0,-0.967674195766449,-0.19527995586395264,0.2611207067966461,-1.28173828125,-7.4462890625,13.916015625
2.3912441730499268,-1383108182,0,-0.958640992641449,-0.19576823711395264,0.2620972692966461,-2.3193359375,-1.46484375,13.916015625
2.418771982192993,-1383108163,0,-0.969139039516449,-0.19161784648895264,0.24012461304664612,-3.84521484375,1.708984375,13.36669921875
2.441801071166992,-1383108177,1,0.9780701994895935,-0.17242023348808289,0.0948358103632927,0.67138671875,-0.30517578125,0.6103515625
2.441809892654419,-1383108158,1,0.9702576994895935,-0.16900226473808289,0.1002069041132927,0.3662109375,1.77001953125,0.06103515625
2.442681074142456,-1383108139,1,0.9775819182395935,-0.16997882723808289,0.1002069041132927,0.30517578125,0.91552734375,0.48828125
2.44645094871521,-1383108144,0,-0.981590211391449,-0.18966472148895264,0.22962656617164612,-2.86865234375,-0.42724609375,12.6953125
2.4464709758758545,-1383108125,0,-0.978904664516449,-0.19894206523895264,0.23524180054664612,-2.685546875,-5.43212890625,11.04736328125
2.4613382816314697,-1383108120,1,0.9731873869895935,-0.17510578036308289,0.0989862009882927,0.8544921875,0.6103515625,-0.6103515625
2.4864919185638428,-1383108106,0,-0.960594117641449,-0.19943034648895264,0.24451914429664612,-1.0986328125,-9.21630859375,13.7939453125
2.4931552410125732,-1383108084,1,0.9744080901145935,-0.17437335848808289,0.0967889353632927,0.67138671875,-0.244140625,0.54931640625
2.508039951324463,-1383108087,0,-0.968406617641449,-0.20846354961395264,0.24866953492164612,-1.77001953125,-7.26318359375,15.0146484375
2.5214550495147705,-1383108065,1,0.9753846526145935,-0.17339679598808289,0.0994744822382927,0.0,-1.220703125,1.3427734375
2.5215680599212646,-1383108046,1,0.9741639494895935,-0.17022296786308289,0.0980096384882927,0.91552734375,0.48828125,0.79345703125
2.542893171310425,-1383108051,0,-0.973045289516449,-0.19479167461395264,0.23573008179664612,-3.35693359375,-3.173828125,14.6484375
2.544387102127075,-1383108032,0,-0.979392945766449,-0.18624675273895264,0.2508668005466461,-2.13623046875,-3.72314453125,12.6953125
2.5521399974823,-1383108027,1,0.9744080901145935,-0.17046710848808289,0.0960565134882927,1.0986328125,0.0,1.03759765625
2.566380023956299,-1383108013,0,-0.972312867641449,-0.19552409648895264,0.24207773804664612,-1.46484375,-4.21142578125,10.8642578125
2.5909571647644043,-1383108008,1,0.9748963713645935,-0.17437335848808289,0.0987420603632927,0.18310546875,0.79345703125,-0.1220703125
2.5909650325775146,-1383107989,1,0.9731873869895935,-0.17681476473808289,0.0953240916132927,0.8544921875,-0.9765625,1.0986328125
2.5964150428771973,-1383107994,0,-0.969139039516449,-0.20113933086395264,0.24671640992164612,-2.0751953125,-5.18798828125,10.6201171875
2.5965631008148193,-1383107975,0,-0.961326539516449,-0.20284831523895264,0.24866953492164612,-2.9296875,-2.3193359375,14.22119140625
2.611502170562744,-1383107970,1,0.9707459807395935,-0.17657062411308289,0.0967889353632927,0.42724609375,-0.244140625,1.0986328125
2.6386289596557617,-1383107956,0,-0.964256227016449,-0.18819987773895264,0.24476328492164612,-2.13623046875,-1.953125,15.5029296875
2.6438238620758057,-1383107951,1,0.9695252776145935,-0.17437335848808289,0.1024041697382927,0.48828125,-0.9765625,1.220703125
2.6581530570983887,-1383107937,0,-0.970115602016449,-0.18990886211395264,0.24354258179664612,-1.953125,-4.57763671875,15.93017578125
2.6582798957824707,-1383107918,0,-0.970848023891449,-0.19527995586395264,0.2542847692966461,-2.13623046875,-8.23974609375,13.5498046875
2.6847710609436035,-1383107932,1,0.9726991057395935,-0.17193195223808289,0.1028924509882927,0.6103515625,1.03759765625,0.0
2.684779167175293,-1383107913,1,0.9722108244895935,-0.17119953036308289,0.0975213572382927,0.79345703125,-0.18310546875,-0.06103515625
2.684783935546875,-1383107894,1,0.9812440276145935,-0.17461749911308289,0.0938592478632927,0.8544921875,-0.8544921875,0.48828125
2.6918139457702637,-1383107899,0,-0.961814820766449,-0.18404948711395264,0.2515992224216461,-0.48828125,-7.38525390625,12.5732421875
2.6918210983276367,-1383107880,0,-0.963767945766449,-0.20211589336395264,0.2638062536716461,-1.3427734375,-5.859375,13.12255859375
2.7024309635162354,-1383107875,1,0.9766053557395935,-0.17803546786308289,0.0943475291132927,1.15966796875,0.06103515625,0.42724609375
2.718149185180664,-1383107861,0,-0.971092164516449,-0.19210612773895264,0.2664918005466461,-2.38037109375,-0.67138671875,14.70947265625
2.7611889839172363,-1383107856,1,0.9724549651145935,-0.17046710848808289,0.0953240916132927,0.67138671875,-1.03759765625,1.220703125
2.7627551555633545,-1383107820,1,0.9709901213645935,-0.17193195223808289,0.1048455759882927,0.9765625,-0.244140625,1.220703125
2.784410238265991,-1383107842,0,-0.974510133266449,-0.18673503398895264,0.22279062867164612,-2.0751953125,-0.732421875,14.6484375
2.7844181060791016,-1383107823,0,-0.979148805141449,-0.19698894023895264,0.22279062867164612,-3.35693359375,-3.2958984375,13.671875
2.7844228744506836,-1383107787,0,-0.978172242641449,-0.20992839336395264,0.24573984742164612,-1.89208984375,-7.8125,13.5498046875
2.7926971912384033,-1383107801,1,0.9685487151145935,-0.17242023348808289,0.1002069041132927,1.220703125,-0.91552734375,0.67138671875
2.7927191257476807,-1383107782,1,0.9700135588645935,-0.18389484286308289,0.0989862009882927,1.15966796875,-0.732421875,-0.06103515625
2.821402072906494,-1383107763,1,0.9768494963645935,-0.18047687411308289,0.0933709666132927,0.48828125,-0.79345703125,0.06103515625
2.8446872234344482,-1383107768,0,-0.970603883266449,-0.20211589336395264,0.2511109411716461,-1.708984375,-6.28662109375,15.19775390625
2.844696044921875,-1383107749,0,-0.973777711391449,-0.19381511211395264,0.2518433630466461,-2.685546875,-3.47900390625,14.46533203125
2.8447020053863525,-1383107730,0,-0.975486695766449,-0.18136394023895264,0.24476328492164612,-2.25830078125,-3.23486328125,13.427734375
2.8529229164123535,-1383107744,1,0.9756287932395935,-0.17290851473808289,0.0945916697382927,0.30517578125,-0.67138671875,0.54931640625
2.853015184402466,-1383107725,1,0.9756287932395935,-0.16338703036308289,0.1004510447382927,0.30517578125,0.3662109375,0.67138671875
2.8682429790496826,-1383107711,0,-0.964012086391449,-0.19015300273895264,0.2530640661716461,-2.13623046875,-3.11279296875,13.48876953125
2.8891799449920654,-1383107706,1,0.9753846526145935,-0.16753742098808289,0.0953240916132927,0.91552734375,0.48828125,0.48828125
2.8891870975494385,-1383107687,1,0.9763612151145935,-0.17657062411308289,0.0948358103632927,0.6103515625,-0.06103515625,0.42724609375
2.896519899368286,-1383107692,0,-0.963279664516449,-0.19430339336395264,0.23695078492164612,-2.62451171875,-4.39453125,11.53564453125
2.896653175354004,-1383107673,0,-0.983299195766449,-0.21041667461395264,0.2620972692966461,-0.67138671875,-5.67626953125,13.61083984375
2.911655902862549,-1383107668,1,0.9741639494895935,-0.17559406161308289,0.0955682322382927,-0.3662109375,-0.1220703125,0.06103515625
2.9437801837921143,-1383107649,1,0.9795350432395935,-0.17559406161308289,0.1004510447382927,0.48828125,-0.91552734375,0.91552734375
2.9437880516052246,-1383107630,1,0.9751405119895935,-0.17095538973808289,0.1033807322382927,0.30517578125,-1.0986328125,1.28173828125
2.956876039505005,-1383107654,0,-0.964988648891449,-0.21285808086395264,0.24647226929664612,-2.99072265625,-4.33349609375,14.892578125
2.957024097442627,-1383107635,0,-0.966209352016449,-0.19723308086395264,0.23939219117164612,-1.46484375,-4.2724609375,15.5029296875
2.957059144973755,-1383107616,0,-0.978416383266449,-0.20211589336395264,0.24036875367164612,-1.8310546875,-5.0048828125,14.46533203125
2.9928839206695557,-1383107597,0,-0.970115602016449,-0.18990886211395264,0.23963633179664612,-1.89208984375,-5.55419921875,12.3291015625
3.0014500617980957,-1383107611,1,0.9722108244895935,-0.16997882723808289,0.0982537791132927,0.18310546875,-0.1220703125,0.1220703125
3.0015759468078613,-1383107592,1,0.9756287932395935,-0.17119953036308289,0.0965447947382927,0.30517578125,-1.52587890625,1.15966796875
3.0182790756225586,-1383107578,0,-0.969139039516449,-0.19674479961395264,0.2540406286716461,-1.953125,-5.67626953125,12.20703125
3.018287181854248,-1383107559,0,-0.963767945766449,-0.20895183086395264,0.2501343786716461,-2.5634765625,-4.21142578125,13.36669921875
3.0404350757598877,-1383107556,1,0.9746522307395935,-0.17852374911308289,0.0975213572382927,1.220703125,-0.48828125,0.8544921875
3.040442943572998,-1383107537,1,0.9705018401145935,-0.17217609286308289,0.0997186228632927,0.732421875,-0.30517578125,0.48828125
3.046566963195801,-1383107523,0,-0.979148805141449,-0.19918620586395264,0.23670664429664612,-2.01416015625,-3.11279296875,15.0146484375
3.0614089965820312,-1383107518,1,0.9722108244895935,-0.17290851473808289,0.0963006541132927,1.0986328125,0.3662109375,0.244140625
3.0864620208740234,-1383107504,0,-0.975486695766449,-0.18600261211395264,0.22791758179664612,-2.3193359375,-5.55419921875,13.916015625
3.1057469844818115,-1383107485,0,-0.969139039516449,-0.19723308086395264,0.24451914429664612,-1.46484375,-7.26318359375,13.5498046875
3.106520175933838,-1383107466,0,-0.977439820766449,-0.18697917461395264,0.2620972692966461,-1.3427734375,-6.65283203125,14.16015625
3.1374900341033936,-1383107499,1,0.9753846526145935,-0.17193195223808289,0.1016717478632927,0.30517578125,0.48828125,-0.54931640625
3.1374971866607666,-1383107480,1,0.9753846526145935,-0.17534992098808289,0.0987420603632927,0.67138671875,1.28173828125,-0.67138671875
3.137503147125244,-1383107461,1,0.9739198088645935,-0.17559406161308289,0.0943475291132927,-0.54931640625,-0.18310546875,0.6103515625
3.1375088691711426,-1383107442,1,0.9766053557395935,-0.17437335848808289,0.0931268259882927,0.6103515625,0.06103515625,0.79345703125
3.141007900238037,-1383107447,0,-0.964012086391449,-0.18673503398895264,0.2528199255466461,-2.0751953125,-4.5166015625,13.73291015625
3.1530051231384277,-1383107423,1,0.9748963713645935,-0.17168781161308289,0.0999627634882927,0.67138671875,0.48828125,0.54931640625
3.16800594329834,-1383107428,0,-0.975242555141449,-0.18649089336395264,0.24256601929664612,-2.25830078125,-2.62451171875,14.2822265625
3.1908891201019287,-1383107404,1,0.9739198088645935,-0.16875812411308289,0.0975213572382927,-0.48828125,0.06103515625,0.9765625
3.192528009414673,-1383107385,1,0.9714784026145935,-0.17339679598808289,0.0997186228632927,0.48828125,-0.30517578125,1.0986328125
3.1967411041259766,-1383107409,0,-0.968162477016449,-0.19186198711395264,0.2523316442966461,-1.40380859375,-3.11279296875,14.6484375
3.1969079971313477,-1383107390,0,-0.975730836391449,-0.20504558086395264,0.24720469117164612,-1.89208984375,-3.72314453125,12.75634765625
3.196927070617676,-1383107371,0,-0.982810914516449,-0.19601237773895264,0.24525156617164612,-1.3427734375,-5.126953125,13.61083984375
3.2113118171691895,-1383107366,1,0.9753846526145935,-0.17754718661308289,0.0933709666132927,0.48828125,0.1220703125,0.1220703125
3.2396202087402344,-1383107352,0,-0.967918336391449,-0.20358073711395264,0.24793711304664612,-0.732421875,-5.31005859375,15.44189453125
3.2445011138916016,-1383107347,1,0.9788026213645935,-0.17779132723808289,0.0999627634882927,0.91552734375,-0.67138671875,1.52587890625
3.244508981704712,-1383107328,1,0.9758729338645935,-0.17510578036308289,0.1028924509882927,0.42724609375,-1.40380859375,-0.06103515625
3.2573492527008057,-1383107333,0,-0.973777711391449,-0.19772136211395264,0.2506226599216461,-1.8310546875,-5.2490234375,15.2587890625
3.2574379444122314,-1383107314,0,-0.976463258266449,-0.19796550273895264,0.24549570679664612,-1.8310546875,-3.84521484375,14.6484375
3.2936131954193115,-1383107295,0,-0.963035523891449,-0.18722331523895264,0.2515992224216461,-2.3193359375,-4.08935546875,14.16015625
3.30208420753479,-1383107292,1,0.9717225432395935,-0.16778156161308289,0.0994744822382927,0.6103515625,0.244140625,0.06103515625
3.302196979522705,-1383107273,1,0.9717225432395935,-0.17681476473808289,0.0980096384882927,0.48828125,0.244140625,0.6103515625
3.3203232288360596,-1383107259,0,-0.964744508266449,-0.20040690898895264,0.24696055054664612,-1.5869140625,-4.8828125,11.8408203125
3.342104196548462,-1383107254,1,0.9746522307395935,-0.17754718661308289,0.0941033884882927,0.6103515625,0.18310546875,0.8544921875
3.3421120643615723,-1383107235,1,0.9714784026145935,-0.17803546786308289,0.0960565134882927,0.48828125,-0.42724609375,1.0986328125
3.3519492149353027,-1383107240,0,-0.960594117641449,-0.19454753398895264,0.2523316442966461,-2.0751953125,-3.96728515625,14.09912109375
3.3519580364227295,-1383107221,0,-0.973777711391449,-0.18746745586395264,0.23963633179664612,-2.50244140625,-3.2958984375,14.7705078125
3.362959146499634,-1383107216,1,0.9739198088645935,-0.17730304598808289,0.0987420603632927,0.79345703125,1.46484375,-0.6103515625
3.387385129928589,-1383107202,0,-0.976707398891449,-0.20797526836395264,0.24232187867164612,-1.708984375,-3.47900390625,15.07568359375
3.3928000926971436,-1383107197,1,0.9763612151145935,-0.16704913973808289,0.0989862009882927,0.0,-0.06103515625,-0.1220703125
3.392807960510254,-1383107178,1,0.9751405119895935,-0.17705890536308289,0.1004510447382927,-0.244140625,-0.3662109375,0.06103515625
3.4068422317504883,-1383107183,0,-0.968162477016449,-0.18868815898895264,0.22865000367164612,-1.64794921875,-4.8828125,14.2822265625
3.421118974685669,-1383107159,1,0.9702576994895935,-0.17071124911308289,0.0960565134882927,0.9765625,0.244140625,0.30517578125
3.4442920684814453,-1383107164,0,-0.983543336391449,-0.21481120586395264,0.2569703161716461,-0.8544921875,-5.615234375,14.16015625
3.4443001747131348,-1383107145,0,-0.969627320766449,-0.18893229961395264,0.2559937536716461,-1.15966796875,-5.9814453125,14.46533203125
3.465693950653076,-1383107126,0,-0.962303102016449,-0.19064128398895264,0.2501343786716461,-1.64794921875,-3.662109375,14.83154296875
3.466369152069092,-1383107107,0,-0.973533570766449,-0.18942058086395264,0.2528199255466461,-0.9765625,-2.38037109375,14.34326171875
3.4887099266052246,-1383107140,1,0.9775819182395935,-0.17876788973808289,0.0904412791132927,0.67138671875,0.06103515625,0.79345703125
3.4887192249298096,-1383107121,1,0.9709901213645935,-0.17510578036308289,0.0901971384882927,-0.244140625,0.732421875,0.0
3.488769054412842,-1383107102,1,0.9722108244895935,-0.17144367098808289,0.0980096384882927,1.46484375,0.30517578125,-0.06103515625
3.4887750148773193,-1383107083,1,0.9726991057395935,-0.16826984286308289,0.1004510447382927,0.9765625,0.06103515625,0.8544921875
3.496424913406372,-1383107088,0,-0.986717164516449,-0.19845378398895264,0.23280039429664612,-3.90625,-2.99072265625,12.939453125
3.496488094329834,-1383107069,0,-0.973533570766449,-0.19210612773895264,0.23499765992164612,-0.91552734375,-4.45556640625,13.85498046875
3.5113658905029297,-1383107064,1,0.9756287932395935,-0.17339679598808289,0.0980096384882927,1.03759765625,-1.28173828125,0.6103515625
3.5399229526519775,-1383107050,0,-0.970359742641449,-0.20333659648895264,0.24134531617164612,-1.8310546875,-5.859375,13.18359375
3.5442380905151367,-1383107028,1,0.9741639494895935,-0.17266437411308289,0.0975213572382927,0.0,-0.54931640625,0.1220703125
3.5703320503234863,-1383107009,1,0.9746522307395935,-0.17046710848808289,0.0945916697382927,0.732421875,0.1220703125,-0.42724609375
3.5927860736846924,-1383107031,0,-0.966453492641449,-0.20406901836395264,0.2506226599216461,-2.3193359375,-6.103515625,14.70947265625
3.5927958488464355,-1383106995,0,-0.971824586391449,-0.19039714336395264,0.2557496130466461,-3.11279296875,-4.45556640625,14.58740234375
3.6015942096710205,-1383106990,1,0.9717225432395935,-0.17290851473808289,0.0980096384882927,1.3427734375,0.54931640625,-0.06103515625
3.6016881465911865,-1383106971,1,0.9746522307395935,-0.17193195223808289,0.0950799509882927,0.8544921875,-0.1220703125,0.6103515625
3.618980884552002,-1383106976,0,-0.972801148891449,-0.18478190898895264,0.24061289429664612,-1.64794921875,-3.72314453125,14.46533203125
3.6189911365509033,-1383106957,0,-0.982566773891449,-0.19039714336395264,0.2599000036716461,-1.28173828125,-4.21142578125,12.20703125
3.640430212020874,-1383106952,1,0.9795350432395935,-0.17901203036308289,0.0926385447382927,0.0,0.18310546875,0.79345703125
3.6464781761169434,-1383106938,0,-0.963767945766449,-0.20724284648895264,0.24476328492164612,-0.9765625,-3.72314453125,13.0615234375
3.6465020179748535,-1383106919,0,-0.963279664516449,-0.20944011211395264,0.2506226599216461,-1.708984375,-3.662109375,14.09912109375
3.661471128463745,-1383106933,1,0.9751405119895935,-0.17730304598808289,0.0941033884882927,0.6103515625,-0.3662109375,0.8544921875
3.661635160446167,-1383106914,1,0.9724549651145935,-0.17901203036308289,0.1009393259882927,1.28173828125,0.42724609375,0.6103515625
3.686128854751587,-1383106900,0,-0.972068727016449,-0.20260417461395264,0.2533082067966461,-2.5634765625,-4.33349609375,14.83154296875
3.6930391788482666,-1383106895,1,0.9746522307395935,-0.17290851473808289,0.0972772166132927,-0.3662109375,0.6103515625,0.30517578125
3.6930460929870605,-1383106876,1,0.9719666838645935,-0.17095538973808289,0.1019158884882927,0.06103515625,-1.28173828125,1.5869140625
3.706510066986084,-1383106881,0,-0.971092164516449,-0.19454753398895264,0.23573008179664612,-1.8310546875,-5.06591796875,15.19775390625
3.7065651416778564,-1383106862,0,-0.966209352016449,-0.19527995586395264,0.24940195679664612,-2.44140625,-5.126953125,14.404296875
3.7390501499176025,-1383106857,1,0.9719666838645935,-0.17486163973808289,0.1004510447382927,0.48828125,-0.244140625,0.67138671875
3.7514681816101074,-1383106838,1,0.9744080901145935,-0.17461749911308289,0.0953240916132927,0.91552734375,-0.79345703125,0.06103515625
3.7514760494232178,-1383106819,1,0.9736756682395935,-0.18023273348808289,0.0972772166132927,0.6103515625,0.54931640625,0.67138671875
3.766407012939453,-1383106843,0,-0.972801148891449,-0.19967448711395264,0.2528199255466461,-2.25830078125,-6.16455078125,13.48876953125
3.7665250301361084,-1383106824,0,-0.963767945766449,-0.20358073711395264,0.2569703161716461,-2.50244140625,-5.79833984375,13.18359375
3.767641067504883,-1383106805,0,-0.960349977016449,-0.19820964336395264,0.24769297242164612,-1.77001953125,-2.197265625,14.16015625
3.7880470752716064,-1383106800,1,0.9731873869895935,-0.16900226473808289,0.0926385447382927,1.77001953125,1.5869140625,0.18310546875
3.796661138534546,-1383106786,0,-0.975730836391449,-0.19625651836395264,0.24354258179664612,-2.197265625,-2.5634765625,14.16015625
3.8113880157470703,-1383106764,1,0.9761170744895935,-0.17364093661308289,0.1002069041132927,1.15966796875,-0.6103515625,1.28173828125
3.8389060497283936,-1383106767,0,-0.976463258266449,-0.19332683086395264,0.2545289099216461,-2.01416015625,-3.47900390625,13.0615234375
3.843240976333618,-1383106745,1,0.9719666838645935,-0.17559406161308289,0.0994744822382927,0.79345703125,-0.732421875,0.6103515625
3.8436880111694336,-1383106726,1,0.9702576994895935,-0.17754718661308289,0.0955682322382927,0.67138671875,0.1220703125,-0.54931640625
3.8564820289611816,-1383106731,0,-0.975486695766449,-0.20162761211395264,0.2635621130466461,-1.3427734375,-5.9814453125,13.85498046875
3.856553077697754,-1383106712,0,-0.968894898891449,-0.19772136211395264,0.2533082067966461,-2.38037109375,-6.04248046875,13.97705078125
3.871392011642456,-1383106707,1,0.9783143401145935,-0.17534992098808289,0.0972772166132927,0.732421875,-0.732421875,0.91552734375
3.892207145690918,-1383106693,0,-0.980857789516449,-0.19308269023895264,0.2655152380466461,-2.44140625,-3.72314453125,14.16015625
3.9023070335388184,-1383106688,1,0.9748963713645935,-0.17119953036308289,0.0948358103632927,0.79345703125,0.0,0.6103515625
3.902426242828369,-1383106669,1,0.9731873869895935,-0.17119953036308289,0.0916619822382927,-0.18310546875,0.54931640625,0.244140625
3.9187750816345215,-1383106674,0,-0.971336305141449,-0.19259440898895264,0.23768320679664612,-2.50244140625,-3.7841796875,14.2822265625
3.91878604888916,-1383106655,0,-0.976219117641449,-0.20309245586395264,0.24842539429664612,-1.52587890625,-3.7841796875,12.939453125
3.940547227859497,-1383106650,1,0.9731873869895935,-0.17168781161308289,0.0965447947382927,0.79345703125,0.06103515625,0.67138671875
3.946408987045288,-1383106636,0,-0.977683961391449,-0.20553386211395264,0.24915781617164612,-2.38037109375,-5.2490234375,13.00048828125
3.9614899158477783,-1383106631,1,0.9724549651145935,-0.17779132723808289,0.0960565134882927,1.3427734375,-0.54931640625,1.40380859375
3.9616169929504395,-1383106612,1,0.9748963713645935,-0.18120929598808289,0.0980096384882927,0.54931640625,-0.9765625,0.67138671875
3.9926469326019287,-1383106593,1,0.9707459807395935,-0.17608234286308289,0.0994744822382927,1.220703125,0.42724609375,-0.30517578125
4.006974935531616,-1383106617,0,-0.972557008266449,-0.20821940898895264,0.2533082067966461,-1.3427734375,-4.39453125,14.892578125
4.007141828536987,-1383106598,0,-0.968406617641449,-0.20821940898895264,0.24305430054664612,-1.64794921875,-3.96728515625,14.892578125
4.007169008255005,-1383106579,0,-0.982810914516449,-0.19918620586395264,0.2503785192966461,-2.3193359375,-5.0048828125,14.404296875
4.00771689414978,-1383106560,0,-0.981590211391449,-0.19308269023895264,0.24818125367164612,-1.8310546875,-5.126953125,13.61083984375
4.021432161331177,-1383106574,1,0.9744080901145935,-0.17266437411308289,0.0994744822382927,0.18310546875,-0.06103515625,-0.30517578125
4.038801908493042,-1383106555,1,0.9734315276145935,-0.17290851473808289,0.0984979197382927,1.03759765625,0.42724609375,-0.3662109375
4.0436930656433105,-1383106541,0,-0.974265992641449,-0.18551433086395264,0.2528199255466461,-1.46484375,-4.45556640625,13.24462890625
4.0521368980407715,-1383106536,1,0.9741639494895935,-0.17657062411308289,0.0943475291132927,1.0986328125,-0.30517578125,-0.244140625
4.066504001617432,-1383106522,0,-0.967185914516449,-0.19332683086395264,0.23963633179664612,-1.28173828125,-4.45556640625,15.380859375
4.066627025604248,-1383106503,0,-0.968894898891449,-0.19527995586395264,0.24378672242164612,-3.2958984375,-4.39453125,12.8173828125
4.090269088745117,-1383106500,1,0.9758729338645935,-0.18047687411308289,0.0977654978632927,1.5869140625,-0.1220703125,0.67138671875
4.110628843307495,-1383106481,1,0.9761170744895935,-0.17315265536308289,0.1028924509882927,1.220703125,-0.732421875,-0.1220703125
4.111438035964966,-1383106462,1,0.9788026213645935,-0.17242023348808289,0.1014276072382927,1.03759765625,0.1220703125,-0.8544921875
4.136744022369385,-1383106467,0,-0.976951539516449,-0.20724284648895264,0.24305430054664612,-2.38037109375,-3.96728515625,14.83154296875
4.136751174926758,-1383106448,0,-0.977195680141449,-0.19552409648895264,0.23988047242164612,-2.01416015625,-4.8828125,13.12255859375
4.1412129402160645,-1383106443,1,0.9761170744895935,-0.16973468661308289,0.0982537791132927,0.9765625,-0.91552734375,0.79345703125
4.156422853469849,-1383106429,0,-0.974021852016449,-0.20480144023895264,0.24134531617164612,-1.28173828125,-5.55419921875,13.0615234375
4.156543016433716,-1383106410,0,-0.978660523891449,-0.19479167461395264,0.2640503942966461,-0.91552734375,-5.9814453125,14.22119140625
4.185810089111328,-1383106424,1,0.9785584807395935,-0.17827960848808289,0.0953240916132927,0.0,-0.3662109375,0.6103515625
4.185818195343018,-1383106405,1,0.9797791838645935,-0.17510578036308289,0.0975213572382927,-0.18310546875,-0.1220703125,0.30517578125
4.19298791885376,-1383106391,0,-0.965965211391449,-0.20651042461395264,0.24549570679664612,-2.5634765625,-4.2724609375,14.46533203125
4.2016520500183105,-1383106386,1,0.9687928557395935,-0.17974445223808289,0.0948358103632927,0.54931640625,0.18310546875,-0.67138671875
4.201771974563599,-1383106367,1,0.9753846526145935,-0.16973468661308289,0.0887322947382927,0.8544921875,-0.244140625,1.0986328125
4.2192299365997314,-1383106372,0,-0.961814820766449,-0.19869792461395264,0.2518433630466461,-2.50244140625,-4.0283203125,14.09912109375
4.219238042831421,-1383106353,0,-0.981346070766449,-0.19527995586395264,0.24329844117164612,-1.5869140625,-3.72314453125,13.24462890625
4.240718126296997,-1383106348,1,0.9722108244895935,-0.17242023348808289,0.0982537791132927,0.42724609375,1.46484375,-0.48828125
4.246594190597534,-1383106334,0,-0.975974977016449,-0.20480144023895264,0.23597422242164612,-1.89208984375,-4.0283203125,13.36669921875
4.261470079421997,-1383106329,1,0.9714784026145935,-0.17486163973808289,0.0977654978632927,0.244140625,0.67138671875,-0.18310546875
4.28804612159729,-1383106315,0,-0.980857789516449,-0.19186198711395264,0.24696055054664612,-1.64794921875,-4.2724609375,13.3056640625
4.288055181503296,-1383106296,0,-0.972068727016449,-0.20675456523895264,0.2528199255466461,-2.8076171875,-5.55419921875,13.671875
4.29389214515686,-1383106310,1,0.9700135588645935,-0.17950031161308289,0.0997186228632927,-0.06103515625,-0.6103515625,0.54931640625
4.293899059295654,-1383106291,1,0.9775819182395935,-0.17559406161308289,0.0928826853632927,0.79345703125,-0.244140625,0.30517578125
4.306380033493042,-1383106277,0,-0.961326539516449,-0.19308269023895264,0.24598398804664612,-1.953125,-4.8828125,14.70947265625
4.321302175521851,-1383106272,1,0.9768494963645935,-0.17437335848808289,0.0999627634882927,0.8544921875,-0.91552734375,1.46484375
4.344167947769165,-1383106258,0,-0.970115602016449,-0.20162761211395264,0.23817148804664612,-1.3427734375,-4.33349609375,15.31982421875
4.344177007675171,-1383106239,0,-0.975730836391449,-0.19015300273895264,0.24158945679664612,-1.52587890625,-3.60107421875,14.46533203125
4.352554082870483,-1383106236,1,0.9766053557395935,-0.16900226473808289,0.1033807322382927,0.9765625,1.0986328125,-0.79345703125
4.352564096450806,-1383106217,1,0.9778260588645935,-0.17290851473808289,0.0923944041132927,1.77001953125,-0.91552734375,1.15966796875
4.387953996658325,-1383106198,1,0.9748963713645935,-0.17486163973808289,0.0982537791132927,-0.1220703125,-0.9765625,0.732421875
4.396486043930054,-1383106203,0,-0.976219117641449,-0.20113933086395264,0.24158945679664612,-2.74658203125,-5.0048828125,13.00048828125
4.396549940109253,-1383106184,0,-0.971580445766449,-0.19430339336395264,0.2511109411716461,-2.0751953125,-4.08935546875,14.2822265625
4.4115519523620605,-1383106179,1,0.9746522307395935,-0.17657062411308289,0.0977654978632927,0.30517578125,0.67138671875,0.18310546875
4.411660194396973,-1383106160,1,0.9746522307395935,-0.16973468661308289,0.0963006541132927,0.67138671875,0.42724609375,-0.732421875
4.439391136169434,-1383106165,0,-0.969627320766449,-0.20553386211395264,0.24158945679664612,-2.50244140625,-4.69970703125,14.2822265625
4.439399003982544,-1383106146,0,-0.960594117641449,-0.20113933086395264,0.24915781617164612,-2.5634765625,-4.57763671875,14.404296875
4.444036245346069,-1383106141,1,0.9746522307395935,-0.17290851473808289,0.0992303416132927,1.52587890625,-0.6103515625,0.9765625
4.456338882446289,-1383106127,0,-0.971824586391449,-0.20260417461395264,0.24525156617164612,-1.220703125,-5.37109375,14.0380859375
4.4732301235198975,-1383106122,1,0.9756287932395935,-0.17681476473808289,0.0992303416132927,1.0986328125,0.18310546875,0.0
4.485785245895386,-1383106103,1,0.9756287932395935,-0.17266437411308289,0.0958123728632927,0.48828125,1.0986328125,-0.6103515625
4.493366003036499,-1383106108,0,-0.976463258266449,-0.20284831523895264,0.2511109411716461,-2.25830078125,-5.55419921875,13.12255859375
4.493375062942505,-1383106089,0,-0.966209352016449,-0.19894206523895264,0.2525757849216461,-1.5869140625,-5.0048828125,13.3056640625
4.518602132797241,-1383106070,0,-0.966697633266449,-0.19112956523895264,0.2606324255466461,-1.89208984375,-3.60107421875,14.404296875
4.518610954284668,-1383106051,0,-0.978660523891449,-0.20553386211395264,0.2515992224216461,-1.03759765625,-3.72314453125,15.0146484375
4.540563106536865,-1383106084,1,0.9763612151145935,-0.17730304598808289,0.0987420603632927,0.91552734375,0.30517578125,1.220703125
4.56052303314209,-1383106065,1,0.9717225432395935,-0.17583820223808289,0.0931268259882927,1.03759765625,0.91552734375,0.6103515625
4.561570167541504,-1383106046,1,0.9788026213645935,-0.17754718661308289,0.1009393259882927,0.79345703125,-0.6103515625,0.0
4.561662912368774,-1383106027,1,0.9761170744895935,-0.16851398348808289,0.0965447947382927,0.48828125,-0.244140625,0.42724609375
4.562714099884033,-1383106008,1,0.9797791838645935,-0.17559406161308289,0.0943475291132927,0.9765625,0.8544921875,0.06103515625
4.586400032043457,-1383106032,0,-0.968406617641449,-0.18673503398895264,0.24354258179664612,-1.15966796875,-3.47900390625,14.46533203125
4.587400913238525,-1383106013,0,-0.968162477016449,-0.19552409648895264,0.24818125367164612,-2.13623046875,-4.33349609375,13.73291015625
4.587407112121582,-1383105994,0,-0.978904664516449,-0.18966472148895264,0.24696055054664612,-1.52587890625,-5.7373046875,14.09912109375
4.60539698600769,-1383105975,0,-0.974754273891449,-0.19405925273895264,0.24573984742164612,-2.01416015625,-5.0048828125,14.70947265625
4.633876085281372,-1383105972,1,0.9717225432395935,-0.17290851473808289,0.0972772166132927,0.54931640625,0.48828125,-0.1220703125
4.637007236480713,-1383105953,1,0.9741639494895935,-0.17412921786308289,0.0931268259882927,0.9765625,-0.1220703125,0.1220703125
4.6406800746917725,-1383105939,0,-0.974998414516449,-0.20211589336395264,0.24769297242164612,-1.5869140625,-3.60107421875,14.6484375
4.651998996734619,-1383105934,1,0.9731873869895935,-0.17266437411308289,0.0948358103632927,0.48828125,-1.03759765625,1.28173828125
4.652008056640625,-1383105915,1,0.9734315276145935,-0.16875812411308289,0.0958123728632927,1.52587890625,0.8544921875,-0.06103515625
4.6664252281188965,-1383105920,0,-0.969627320766449,-0.19308269023895264,0.24647226929664612,-2.38037109375,-4.21142578125,13.24462890625
4.66654109954834,-1383105901,0,-0.979148805141449,-0.20065104961395264,0.24989023804664612,-0.6103515625,-3.72314453125,13.12255859375
4.690436124801636,-1383105896,1,0.9692811369895935,-0.17510578036308289,0.1006951853632927,1.03759765625,0.3662109375,-0.18310546875
4.696362018585205,-1383105882,0,-0.969627320766449,-0.19845378398895264,0.2518433630466461,-2.44140625,-4.21142578125,13.18359375
4.711730003356934,-1383105877,1,0.9756287932395935,-0.17144367098808289,0.0972772166132927,1.15966796875,-1.15966796875,0.6103515625
4.711852073669434,-1383105858,1,0.9746522307395935,-0.17730304598808289,0.0965447947382927,1.0986328125,0.79345703125,-0.1220703125
4.738766193389893,-1383105863,0,-0.966697633266449,-0.20016276836395264,0.2508668005466461,-2.685546875,-4.82177734375,13.12255859375
4.738774061203003,-1383105844,0,-0.969871461391449,-0.20382487773895264,0.2547730505466461,-1.953125,-5.126953125,14.70947265625
4.743596076965332,-1383105839,1,0.9714784026145935,-0.17193195223808289,0.1019158884882927,0.54931640625,-0.06103515625,0.1220703125
4.7564191818237305,-1383105825,0,-0.978416383266449,-0.19479167461395264,0.24818125367164612,-1.46484375,-5.4931640625,14.6484375
4.771445035934448,-1383105820,1,0.9739198088645935,-0.17412921786308289,0.0965447947382927,0.67138671875,-0.54931640625,0.3662109375
4.772974014282227,-1383105801,1,0.9788026213645935,-0.17315265536308289,0.0967889353632927,-0.244140625,0.67138671875,0.1220703125
4.793513059616089,-1383105806,0,-0.965965211391449,-0.19308269023895264,0.2540406286716461,-1.46484375,-5.4931640625,13.61083984375
4.801542043685913,-1383105782,1,0.9753846526145935,-0.17681476473808289,0.0982537791132927,0.48828125,-0.67138671875,0.79345703125
4.818937063217163,-1383105787,0,-0.977683961391449,-0.19479167461395264,0.24647226929664612,-2.25830078125,-4.94384765625,14.22119140625
4.818947076797485,-1383105768,0,-0.979881227016449,-0.18746745586395264,0.23670664429664612,-2.38037109375,-4.08935546875,13.916015625
4.8189520835876465,-1383105749,0,-0.966453492641449,-0.19479167461395264,0.24427500367164612,-2.44140625,-4.0283203125,13.5498046875
4.841087102890015,-1383105763,1,0.9766053557395935,-0.17437335848808289,0.0984979197382927,0.48828125,1.40380859375,0.18310546875
4.841094970703125,-1383105744,1,0.9678162932395935,-0.17095538973808289,0.0945916697382927,1.0986328125,0.8544921875,-0.244140625
4.8462982177734375,-1383105730,0,-0.972312867641449,-0.19650065898895264,0.24549570679664612,-2.3193359375,-3.23486328125,13.73291015625
4.861411094665527,-1383105708,1,0.9763612151145935,-0.17388507723808289,0.0997186228632927,0.30517578125,0.0,-0.06103515625
4.8872599601745605,-1383105711,0,-0.970359742641449,-0.19845378398895264,0.24378672242164612,-1.5869140625,-3.7841796875,14.46533203125
4.892657041549683,-1383105689,1,0.9756287932395935,-0.17193195223808289,0.0984979197382927,0.42724609375,0.3662109375,-0.18310546875
4.906293153762817,-1383105675,0,-0.955467164516449,-0.19698894023895264,0.24476328492164612,-1.89208984375,-6.4697265625,14.0380859375
4.937407970428467,-1383105670,1,0.9709901213645935,-0.17388507723808289,0.0984979197382927,0.67138671875,0.67138671875,0.48828125
4.937420129776001,-1383105651,1,0.9758729338645935,-0.17608234286308289,0.0931268259882927,0.79345703125,0.0,-0.9765625
4.94308614730835,-1383105656,0,-0.973533570766449,-0.19527995586395264,0.24622812867164612,-0.732421875,-4.7607421875,14.95361328125
4.9430952072143555,-1383105637,0,-0.972801148891449,-0.19650065898895264,0.24818125367164612,-1.953125,-4.08935546875,13.73291015625
4.960201978683472,-1383105632,1,0.9802674651145935,-0.17168781161308289,0.0923944041132927,0.244140625,-0.79345703125,1.15966796875
4.966610908508301,-1383105618,0,-0.972312867641449,-0.18990886211395264,0.24036875367164612,-1.64794921875,-4.82177734375,14.892578125
4.966697931289673,-1383105599,0,-0.979881227016449,-0.19235026836395264,0.23939219117164612,-1.953125,-3.2958984375,13.7939453125
4.991904973983765,-1383105613,1,0.9631776213645935,-0.17242023348808289,0.0972772166132927,0.244140625,-0.3662109375,-0.1220703125
4.99461817741394,-1383105594,1,0.9812440276145935,-0.17754718661308289,0.1014276072382927,0.732421875,0.30517578125,0.54931640625
4.99746298789978,-1383105580,0,-0.979637086391449,-0.19308269023895264,0.23328867554664612,-2.38037109375,-4.7607421875,12.451171875
5.016266107559204,-1383105575,1,0.9780701994895935,-0.17388507723808289,0.0958123728632927,0.6103515625,-0.18310546875,0.67138671875
5.016277074813843,-1383105556,1,0.9722108244895935,-0.17144367098808289,0.1016717478632927,0.42724609375,0.30517578125,1.03759765625
5.040998935699463,-1383105537,1,0.9722108244895935,-0.17315265536308289,0.0972772166132927,0.244140625,-0.9765625,0.1220703125
5.056633234024048,-1383105561,0,-0.976463258266449,-0.19259440898895264,0.24647226929664612,-1.89208984375,-5.4931640625,12.8173828125
5.056766986846924,-1383105542,0,-0.980613648891449,-0.19894206523895264,0.2574585974216461,-1.64794921875,-4.8828125,14.95361328125
5.0577170848846436,-1383105523,0,-0.978172242641449,-0.19796550273895264,0.2503785192966461,-2.9296875,-4.45556640625,14.46533203125
5.085783004760742,-1383105518,1,0.9805116057395935,-0.17266437411308289,0.0960565134882927,1.220703125,0.79345703125,-0.244140625
5.092864990234375,-1383105504,0,-0.982566773891449,-0.18404948711395264,0.24793711304664612,-1.708984375,-4.45556640625,14.6484375
5.092874050140381,-1383105485,0,-0.973533570766449,-0.19308269023895264,0.24525156617164612,-2.38037109375,-4.82177734375,14.16015625
5.101521968841553,-1383105499,1,0.9661073088645935,-0.17315265536308289,0.0975213572382927,0.67138671875,0.6103515625,1.15966796875
5.101629972457886,-1383105480,1,0.9775819182395935,-0.17095538973808289,0.0943475291132927,0.732421875,-0.8544921875,0.9765625
5.118092060089111,-1383105466,0,-0.977439820766449,-0.19479167461395264,0.24305430054664612,-2.3193359375,-4.57763671875,12.02392578125
5.141107082366943,-1383105444,1,0.9734315276145935,-0.17242023348808289,0.0997186228632927,0.732421875,0.67138671875,0.6103515625
5.1462931632995605,-1383105447,0,-0.970603883266449,-0.18527019023895264,0.24378672242164612,-2.25830078125,-4.45556640625,13.85498046875
5.161566972732544,-1383105425,1,0.9751405119895935,-0.16973468661308289,0.0945916697382927,0.30517578125,0.48828125,0.18310546875
5.16176700592041,-1383105406,1,0.9712342619895935,-0.17437335848808289,0.0970330759882927,1.0986328125,-0.732421875,0.79345703125
5.193009853363037,-1383105387,1,0.9768494963645935,-0.17925617098808289,0.0904412791132927,0.91552734375,-1.52587890625,0.9765625
5.2067551612854,-1383105411,0,-0.977928102016449,-0.20724284648895264,0.24500742554664612,-1.46484375,-3.84521484375,14.70947265625
5.206943988800049,-1383105392,0,-0.970603883266449,-0.19454753398895264,0.23573008179664612,-3.84521484375,-6.103515625,12.8173828125
5.2069690227508545,-1383105373,0,-0.967674195766449,-0.19552409648895264,0.2567261755466461,-2.01416015625,-7.080078125,13.12255859375
5.241193056106567,-1383105368,1,0.9770936369895935,-0.17437335848808289,0.0963006541132927,0.732421875,-0.8544921875,1.8310546875
5.241204023361206,-1383105349,1,0.9724549651145935,-0.16582843661308289,0.0982537791132927,0.8544921875,0.67138671875,-0.8544921875
5.245074987411499,-1383105354,0,-0.972312867641449,-0.19674479961395264,0.2623414099216461,-3.72314453125,-4.82177734375,13.36669921875
5.245084047317505,-1383105335,0,-0.961570680141449,-0.19137370586395264,0.24451914429664612,-3.173828125,-1.15966796875,14.892578125
5.25442099571228,-1383105330,1,0.9802674651145935,-0.17754718661308289,0.0931268259882927,0.18310546875,1.0986328125,-0.6103515625
5.2663891315460205,-1383105316,0,-0.977195680141449,-0.19943034648895264,0.23963633179664612,-3.41796875,-0.79345703125,12.451171875
5.29141902923584,-1383105311,1,0.9700135588645935,-0.16949054598808289,0.1002069041132927,1.28173828125,0.9765625,0.42724609375
5.2914299964904785,-1383105292,1,0.9636659026145935,-0.17559406161308289,0.1028924509882927,1.15966796875,0.732421875,0.732421875
5.296471118927002,-1383105297,0,-0.974754273891449,-0.20992839336395264,0.23939219117164612,-2.50244140625,-4.39453125,12.02392578125
5.296609163284302,-1383105278,0,-0.968894898891449,-0.21285808086395264,0.24232187867164612,-2.197265625,-7.2021484375,12.20703125
5.311727046966553,-1383105273,1,0.9756287932395935,-0.18194171786308289,0.0931268259882927,1.40380859375,-1.220703125,0.30517578125
5.336579084396362,-1383105259,0,-0.964988648891449,-0.19918620586395264,0.2540406286716461,-1.15966796875,-6.04248046875,14.16015625
5.336591958999634,-1383105240,0,-0.961570680141449,-0.19064128398895264,0.2515992224216461,-3.84521484375,-5.126953125,15.625
5.341729164123535,-1383105254,1,0.9785584807395935,-0.17193195223808289,0.0984979197382927,0.54931640625,0.91552734375,-0.54931640625
5.341736078262329,-1383105235,1,0.9697694182395935,-0.17144367098808289,0.0923944041132927,1.03759765625,-0.91552734375,1.03759765625
5.356480121612549,-1383105221,0,-0.970115602016449,-0.20016276836395264,0.2530640661716461,-1.5869140625,-3.2958984375,16.17431640625
5.3848981857299805,-1383105216,1,0.9800233244895935,-0.17339679598808289,0.0987420603632927,1.220703125,-0.30517578125,0.244140625
5.391880989074707,-1383105202,0,-0.976951539516449,-0.17184245586395264,0.2503785192966461,-0.732421875,-3.84521484375,13.427734375
5.391890048980713,-1383105183,0,-0.969871461391449,-0.20040690898895264,0.2537964880466461,-2.25830078125,-5.9814453125,13.24462890625
5.438766241073608,-1383105180,1,0.9658631682395935,-0.16826984286308289,0.0977654978632927,0.91552734375,-0.244140625,0.1220703125
5.439568996429443,-1383105161,1,0.9797791838645935,-0.18242999911308289,0.0950799509882927,0.9765625,-0.67138671875,1.03759765625
5.439576148986816,-1383105142,1,0.9736756682395935,-0.17657062411308289,0.0960565134882927,0.79345703125,0.6103515625,0.1220703125
5.446490049362183,-1383105147,0,-0.978660523891449,-0.20333659648895264,0.24744883179664612,-2.3193359375,-3.5400390625,14.34326171875
5.446620941162109,-1383105128,0,-0.961326539516449,-0.20113933086395264,0.24744883179664612,-1.89208984375,-2.62451171875,14.22119140625
5.461773157119751,-1383105123,1,0.9678162932395935,-0.17290851473808289,0.1060662791132927,0.91552734375,-0.9765625,2.01416015625
5.488797903060913,-1383105109,0,-0.979637086391449,-0.19674479961395264,0.23646250367164612,-2.9296875,-1.708984375,13.5498046875
5.488806962966919,-1383105090,0,-0.980613648891449,-0.19454753398895264,0.23792734742164612,-1.5869140625,-3.41796875,13.00048828125
5.494456052780151,-1383105104,1,0.9680604338645935,-0.17290851473808289,0.1053338572382927,1.15966796875,-1.3427734375,0.8544921875
5.494464159011841,-1383105085,1,0.9773377776145935,-0.16875812411308289,0.1021600291132927,0.48828125,-0.79345703125,0.67138671875
5.506670236587524,-1383105071,0,-0.975730836391449,-0.18697917461395264,0.23450937867164612,-1.77001953125,-7.38525390625,12.939453125
5.5215370655059814,-1383105066,1,0.9736756682395935,-0.17534992098808289,0.0960565134882927,0.67138671875,-1.0986328125,0.91552734375
5.521571159362793,-1383105047,1,0.9726991057395935,-0.18145343661308289,0.0853143259882927,0.48828125,-0.54931640625,0.6103515625
5.541369199752808,-1383105052,0,-0.978416383266449,-0.19845378398895264,0.24622812867164612,-2.86865234375,-7.2021484375,12.26806640625
5.541377067565918,-1383105033,0,-0.975486695766449,-0.20138347148895264,0.2657593786716461,-2.25830078125,-5.43212890625,14.7705078125
5.565324068069458,-1383105014,0,-0.971092164516449,-0.19235026836395264,0.24305430054664612,-2.5634765625,-3.90625,15.44189453125
5.5861639976501465,-1383105028,1,0.9756287932395935,-0.17876788973808289,0.0845819041132927,1.220703125,-0.06103515625,-0.244140625
5.586215972900391,-1383105009,1,0.9795350432395935,-0.17022296786308289,0.0882440134882927,0.54931640625,0.91552734375,-0.1220703125
5.586222171783447,-1383104990,1,0.9763612151145935,-0.16924640536308289,0.1053338572382927,0.6103515625,1.03759765625,0.79345703125
5.5964250564575195,-1383104995,0,-0.963767945766449,-0.17745769023895264,0.2552613317966461,-1.8310546875,-3.5400390625,16.78466796875
5.6113269329071045,-1383104971,1,0.9641541838645935,-0.17583820223808289,0.1031365916132927,1.03759765625,0.79345703125,-0.3662109375
5.637082099914551,-1383104976,0,-0.980125367641449,-0.18038737773895264,0.24183359742164612,-3.41796875,-3.35693359375,13.85498046875
5.637145042419434,-1383104957,0,-0.976463258266449,-0.20553386211395264,0.24378672242164612,-2.25830078125,-4.2724609375,12.14599609375
5.641895055770874,-1383104952,1,0.9722108244895935,-0.18047687411308289,0.0999627634882927,0.91552734375,1.3427734375,-1.28173828125
5.656487941741943,-1383104938,0,-0.976463258266449,-0.20821940898895264,0.24403086304664612,-1.708984375,-4.08935546875,9.82666015625
5.656574010848999,-1383104919,0,-0.964256227016449,-0.20455729961395264,0.24989023804664612,-1.8310546875,-5.06591796875,11.65771484375
5.6864941120147705,-1383104916,1,0.9695252776145935,-0.17901203036308289,0.0963006541132927,0.42724609375,-0.3662109375,0.42724609375
5.686501979827881,-1383104897,1,0.9734315276145935,-0.17217609286308289,0.1060662791132927,0.67138671875,-0.48828125,-0.1220703125
5.693305253982544,-1383104883,0,-0.969139039516449,-0.19552409648895264,0.23499765992164612,-3.23486328125,-1.0986328125,14.22119140625
5.717890024185181,-1383104864,0,-0.987693727016449,-0.19772136211395264,0.24183359742164612,-1.953125,-5.43212890625,15.13671875
5.740610122680664,-1383104878,1,0.9741639494895935,-0.17290851473808289,0.0977654978632927,-0.244140625,0.48828125,0.18310546875
5.740617990493774,-1383104859,1,0.9726991057395935,-0.17339679598808289,0.0970330759882927,0.54931640625,0.79345703125,-0.732421875
5.741551876068115,-1383104840,1,0.9756287932395935,-0.18120929598808289,0.0850701853632927,0.67138671875,0.30517578125,-1.15966796875
5.761482000350952,-1383104821,1,0.9790467619895935,-0.17901203036308289,0.0872674509882927,1.28173828125,1.3427734375,-0.67138671875
5.784400939941406,-1383104845,0,-0.973533570766449,-0.21383464336395264,0.2662476599216461,-0.6103515625,-10.6201171875,14.46533203125
5.784410238265991,-1383104826,0,-0.962303102016449,-0.20846354961395264,0.2638062536716461,-2.9296875,-8.544921875,14.70947265625
5.791455984115601,-1383104802,1,0.9729432463645935,-0.17339679598808289,0.0987420603632927,1.5869140625,1.28173828125,0.30517578125
5.7914769649505615,-1383104783,1,0.9758729338645935,-0.16753742098808289,0.1053338572382927,1.46484375,-0.06103515625,0.54931640625
5.806772947311401,-1383104807,0,-0.962058961391449,-0.20113933086395264,0.2713746130466461,-3.662109375,-4.638671875,16.11328125
5.806938171386719,-1383104788,0,-0.974754273891449,-0.18234050273895264,0.24354258179664612,-3.35693359375,1.64794921875,16.357421875
5.806955099105835,-1383104769,0,-0.984764039516449,-0.19283854961395264,0.22352305054664612,-2.62451171875,-1.15966796875,12.63427734375
5.835738897323608,-1383104764,1,0.9665955901145935,-0.17364093661308289,0.1048455759882927,0.67138671875,0.54931640625,0.91552734375
5.835748910903931,-1383104745,1,0.9697694182395935,-0.18194171786308289,0.0980096384882927,0.67138671875,-0.91552734375,1.03759765625
5.841569185256958,-1383104750,0,-0.977439820766449,-0.20748698711395264,0.23255625367164612,-1.64794921875,-7.14111328125,9.27734375
5.841577053070068,-1383104731,0,-0.972801148891449,-0.22018229961395264,0.24622812867164612,-0.244140625,-7.568359375,8.1787109375
5.85404109954834,-1383104726,1,0.9744080901145935,-0.17803546786308289,0.0948358103632927,0.8544921875,-1.64794921875,0.06103515625
5.866386890411377,-1383104712,0,-0.963767945766449,-0.21920573711395264,0.2584351599216461,-2.25830078125,-2.86865234375,11.29150390625
5.890243053436279,-1383104707,1,0.9722108244895935,-0.17095538973808289,0.0948358103632927,-0.6103515625,-0.3662109375,0.18310546875
5.896370887756348,-1383104693,0,-0.967674195766449,-0.20748698711395264,0.24305430054664612,-2.685546875,0.79345703125,16.7236328125
5.896493196487427,-1383104674,0,-0.988670289516449,-0.19137370586395264,0.23182383179664612,-3.662109375,-1.52587890625,17.7001953125
5.911332130432129,-1383104688,1,0.9700135588645935,-0.17193195223808289,0.0987420603632927,0.79345703125,0.18310546875,0.67138671875
5.939844131469727,-1383104655,0,-0.974510133266449,-0.19674479961395264,0.23695078492164612,-0.9765625,-9.3994140625,15.869140625
5.944645166397095,-1383104652,1,0.9717225432395935,-0.17437335848808289,0.0948358103632927,0.42724609375,0.54931640625,-0.67138671875
5.944653034210205,-1383104633,1,0.9739198088645935,-0.16949054598808289,0.0904412791132927,1.220703125,-0.48828125,0.732421875
5.9564878940582275,-1383104619,0,-0.961082398891449,-0.19820964336395264,0.2801636755466461,-2.8076171875,-9.6435546875,16.2353515625
5.988782167434692,-1383104614,1,0.9805116057395935,-0.18096515536308289,0.0997186228632927,0.67138671875,0.42724609375,-0.48828125
5.988795042037964,-1383104595,1,0.9763612151145935,-0.17364093661308289,0.1038690134882927,1.52587890625,1.77001953125,0.18310546875
5.996117115020752,-1383104600,0,-0.965721070766449,-0.18356120586395264,0.2596558630466461,-2.9296875,1.8310546875,14.7705078125
5.996125936508179,-1383104581,0,-0.975486695766449,-0.19357097148895264,0.22596445679664612,-3.84521484375,4.0283203125,13.12255859375
6.00190806388855,-1383104576,1,0.9634217619895935,-0.17339679598808289,0.1033807322382927,0.8544921875,1.03759765625,1.03759765625
6.020385026931763,-1383104562,0,-0.986717164516449,-0.20626628398895264,0.22938242554664612,-1.64794921875,-1.03759765625,9.765625
6.0429840087890625,-1383104557,1,0.9668397307395935,-0.17901203036308289,0.1009393259882927,0.1220703125,0.0,-0.732421875
6.042992830276489,-1383104538,1,0.9824647307395935,-0.17754718661308289,0.0894647166132927,-0.06103515625,-1.28173828125,-0.54931640625
6.084122180938721,-1383104543,0,-0.997947633266449,-0.20675456523895264,0.23280039429664612,0.244140625,-8.60595703125,7.99560546875
6.084132194519043,-1383104524,0,-0.967185914516449,-0.19625651836395264,0.2533082067966461,-1.15966796875,-8.1787109375,11.90185546875
6.084205150604248,-1383104519,1,0.9753846526145935,-0.16997882723808289,0.0867791697382927,0.9765625,-1.0986328125,-0.06103515625
6.090898036956787,-1383104500,1,0.9780701994895935,-0.16729328036308289,0.0884881541132927,0.79345703125,0.8544921875,-1.03759765625
6.109580039978027,-1383104481,1,0.9788026213645935,-0.17730304598808289,0.0950799509882927,1.15966796875,-0.244140625,0.48828125
6.1130712032318115,-1383104505,0,-0.955467164516449,-0.20431315898895264,0.2620972692966461,-2.86865234375,-2.8076171875,18.06640625
6.11493992805481,-1383104486,0,-0.985252320766449,-0.18527019023895264,0.24110117554664612,-3.0517578125,1.0986328125,20.01953125
6.1149492263793945,-1383104467,0,-0.984519898891449,-0.19674479961395264,0.22498789429664612,-0.30517578125,-6.53076171875,18.06640625
6.13512921333313,-1383104462,1,0.9719666838645935,-0.17950031161308289,0.0958123728632927,0.06103515625,0.244140625,0.42724609375
6.141071081161499,-1383104448,0,-0.964256227016449,-0.20065104961395264,0.2513550817966461,-0.6103515625,-12.26806640625,15.13671875
6.141086101531982,-1383104429,0,-0.957664430141449,-0.18527019023895264,0.2745484411716461,-1.3427734375,-8.6669921875,13.73291015625
6.154019117355347,-1383104443,1,0.9658631682395935,-0.17876788973808289,0.1016717478632927,0.91552734375,-0.732421875,1.28173828125
6.154030084609985,-1383104424,1,0.9812440276145935,-0.17754718661308289,0.0958123728632927,0.67138671875,-0.9765625,0.8544921875
6.167186975479126,-1383104410,0,-0.965232789516449,-0.19796550273895264,0.2682007849216461,-2.50244140625,-0.48828125,13.00048828125
6.190317153930664,-1383104388,1,0.9626893401145935,-0.17486163973808289,0.1055779978632927,0.67138671875,1.3427734375,0.732421875
6.1966540813446045,-1383104391,0,-0.976463258266449,-0.18795573711395264,0.23035898804664612,-5.126953125,3.662109375,12.6953125
6.211439847946167,-1383104369,1,0.9665955901145935,-0.17534992098808289,0.1053338572382927,0.42724609375,-0.30517578125,0.06103515625
6.239770889282227,-1383104355,0,-0.985252320766449,-0.21285808086395264,0.23157969117164612,-0.18310546875,-5.9814453125,9.6435546875
6.244388103485107,-1383104350,1,0.9790467619895935,-0.17534992098808289,0.0965447947382927,0.67138671875,-0.244140625,-0.732421875
6.244397163391113,-1383104331,1,0.9761170744895935,-0.16900226473808289,0.0901971384882927,1.220703125,-0.79345703125,-0.244140625
6.256573915481567,-1383104336,0,-0.969139039516449,-0.19454753398895264,0.24573984742164612,-0.732421875,-11.16943359375,10.7421875
6.256655216217041,-1383104317,0,-0.956443727016449,-0.20553386211395264,0.2623414099216461,-2.25830078125,-7.568359375,14.22119140625
6.273030996322632,-1383104312,1,0.9788026213645935,-0.16680499911308289,0.0860467478632927,-0.06103515625,0.3662109375,-1.0986328125
6.30091404914856,-1383104293,1,0.9790467619895935,-0.16851398348808289,0.0870233103632927,0.48828125,0.30517578125,-0.244140625
6.301620006561279,-1383104274,1,0.9778260588645935,-0.16973468661308289,0.0928826853632927,-0.30517578125,2.13623046875,-0.3662109375
6.32014012336731,-1383104298,0,-0.969871461391449,-0.18697917461395264,0.2559937536716461,-3.5400390625,-3.0517578125,19.6533203125
6.320150136947632,-1383104279,0,-0.971824586391449,-0.18990886211395264,0.23939219117164612,-2.0751953125,-5.18798828125,20.20263671875
6.32015585899353,-1383104260,0,-0.966941773891449,-0.17355144023895264,0.2511109411716461,-0.79345703125,-9.70458984375,17.578125
6.340143918991089,-1383104255,1,0.9668397307395935,-0.17583820223808289,0.1006951853632927,1.15966796875,0.244140625,0.42724609375
6.346464157104492,-1383104241,0,-0.971336305141449,-0.20528972148895264,0.2618531286716461,-1.15966796875,-8.544921875,13.00048828125
6.346621990203857,-1383104222,0,-0.970359742641449,-0.20406901836395264,0.2594117224216461,-1.953125,-2.44140625,11.1083984375
6.361591100692749,-1383104236,1,0.9790467619895935,-0.17876788973808289,0.1009393259882927,1.15966796875,1.03759765625,-0.42724609375
6.361700057983398,-1383104217,1,0.9726991057395935,-0.17754718661308289,0.1036248728632927,0.79345703125,1.64794921875,0.42724609375
6.387295961380005,-1383104203,0,-0.983299195766449,-0.19894206523895264,0.24842539429664612,-3.90625,3.96728515625,11.04736328125
6.393256902694702,-1383104198,1,0.9678162932395935,-0.17412921786308289,0.0992303416132927,0.9765625,-0.54931640625,0.91552734375
6.406554937362671,-1383104184,0,-0.984519898891449,-0.19161784648895264,0.23182383179664612,-2.8076171875,1.77001953125,11.29150390625
6.4399402141571045,-1383104179,1,0.9717225432395935,-0.17534992098808289,0.0958123728632927,0.42724609375,0.732421875,-0.3662109375
6.439949035644531,-1383104160,1,0.9746522307395935,-0.17412921786308289,0.0953240916132927,0.91552734375,-0.9765625,1.15966796875
6.443566083908081,-1383104165,0,-0.991111695766449,-0.20040690898895264,0.24476328492164612,-1.03759765625,-5.4931640625,10.498046875
6.443572998046875,-1383104146,0,-0.982322633266449,-0.21749675273895264,0.2552613317966461,-0.42724609375,-10.07080078125,12.75634765625
6.445019960403442,-1383104127,0,-0.958396852016449,-0.20382487773895264,0.2603882849216461,-0.8544921875,-7.4462890625,16.2353515625
6.45451021194458,-1383104124,1,0.9751405119895935,-0.17364093661308289,0.0889764353632927,0.54931640625,-0.48828125,-0.48828125
6.490267992019653,-1383104105,1,0.9746522307395935,-0.17534992098808289,0.0899529978632927,1.15966796875,0.244140625,0.42724609375
6.496467113494873,-1383104091,0,-0.971336305141449,-0.18575847148895264,0.23475351929664612,-3.23486328125,-2.685546875,19.04296875
6.496621131896973,-1383104072,0,-0.974510133266449,-0.18429362773895264,0.24036875367164612,-2.99072265625,-5.79833984375,17.15087890625
6.511595010757446,-1383104086,1,0.9700135588645935,-0.17901203036308289,0.0970330759882927,0.9765625,0.79345703125,0.18310546875
6.511685132980347,-1383104067,1,0.9734315276145935,-0.17705890536308289,0.1048455759882927,1.0986328125,1.0986328125,0.67138671875
6.539926052093506,-1383104053,0,-0.988670289516449,-0.19381511211395264,0.24403086304664612,-0.9765625,-8.1787109375,13.36669921875
6.544354200363159,-1383104048,1,0.9744080901145935,-0.17364093661308289,0.1031365916132927,0.06103515625,-1.708984375,1.0986328125
6.5443620681762695,-1383104029,1,0.9778260588645935,-0.17242023348808289,0.0997186228632927,0.91552734375,0.732421875,-0.30517578125
6.556478023529053,-1383104034,0,-0.968650758266449,-0.19674479961395264,0.2591675817966461,-1.15966796875,-5.7373046875,11.65771484375
6.556641101837158,-1383104015,0,-0.977195680141449,-0.19430339336395264,0.2525757849216461,-3.90625,-2.197265625,11.53564453125
6.587430953979492,-1383104010,1,0.9741639494895935,-0.17705890536308289,0.0963006541132927,0.42724609375,0.42724609375,-0.30517578125
6.600425958633423,-1383103991,1,0.9748963713645935,-0.16900226473808289,0.0923944041132927,1.15966796875,0.9765625,-0.3662109375
6.601705074310303,-1383103972,1,0.9751405119895935,-0.17412921786308289,0.0870233103632927,0.3662109375,0.06103515625,0.30517578125
6.619235038757324,-1383103996,0,-0.973045289516449,-0.19283854961395264,0.24378672242164612,-2.86865234375,-0.244140625,11.962890625
6.6192450523376465,-1383103977,0,-0.984031617641449,-0.19943034648895264,0.24622812867164612,-0.54931640625,-2.74658203125,13.0615234375
6.645722150802612,-1383103958,0,-0.980613648891449,-0.20187175273895264,0.23743906617164612,-2.50244140625,-6.53076171875,12.20703125
6.647040128707886,-1383103939,0,-0.969139039516449,-0.18844401836395264,0.2699097692966461,-1.46484375,-5.4931640625,14.6484375
6.64721417427063,-1383103920,0,-0.966941773891449,-0.19064128398895264,0.2520875036716461,-1.28173828125,-4.2724609375,18.24951171875
6.661893129348755,-1383103953,1,0.9712342619895935,-0.17046710848808289,0.0909295603632927,0.732421875,-0.48828125,0.06103515625
6.662045001983643,-1383103934,1,0.9753846526145935,-0.17486163973808289,0.1016717478632927,1.15966796875,-0.54931640625,-0.30517578125
6.662115097045898,-1383103915,1,0.9724549651145935,-0.16949054598808289,0.0989862009882927,0.732421875,0.244140625,0.244140625
6.686038017272949,-1383103901,0,-0.980125367641449,-0.20040690898895264,0.23450937867164612,-3.2958984375,-3.84521484375,16.9677734375
6.69198203086853,-1383103896,1,0.9734315276145935,-0.17583820223808289,0.1028924509882927,0.91552734375,-0.732421875,0.6103515625
6.706789970397949,-1383103882,0,-0.975974977016449,-0.19259440898895264,0.24427500367164612,-1.3427734375,-5.7373046875,15.5029296875
6.706912040710449,-1383103863,0,-0.970359742641449,-0.19698894023895264,0.2506226599216461,-3.0517578125,-7.6904296875,12.0849609375
6.7383739948272705,-1383103860,1,0.9753846526145935,-0.17071124911308289,0.0904412791132927,0.9765625,-0.3662109375,-0.1220703125
6.754364013671875,-1383103841,1,0.9761170744895935,-0.17534992098808289,0.0911737009882927,0.91552734375,0.06103515625,0.9765625
6.754373073577881,-1383103822,1,0.9746522307395935,-0.17095538973808289,0.0909295603632927,0.79345703125,0.3662109375,-0.06103515625
6.766615152359009,-1383103827,0,-0.975486695766449,-0.20382487773895264,0.2601441442966461,-2.86865234375,-2.8076171875,12.63427734375
6.76667594909668,-1383103808,0,-0.977195680141449,-0.20040690898895264,0.24842539429664612,-3.23486328125,-1.03759765625,12.939453125
6.789867162704468,-1383103803,1,0.9751405119895935,-0.17364093661308289,0.0948358103632927,0.9765625,0.18310546875,1.15966796875
6.796590089797974,-1383103789,0,-0.974021852016449,-0.19576823711395264,0.23353281617164612,-1.8310546875,-1.40380859375,13.00048828125
6.7967140674591064,-1383103770,0,-0.980857789516449,-0.20968425273895264,0.2567261755466461,-1.708984375,-6.28662109375,13.5498046875
6.811672210693359,-1383103784,1,0.9736756682395935,-0.17534992098808289,0.0948358103632927,0.54931640625,1.220703125,0.1220703125
6.811773061752319,-1383103765,1,0.9726991057395935,-0.17461749911308289,0.0972772166132927,0.54931640625,0.48828125,0.67138671875
6.839741945266724,-1383103751,0,-0.986961305141449,-0.21114909648895264,0.24012461304664612,-1.953125,-7.568359375,14.6484375
6.844043970108032,-1383103746,1,0.9756287932395935,-0.17583820223808289,0.0950799509882927,1.3427734375,0.3662109375,-0.79345703125
6.844052076339722,-1383103727,1,0.9780701994895935,-0.16875812411308289,0.0963006541132927,1.220703125,0.9765625,-0.48828125
6.856518030166626,-1383103732,0,-0.976951539516449,-0.20480144023895264,0.2540406286716461,-2.3193359375,-6.28662109375,14.404296875
6.85658597946167,-1383103713,0,-0.971092164516449,-0.19332683086395264,0.24207773804664612,-1.5869140625,-4.39453125,15.68603515625
6.871328115463257,-1383103708,1,0.9719666838645935,-0.17242023348808289,0.1009393259882927,-0.18310546875,0.244140625,0.54931640625
6.89307713508606,-1383103694,0,-0.975974977016449,-0.19454753398895264,0.24891367554664612,-3.173828125,-4.45556640625,13.12255859375
6.901518106460571,-1383103689,1,0.9753846526145935,-0.17510578036308289,0.0950799509882927,0.91552734375,0.244140625,0.244140625
6.901587009429932,-1383103670,1,0.9748963713645935,-0.17534992098808289,0.0972772166132927,0.91552734375,0.42724609375,0.732421875
6.9194769859313965,-1383103675,0,-0.957664430141449,-0.19454753398895264,0.2513550817966461,-1.708984375,-5.0048828125,13.3056640625
6.919485092163086,-1383103656,0,-0.971824586391449,-0.19552409648895264,0.2508668005466461,-1.5869140625,-6.2255859375,12.39013671875
6.9406578540802,-1383103651,1,0.9724549651145935,-0.17486163973808289,0.0938592478632927,0.732421875,1.3427734375,-0.06103515625
6.946383237838745,-1383103637,0,-0.969139039516449,-0.19381511211395264,0.24403086304664612,-1.89208984375,-4.45556640625,13.12255859375
6.961402893066406,-1383103632,1,0.9746522307395935,-0.17608234286308289,0.0943475291132927,0.42724609375,-0.79345703125,1.03759765625
6.987384080886841,-1383103618,0,-0.981346070766449,-0.20284831523895264,0.24989023804664612,-1.8310546875,-3.47900390625,14.2822265625
6.987391948699951,-1383103599,0,-0.974998414516449,-0.19918620586395264,0.24232187867164612,-2.13623046875,-4.33349609375,15.13671875
6.99344801902771,-1383103596,1,0.9739198088645935,-0.18096515536308289,0.0926385447382927,0.732421875,0.732421875,0.48828125
6.99345588684082,-1383103577,1,0.9758729338645935,-0.17437335848808289,0.1002069041132927,0.54931640625,-0.3662109375,0.732421875
7.006535053253174,-1383103563,0,-0.968894898891449,-0.19918620586395264,0.2579468786716461,-2.13623046875,-6.16455078125,13.73291015625
7.021317958831787,-1383103558,1,0.9790467619895935,-0.17998859286308289,0.0945916697382927,0.48828125,-0.30517578125,0.06103515625
7.042914152145386,-1383103544,0,-0.973533570766449,-0.19918620586395264,0.24720469117164612,-1.89208984375,-4.5166015625,13.18359375
7.054447174072266,-1383103539,1,0.9773377776145935,-0.17315265536308289,0.0909295603632927,0.244140625,-0.79345703125,0.48828125
7.054457187652588,-1383103520,1,0.9758729338645935,-0.17193195223808289,0.0975213572382927,0.3662109375,0.1220703125,0.42724609375
7.066515922546387,-1383103525,0,-0.979148805141449,-0.18624675273895264,0.2547730505466461,-1.52587890625,-3.11279296875,14.95361328125
7.066618204116821,-1383103506,0,-0.979637086391449,-0.19308269023895264,0.2523316442966461,-1.0986328125,-3.2958984375,13.97705078125
7.088621139526367,-1383103501,1,0.9795350432395935,-0.17388507723808289,0.0970330759882927,0.3662109375,-0.48828125,0.30517578125
7.096398115158081,-1383103487,0,-0.978416383266449,-0.20162761211395264,0.24451914429664612,-2.3193359375,-4.82177734375,13.73291015625
7.138488054275513,-1383103468,0,-0.974021852016449,-0.19527995586395264,0.24403086304664612,-1.220703125,-4.5166015625,13.7939453125
7.138494968414307,-1383103449,0,-0.979637086391449,-0.20089519023895264,0.2564820349216461,-2.13623046875,-3.60107421875,13.97705078125
7.142893075942993,-1383103482,1,0.9717225432395935,-0.17632648348808289,0.0960565134882927,0.9765625,-0.18310546875,0.30517578125
7.142903089523315,-1383103463,1,0.9775819182395935,-0.17364093661308289,0.0963006541132927,0.6103515625,0.67138671875,0.1220703125
7.142986059188843,-1383103444,1,0.9753846526145935,-0.17510578036308289,0.0950799509882927,0.42724609375,0.18310546875,0.42724609375
7.143052101135254,-1383103425,1,0.9690369963645935,-0.17144367098808289,0.0941033884882927,0.30517578125,-0.8544921875,0.48828125
7.15648889541626,-1383103430,0,-0.965476930141449,-0.18771159648895264,0.2518433630466461,-2.8076171875,-5.2490234375,14.46533203125
7.156651973724365,-1383103411,0,-0.972068727016449,-0.19137370586395264,0.24549570679664612,-2.0751953125,-5.7373046875,14.7705078125
7.183533191680908,-1383103406,1,0.9756287932395935,-0.17534992098808289,0.0997186228632927,0.67138671875,0.1220703125,0.30517578125
7.194814920425415,-1383103392,0,-0.967918336391449,-0.19796550273895264,0.24842539429664612,-2.38037109375,-5.67626953125,12.6953125
7.2014570236206055,-1383103387,1,0.9783143401145935,-0.17950031161308289,0.0899529978632927,1.03759765625,-0.06103515625,0.06103515625
7.201575994491577,-1383103368,1,0.9746522307395935,-0.17144367098808289,0.0994744822382927,1.0986328125,-0.3662109375,0.06103515625
7.219197034835815,-1383103373,0,-0.969627320766449,-0.19308269023895264,0.24866953492164612,-2.13623046875,-5.615234375,13.7939453125
7.219207048416138,-1383103354,0,-0.976707398891449,-0.18990886211395264,0.2518433630466461,-1.89208984375,-4.33349609375,15.0146484375
7.24521803855896,-1383103335,0,-0.972801148891449,-0.19650065898895264,0.24622812867164612,-2.74658203125,-3.2958984375,13.7939453125
7.261584043502808,-1383103332,1,0.9790467619895935,-0.17119953036308289,0.0977654978632927,0.244140625,-0.1220703125,0.67138671875
7.261703968048096,-1383103313,1,0.9753846526145935,-0.17950031161308289,0.0955682322382927,0.6103515625,-1.0986328125,1.03759765625
7.28747296333313,-1383103299,0,-0.972312867641449,-0.19894206523895264,0.24769297242164612,-0.91552734375,-3.96728515625,13.7939453125
7.29372501373291,-1383103294,1,0.9741639494895935,-0.17779132723808289,0.0975213572382927,1.3427734375,0.8544921875,0.3662109375
7.293735027313232,-1383103275,1,0.9712342619895935,-0.17412921786308289,0.0982537791132927,1.28173828125,0.0,-0.244140625
7.306647062301636,-1383103280,0,-0.967918336391449,-0.20528972148895264,0.2513550817966461,-0.9765625,-4.57763671875,14.34326171875
7.306767225265503,-1383103261,0,-0.977928102016449,-0.20773112773895264,0.2508668005466461,-2.685546875,-4.8828125,14.46533203125
7.337549209594727,-1383103256,1,0.9744080901145935,-0.17364093661308289,0.0953240916132927,0.18310546875,-0.732421875,0.1220703125
7.3427252769470215,-1383103242,0,-0.974998414516449,-0.19576823711395264,0.24573984742164612,-2.0751953125,-5.55419921875,15.68603515625
7.354401111602783,-1383103237,1,0.9770936369895935,-0.17657062411308289,0.0953240916132927,0.06103515625,-0.06103515625,0.18310546875
7.3544111251831055,-1383103218,1,0.9748963713645935,-0.17632648348808289,0.0980096384882927,0.18310546875,-0.1220703125,0.732421875
7.366556882858276,-1383103223,0,-0.972068727016449,-0.19161784648895264,0.24671640992164612,-2.0751953125,-5.4931640625,15.31982421875
7.366680145263672,-1383103204,0,-0.962791383266449,-0.19210612773895264,0.2511109411716461,-1.52587890625,-5.79833984375,14.22119140625
7.388580799102783,-1383103199,1,0.9719666838645935,-0.17510578036308289,0.0963006541132927,0.1220703125,-0.79345703125,0.06103515625
7.396366119384766,-1383103185,0,-0.960594117641449,-0.18331706523895264,0.24500742554664612,-3.96728515625,-4.33349609375,13.18359375
7.41145396232605,-1383103180,1,0.9768494963645935,-0.17217609286308289,0.0904412791132927,1.0986328125,0.18310546875,-0.1220703125
7.411582946777344,-1383103161,1,0.9748963713645935,-0.17510578036308289,0.1009393259882927,1.40380859375,0.732421875,-0.18310546875
7.439035892486572,-1383103166,0,-0.965476930141449,-0.20309245586395264,0.23963633179664612,-1.708984375,-2.86865234375,14.22119140625
7.439044237136841,-1383103147,0,-0.978660523891449,-0.20846354961395264,0.24769297242164612,-2.38037109375,-3.0517578125,13.427734375
7.455549001693726,-1383103128,0,-0.977928102016449,-0.19405925273895264,0.24720469117164612,-2.8076171875,-5.4931640625,12.75634765625
7.456484079360962,-1383103109,0,-0.967185914516449,-0.19991862773895264,0.24549570679664612,-1.46484375,-5.4931640625,13.5498046875
7.485764265060425,-1383103142,1,0.9717225432395935,-0.17193195223808289,0.0994744822382927,1.0986328125,0.1220703125,0.54931640625
7.485771179199219,-1383103123,1,0.9734315276145935,-0.17632648348808289,0.0989862009882927,0.48828125,0.42724609375,0.06103515625
7.485775947570801,-1383103104,1,0.9766053557395935,-0.17022296786308289,0.0972772166132927,0.8544921875,0.06103515625,0.06103515625
7.49135422706604,-1383103090,0,-0.967674195766449,-0.20406901836395264,0.2501343786716461,-3.2958984375,-5.859375,13.3056640625
7.501895904541016,-1383103068,1,0.9773377776145935,-0.17583820223808289,0.0955682322382927,0.79345703125,0.244140625,-0.3662109375
7.519268989562988,-1383103071,0,-0.975730836391449,-0.19723308086395264,0.2508668005466461,-2.5634765625,-5.0048828125,14.7705078125
7.540568113327026,-1383103049,1,0.9748963713645935,-0.17364093661308289,0.0958123728632927,0.8544921875,0.244140625,0.3662109375
7.546328067779541,-1383103035,0,-0.969627320766449,-0.19283854961395264,0.23695078492164612,0.18310546875,-4.57763671875,15.380859375
7.56163215637207,-1383103030,1,0.9695252776145935,-0.17437335848808289,0.0897088572382927,1.15966796875,-0.244140625,0.67138671875
7.561723947525024,-1383103011,1,0.9756287932395935,-0.17144367098808289,0.0982537791132927,0.3662109375,0.42724609375,0.30517578125
7.586255073547363,-1383103016,0,-0.977195680141449,-0.20333659648895264,0.24305430054664612,-1.3427734375,-3.72314453125,13.97705078125
7.587257146835327,-1383102997,0,-0.969139039516449,-0.20626628398895264,0.2506226599216461,-1.77001953125,-4.638671875,14.0380859375
7.592759132385254,-1383102992,1,0.9741639494895935,-0.17193195223808289,0.1014276072382927,1.46484375,0.42724609375,0.6103515625
7.6064629554748535,-1383102978,0,-0.985008180141449,-0.19601237773895264,0.24720469117164612,-2.3193359375,-4.08935546875,14.22119140625
7.606614112854004,-1383102959,0,-0.982810914516449,-0.20138347148895264,0.23939219117164612,-2.38037109375,-4.39453125,13.427734375
7.63897705078125,-1383102973,1,0.9695252776145935,-0.17388507723808289,0.0950799509882927,1.03759765625,-0.06103515625,0.30517578125
7.63898491859436,-1383102954,1,0.9724549651145935,-0.17461749911308289,0.0999627634882927,0.79345703125,0.48828125,0.79345703125
7.6540491580963135,-1383102935,1,0.9768494963645935,-0.18267413973808289,0.0950799509882927,0.8544921875,0.18310546875,-0.1220703125
7.654059171676636,-1383102916,1,0.9729432463645935,-0.17144367098808289,0.0970330759882927,0.67138671875,2.197265625,-1.708984375
7.666626214981079,-1383102940,0,-0.970603883266449,-0.19479167461395264,0.24818125367164612,-1.708984375,-5.79833984375,12.0849609375
7.666746139526367,-1383102921,0,-0.967918336391449,-0.19625651836395264,0.24720469117164612,-1.5869140625,-4.94384765625,13.427734375
7.667755126953125,-1383102902,0,-0.973289430141449,-0.19772136211395264,0.2591675817966461,-2.13623046875,-3.47900390625,14.46533203125
7.688751935958862,-1383102897,1,0.9751405119895935,-0.16704913973808289,0.0950799509882927,0.9765625,-0.244140625,0.54931640625
7.696562051773071,-1383102883,0,-0.985740602016449,-0.20724284648895264,0.2559937536716461,-3.84521484375,-3.96728515625,13.48876953125
7.711740016937256,-1383102878,1,0.9790467619895935,-0.17046710848808289,0.0970330759882927,0.8544921875,0.67138671875,0.06103515625
7.7118730545043945,-1383102859,1,0.9763612151145935,-0.17119953036308289,0.0965447947382927,0.67138671875,0.3662109375,-0.42724609375
7.739485025405884,-1383102864,0,-0.971580445766449,-0.18380534648895264,0.24134531617164612,-2.62451171875,-5.55419921875,14.6484375
7.739492177963257,-1383102845,0,-0.969871461391449,-0.19576823711395264,0.2520875036716461,-1.03759765625,-5.92041015625,14.16015625
7.744165897369385,-1383102840,1,0.9734315276145935,-0.18267413973808289,0.0975213572382927,1.28173828125,0.0,0.06103515625
7.756462097167969,-1383102826,0,-0.973289430141449,-0.20089519023895264,0.2547730505466461,-1.708984375,-6.65283203125,14.34326171875
7.785487174987793,-1383102804,1,0.9746522307395935,-0.17315265536308289,0.0965447947382927,0.91552734375,0.91552734375,-0.48828125
7.79269814491272,-1383102807,0,-0.967918336391449,-0.20455729961395264,0.2562378942966461,-2.25830078125,-4.39453125,15.07568359375
7.801501989364624,-1383102785,1,0.9773377776145935,-0.16973468661308289,0.0943475291132927,1.3427734375,1.15966796875,-0.06103515625
7.801602125167847,-1383102766,1,0.9709901213645935,-0.17364093661308289,0.0972772166132927,0.8544921875,0.48828125,-0.3662109375
7.818615198135376,-1383102771,0,-0.983543336391449,-0.19503581523895264,0.24622812867164612,-2.13623046875,-3.23486328125,11.71875
7.818624973297119,-1383102752,0,-0.975242555141449,-0.19088542461395264,0.24915781617164612,-1.5869140625,-4.7607421875,11.3525390625
7.8405609130859375,-1383102747,1,0.9731873869895935,-0.17144367098808289,0.0960565134882927,0.67138671875,-0.8544921875,0.48828125
7.8463380336761475,-1383102733,0,-0.979637086391449,-0.19845378398895264,0.2577027380466461,-2.25830078125,-4.94384765625,13.00048828125
7.86151909828186,-1383102728,1,0.9717225432395935,-0.17412921786308289,0.0926385447382927,1.46484375,1.0986328125,-0.18310546875
7.861600160598755,-1383102709,1,0.9778260588645935,-0.17657062411308289,0.0933709666132927,1.03759765625,0.48828125,0.30517578125
7.887501001358032,-1383102714,0,-0.970848023891449,-0.20236003398895264,0.2564820349216461,-2.38037109375,-3.5400390625,14.7705078125
7.887510061264038,-1383102695,0,-0.984031617641449,-0.19894206523895264,0.24866953492164612,-2.38037109375,-3.41796875,15.44189453125
7.892940998077393,-1383102690,1,0.9736756682395935,-0.17193195223808289,0.0958123728632927,1.0986328125,0.244140625,-0.1220703125
7.920480012893677,-1383102671,1,0.9783143401145935,-0.17095538973808289,0.0928826853632927,0.732421875,0.91552734375,0.244140625
7.943057060241699,-1383102676,0,-0.983543336391449,-0.19039714336395264,0.23841562867164612,-2.197265625,-5.55419921875,14.46533203125
7.944537162780762,-1383102657,0,-0.980857789516449,-0.19064128398895264,0.23865976929664612,-0.54931640625,-5.9814453125,15.56396484375
7.944597959518433,-1383102638,0,-0.976707398891449,-0.20895183086395264,0.2559937536716461,-0.48828125,-7.080078125,14.46533203125
7.952984094619751,-1383102652,1,0.9761170744895935,-0.17486163973808289,0.0958123728632927,0.54931640625,-0.79345703125,0.8544921875
7.952993154525757,-1383102633,1,0.9726991057395935,-0.18120929598808289,0.1009393259882927,0.0,1.0986328125,0.30517578125
7.952997922897339,-1383102614,1,0.9726991057395935,-0.17071124911308289,0.0999627634882927,0.79345703125,-0.6103515625,1.220703125
7.966828107833862,-1383102619,0,-0.975730836391449,-0.19991862773895264,0.24671640992164612,-1.8310546875,-3.72314453125,14.2822265625
7.966984987258911,-1383102600,0,-0.984519898891449,-0.19210612773895264,0.2535523474216461,-2.9296875,-1.89208984375,13.61083984375
7.989925861358643,-1383102595,1,0.9773377776145935,-0.17119953036308289,0.0941033884882927,0.0,0.8544921875,-0.18310546875
7.996409177780151,-1383102581,0,-0.973045289516449,-0.19186198711395264,0.24573984742164612,-2.99072265625,-3.41796875,12.8173828125
8.011455059051514,-1383102576,1,0.9746522307395935,-0.17364093661308289,0.0945916697382927,0.8544921875,1.220703125,0.244140625
8.040044069290161,-1383102562,0,-0.979637086391449,-0.19527995586395264,0.24012461304664612,-1.3427734375,-6.40869140625,12.939453125
8.040054082870483,-1383102543,0,-0.963523805141449,-0.20309245586395264,0.2564820349216461,-2.38037109375,-5.67626953125,13.427734375
8.044677972793579,-1383102540,1,0.9768494963645935,-0.17583820223808289,0.0909295603632927,0.1220703125,-0.48828125,0.54931640625
8.072591066360474,-1383102521,1,0.9783143401145935,-0.17144367098808289,0.0928826853632927,1.03759765625,-0.67138671875,0.8544921875
8.087348937988281,-1383102502,1,0.9705018401145935,-0.16753742098808289,0.0965447947382927,1.46484375,-0.30517578125,0.48828125
8.095067024230957,-1383102507,0,-0.990867555141449,-0.20089519023895264,0.2508668005466461,-2.5634765625,-2.74658203125,16.4794921875
8.095075130462646,-1383102488,0,-0.984031617641449,-0.19259440898895264,0.23475351929664612,-1.40380859375,-2.86865234375,15.68603515625
8.101668119430542,-1383102483,1,0.9761170744895935,-0.17950031161308289,0.0958123728632927,0.79345703125,1.40380859375,0.3662109375
8.121165037155151,-1383102469,0,-0.974754273891449,-0.20040690898895264,0.2572144567966461,-2.44140625,-7.080078125,12.26806640625
8.121174097061157,-1383102450,0,-0.976707398891449,-0.20211589336395264,0.2618531286716461,-1.52587890625,-7.26318359375,13.18359375
8.145308017730713,-1383102431,0,-0.968162477016449,-0.20187175273895264,0.2662476599216461,-0.54931640625,-3.173828125,14.58740234375
8.184659957885742,-1383102412,0,-0.975486695766449,-0.18160808086395264,0.23939219117164612,-1.5869140625,0.244140625,14.892578125
8.184669017791748,-1383102393,0,-0.984764039516449,-0.18575847148895264,0.22376719117164612,-2.197265625,-2.3193359375,14.34326171875
8.193444967269897,-1383102464,1,0.9792909026145935,-0.17876788973808289,0.0926385447382927,1.0986328125,-1.40380859375,0.8544921875
8.193453073501587,-1383102445,1,0.9712342619895935,-0.18096515536308289,0.0945916697382927,0.79345703125,0.6103515625,-0.3662109375
8.193459033966064,-1383102426,1,0.9836854338645935,-0.17095538973808289,0.0950799509882927,0.18310546875,0.732421875,-0.18310546875
8.193465232849121,-1383102407,1,0.9751405119895935,-0.16509601473808289,0.0982537791132927,0.48828125,2.38037109375,-1.03759765625
8.206408977508545,-1383102374,0,-0.970603883266449,-0.21017253398895264,0.24281015992164612,-1.52587890625,-6.53076171875,12.6953125
8.22137188911438,-1383102388,1,0.9680604338645935,-0.17046710848808289,0.1024041697382927,0.9765625,0.6103515625,0.732421875
8.223127126693726,-1383102369,1,0.9758729338645935,-0.18438312411308289,0.0972772166132927,1.3427734375,-0.79345703125,0.18310546875
8.234954118728638,-1383102350,1,0.9800233244895935,-0.19170734286308289,0.0850701853632927,1.52587890625,-0.79345703125,0.42724609375
8.24025297164917,-1383102355,0,-0.965476930141449,-0.20968425273895264,0.24696055054664612,-0.30517578125,-9.27734375,11.8408203125
8.24026107788086,-1383102336,0,-0.954490602016449,-0.21798503398895264,0.2589234411716461,-1.5869140625,-6.89697265625,13.85498046875
8.265674114227295,-1383102317,0,-0.965232789516449,-0.20333659648895264,0.24964609742164612,-3.5400390625,0.1220703125,16.845703125
8.288448095321655,-1383102331,1,0.9695252776145935,-0.17705890536308289,0.0970330759882927,0.6103515625,1.40380859375,-0.3662109375
8.290006160736084,-1383102312,1,0.9731873869895935,-0.17071124911308289,0.0999627634882927,0.8544921875,-0.8544921875,0.0
8.296501159667969,-1383102298,0,-0.984519898891449,-0.19186198711395264,0.22596445679664612,-3.2958984375,-0.42724609375,17.39501953125
8.29662013053894,-1383102279,0,-0.988182008266449,-0.18746745586395264,0.22767344117164612,-1.77001953125,-7.6904296875,14.46533203125
8.31161904335022,-1383102276,1,0.9731873869895935,-0.16949054598808289,0.0936151072382927,-0.3662109375,-0.42724609375,-0.18310546875
8.311688899993896,-1383102257,1,0.9751405119895935,-0.17852374911308289,0.0911737009882927,1.03759765625,-0.48828125,-0.244140625
8.340619087219238,-1383102243,0,-0.953514039516449,-0.19674479961395264,0.2765015661716461,-2.38037109375,-8.72802734375,12.0849609375
8.345338106155396,-1383102238,1,0.9827088713645935,-0.18047687411308289,0.0892205759882927,0.79345703125,-0.48828125,0.732421875
8.358095169067383,-1383102224,0,-0.959861695766449,-0.20260417461395264,0.2601441442966461,-4.638671875,1.953125,14.09912109375
8.385752201080322,-1383102219,1,0.9763612151145935,-0.17315265536308289,0.0999627634882927,1.0986328125,0.54931640625,0.91552734375
8.386840105056763,-1383102200,1,0.9714784026145935,-0.17071124911308289,0.1102166697382927,1.220703125,0.42724609375,0.91552734375
8.393085956573486,-1383102205,0,-0.988426148891449,-0.19845378398895264,0.23255625367164612,-5.18798828125,7.2021484375,15.13671875
8.393095970153809,-1383102186,0,-0.997215211391449,-0.20992839336395264,0.21033945679664612,-3.5400390625,-0.79345703125,10.8642578125
8.40324091911316,-1383102181,1,0.9695252776145935,-0.17144367098808289,0.1077752634882927,0.79345703125,-0.1220703125,0.54931640625
8.421284198760986,-1383102167,0,-0.981346070766449,-0.21359050273895264,0.20985117554664612,-0.8544921875,-10.25390625,9.21630859375
8.442662000656128,-1383102162,1,0.9692811369895935,-0.17632648348808289,0.1002069041132927,0.30517578125,-0.9765625,-0.732421875
8.451020002365112,-1383102148,0,-0.959617555141449,-0.20260417461395264,0.2577027380466461,-0.42724609375,-14.95361328125,11.1083984375
8.451029062271118,-1383102129,0,-0.957420289516449,-0.21359050273895264,0.2774781286716461,0.06103515625,-7.14111328125,16.9677734375
8.477964162826538,-1383102143,1,0.9805116057395935,-0.17754718661308289,0.0914178416132927,1.220703125,-0.48828125,-0.9765625
8.478147029876709,-1383102124,1,0.9790467619895935,-0.17095538973808289,0.0879998728632927,0.54931640625,-0.06103515625,0.0
8.478156089782715,-1383102105,1,0.9780701994895935,-0.16289874911308289,0.0904412791132927,0.91552734375,-0.18310546875,0.732421875
8.479012250900269,-1383102110,0,-0.967918336391449,-0.18429362773895264,0.2589234411716461,-4.21142578125,1.03759765625,20.1416015625
8.479020118713379,-1383102091,0,-0.993553102016449,-0.17843425273895264,0.23646250367164612,-4.82177734375,0.1220703125,17.88330078125
8.502447128295898,-1383102086,1,0.9780701994895935,-0.16607257723808289,0.0926385447382927,1.0986328125,0.30517578125,0.244140625
8.507134914398193,-1383102072,0,-0.975974977016449,-0.19039714336395264,0.23548594117164612,-1.77001953125,-7.080078125,13.12255859375
8.539844036102295,-1383102067,1,0.9709901213645935,-0.17559406161308289,0.1019158884882927,1.03759765625,0.732421875,0.42724609375
8.5398530960083,-1383102048,1,0.9705018401145935,-0.17827960848808289,0.1014276072382927,1.03759765625,0.6103515625,0.0
8.543898105621338,-1383102053,0,-0.971336305141449,-0.20236003398895264,0.2577027380466461,-0.48828125,-9.521484375,11.8408203125
8.54390811920166,-1383102034,0,-0.963767945766449,-0.21627604961395264,0.2591675817966461,-0.732421875,-4.57763671875,12.02392578125
8.565344095230103,-1383102015,0,-0.975730836391449,-0.21310222148895264,0.23988047242164612,-4.08935546875,2.99072265625,13.5498046875
8.589455842971802,-1383102012,1,0.9729432463645935,-0.17779132723808289,0.1067987009882927,0.6103515625,0.1220703125,0.67138671875
8.590374946594238,-1383101993,1,0.9744080901145935,-0.16997882723808289,0.1046014353632927,1.3427734375,-0.30517578125,0.67138671875
8.596428155899048,-1383101979,0,-0.982078492641449,-0.19381511211395264,0.22181406617164612,-1.77001953125,-6.103515625,11.474609375
8.611578941345215,-1383101974,1,0.9731873869895935,-0.16924640536308289,0.0999627634882927,0.79345703125,-0.6103515625,-0.8544921875
8.639035940170288,-1383101960,0,-0.970359742641449,-0.19430339336395264,0.2506226599216461,-0.48828125,-11.16943359375,11.29150390625
8.639044046401978,-1383101941,0,-0.945213258266449,-0.21139323711395264,0.2801636755466461,-0.1220703125,-10.6201171875,15.5029296875
8.655354976654053,-1383101922,0,-0.963767945766449,-0.20577800273895264,0.2789429724216461,-2.3193359375,-6.4697265625,17.4560546875
8.67153525352478,-1383101955,1,0.9756287932395935,-0.16973468661308289,0.0875115916132927,0.244140625,-0.67138671875,-0.18310546875
8.673026084899902,-1383101936,1,0.9822205901145935,-0.17583820223808289,0.0784783884882927,0.67138671875,-1.40380859375,0.67138671875
8.700677156448364,-1383101917,1,0.9858826994895935,-0.17119953036308289,0.0767694041132927,1.220703125,1.15966796875,-0.8544921875
8.701733827590942,-1383101898,1,0.9697694182395935,-0.16778156161308289,0.0965447947382927,0.42724609375,2.25830078125,1.0986328125
8.701833963394165,-1383101879,1,0.9690369963645935,-0.17583820223808289,0.1143670603632927,1.15966796875,2.01416015625,0.18310546875
8.737636089324951,-1383101860,1,0.9722108244895935,-0.17266437411308289,0.1099725291132927,0.67138671875,-0.67138671875,0.6103515625
8.737645149230957,-1383101841,1,0.9697694182395935,-0.18267413973808289,0.1099725291132927,0.79345703125,0.48828125,1.03759765625
8.746838092803955,-1383101903,0,-0.971092164516449,-0.20040690898895264,0.2520875036716461,-2.9296875,-2.13623046875,19.59228515625
8.747063159942627,-1383101884,0,-0.984764039516449,-0.17745769023895264,0.23524180054664612,-2.62451171875,-0.732421875,18.4326171875
8.747081995010376,-1383101865,0,-0.979148805141449,-0.19967448711395264,0.22352305054664612,-2.8076171875,-4.0283203125,10.009765625
8.753021955490112,-1383101846,0,-0.967918336391449,-0.20480144023895264,0.23963633179664612,-1.77001953125,-5.79833984375,8.9111328125
8.761429071426392,-1383101822,1,0.9648866057395935,-0.18438312411308289,0.1019158884882927,0.3662109375,0.30517578125,-1.15966796875
8.78675103187561,-1383101827,0,-0.964988648891449,-0.21163737773895264,0.24451914429664612,-1.64794921875,-2.50244140625,8.6669921875
8.78675889968872,-1383101808,0,-0.973045289516449,-0.20895183086395264,0.2506226599216461,-2.8076171875,-0.79345703125,10.986328125
8.787635087966919,-1383101789,0,-0.971580445766449,-0.19527995586395264,0.24891367554664612,-1.3427734375,-3.662109375,12.5732421875
8.792941093444824,-1383101803,1,0.9902772307395935,-0.17388507723808289,0.0845819041132927,0.732421875,-1.220703125,0.06103515625
8.792948961257935,-1383101784,1,0.9731873869895935,-0.15801593661308289,0.0872674509882927,0.6103515625,1.708984375,-0.732421875
8.806418895721436,-1383101770,0,-0.970848023891449,-0.19161784648895264,0.24989023804664612,-1.52587890625,-6.65283203125,15.9912109375
8.838543176651001,-1383101748,1,0.9829530119895935,-0.17779132723808289,0.0833612009882927,0.8544921875,-0.06103515625,0.06103515625
8.844709873199463,-1383101751,0,-0.989646852016449,-0.19235026836395264,0.2577027380466461,-2.50244140625,-7.87353515625,17.2119140625
8.85325002670288,-1383101729,1,0.9734315276145935,-0.17119953036308289,0.0870233103632927,0.91552734375,0.79345703125,0.244140625
8.866410970687866,-1383101715,0,-0.957420289516449,-0.18868815898895264,0.24354258179664612,-2.13623046875,-7.4462890625,20.20263671875
8.888596057891846,-1383101710,1,0.9631776213645935,-0.17754718661308289,0.0994744822382927,1.220703125,1.89208984375,0.06103515625
8.888606071472168,-1383101691,1,0.9775819182395935,-0.17657062411308289,0.1041131541132927,1.220703125,0.244140625,-1.220703125
8.896566152572632,-1383101696,0,-0.976463258266449,-0.19772136211395264,0.2537964880466461,-2.8076171875,0.18310546875,15.2587890625
8.89665412902832,-1383101677,0,-0.980125367641449,-0.19186198711395264,0.21839609742164612,-2.9296875,-1.52587890625,11.474609375
8.911432981491089,-1383101672,1,0.9729432463645935,-0.17705890536308289,0.1063104197382927,1.52587890625,1.220703125,1.15966796875
8.93879508972168,-1383101658,0,-0.968162477016449,-0.19650065898895264,0.24036875367164612,-2.38037109375,-4.82177734375,9.765625
8.93880295753479,-1383101639,0,-0.970603883266449,-0.20382487773895264,0.24329844117164612,-2.5634765625,-2.44140625,7.9345703125
8.956463813781738,-1383101620,0,-0.965232789516449,-0.18966472148895264,0.2645386755466461,-3.662109375,-2.50244140625,9.033203125
8.9827241897583,-1383101653,1,0.9629334807395935,-0.17901203036308289,0.1050897166132927,0.54931640625,-0.18310546875,0.244140625
8.982732057571411,-1383101634,1,0.9770936369895935,-0.18365070223808289,0.0926385447382927,1.03759765625,-2.13623046875,-1.15966796875
8.982738018035889,-1383101615,1,0.9812440276145935,-0.16778156161308289,0.0853143259882927,0.9765625,-0.42724609375,0.18310546875
8.983734130859375,-1383101596,1,0.9687928557395935,-0.16851398348808289,0.0901971384882927,1.3427734375,-0.9765625,0.9765625
8.98676609992981,-1383101601,0,-0.966697633266449,-0.19894206523895264,0.24866953492164612,-2.13623046875,-3.11279296875,13.0615234375
8.986773014068604,-1383101582,0,-0.978416383266449,-0.19869792461395264,0.24964609742164612,-2.86865234375,-3.7841796875,15.80810546875
9.00186800956726,-1383101577,1,0.9766053557395935,-0.17388507723808289,0.0933709666132927,0.8544921875,0.1220703125,0.06103515625
9.016645193099976,-1383101563,0,-0.986228883266449,-0.19235026836395264,0.24061289429664612,-2.25830078125,-6.7138671875,17.9443359375
9.040922164916992,-1383101558,1,0.9766053557395935,-0.17632648348808289,0.0921502634882927,0.732421875,0.91552734375,0.244140625
9.040931224822998,-1383101539,1,0.9695252776145935,-0.17559406161308289,0.0987420603632927,1.28173828125,0.244140625,1.40380859375
9.046741008758545,-1383101544,0,-0.979637086391449,-0.21017253398895264,0.23695078492164612,0.18310546875,-9.6435546875,19.775390625
9.086734056472778,-1383101525,0,-0.967430055141449,-0.19308269023895264,0.24915781617164612,-0.732421875,-9.58251953125,21.17919921875
9.0867440700531,-1383101506,0,-0.974754273891449,-0.18356120586395264,0.2586793005466461,-0.8544921875,-4.7607421875,15.5029296875
9.086749076843262,-1383101487,0,-0.959129273891449,-0.19015300273895264,0.24549570679664612,-2.3193359375,-3.662109375,11.71875
9.093101024627686,-1383101520,1,0.9717225432395935,-0.17803546786308289,0.1067987009882927,1.28173828125,0.18310546875,0.244140625
9.093109130859375,-1383101484,1,0.9724549651145935,-0.17217609286308289,0.0975213572382927,0.48828125,0.8544921875,0.42724609375
9.137639045715332,-1383101465,1,0.9746522307395935,-0.16900226473808289,0.0926385447382927,-0.18310546875,-0.79345703125,0.91552734375
9.142916202545166,-1383101451,0,-0.979148805141449,-0.20480144023895264,0.24085703492164612,-2.50244140625,-0.9765625,8.60595703125
