sync_time,timestamp_ms,device_id,ax,ay,az,gx,gy,gz
0.0028040409088134766,1582813680,0,0.3838173747062683,0.06532997637987137,1.0499697923660278,-85.14404296875,74.21875,54.6875
0.002835988998413086,1582813699,0,0.3865029215812683,0.05824989825487137,1.0453311204910278,-85.38818359375,74.76806640625,52.978515625
0.013723134994506836,1582813570,1,0.6317040920257568,0.1969217211008072,0.7916372418403625,-14.95361328125,-18.73779296875,-6.103515625
0.03838992118835449,1582813718,0,0.3825966715812683,0.06410927325487137,1.0397158861160278,-87.95166015625,78.125,48.27880859375
0.03839516639709473,1582813737,0,0.3835732340812683,0.06801552325487137,1.0372744798660278,-86.73095703125,80.6884765625,46.38671875
0.04522204399108887,1582813589,1,0.6373193264007568,0.2035135179758072,0.7835806012153625,-15.380859375,-21.30126953125,-4.33349609375
0.06068706512451172,1582813756,0,0.3816201090812683,0.08022255450487137,1.0563174486160278,-86.12060546875,84.04541015625,44.43359375
0.09043002128601074,1582813775,0,0.3940712809562683,0.08339638262987137,1.0743838548660278,-85.63232421875,83.43505859375,43.76220703125
0.09043502807617188,1582813794,0,0.3938271403312683,0.07192177325487137,1.0675479173660278,-84.65576171875,78.79638671875,42.29736328125
0.11838006973266602,1582813813,0,0.3967568278312683,0.07582802325487137,1.0414248704910278,-84.1064453125,76.96533203125,39.4287109375
0.13881802558898926,1582813608,1,0.6312158107757568,0.1961892992258072,0.7921255230903625,-14.5263671875,-19.10400390625,-6.7138671875
0.13882207870483398,1582813627,1,0.6351220607757568,0.1910623461008072,0.7865102887153625,-13.5498046875,-19.34814453125,-6.53076171875
0.13907718658447266,1582813646,1,0.6392724514007568,0.1986307054758072,0.7926138043403625,-13.7939453125,-18.00537109375,-7.080078125
0.13908100128173828,1582813665,1,0.6339013576507568,0.2025369554758072,0.7796743512153625,-14.404296875,-18.06640625,-5.9814453125
0.15020298957824707,1582813832,0,0.3962685465812683,0.09731239825487137,1.0282412767410278,-83.0078125,78.125,36.376953125
0.15028023719787598,1582813851,0,0.4038369059562683,0.11025185137987137,1.0377627611160278,-81.0546875,81.72607421875,34.48486328125
0.1652660369873047,1582813684,1,0.6414697170257568,0.2008279711008072,0.7869985699653625,-16.29638671875,-17.51708984375,-6.89697265625
0.16533184051513672,1582813703,1,0.6436669826507568,0.1954568773508072,0.7708852887153625,-16.90673828125,-14.83154296875,-10.07080078125
0.18893098831176758,1582813870,0,0.4033486247062683,0.11391396075487137,1.0482608079910278,-81.54296875,79.833984375,34.97314453125
0.19533681869506836,1582813722,1,0.6470849514007568,0.2005838304758072,0.7872427105903625,-17.578125,-13.48876953125,-13.916015625
0.19540190696716309,1582813741,1,0.6419579982757568,0.2027810961008072,0.7818716168403625,-16.4794921875,-8.9111328125,-17.15087890625
0.20998811721801758,1582813906,0,0.4045693278312683,0.09462685137987137,1.0441104173660278,-86.3037109375,72.021484375,38.6962890625
0.2418501377105713,1582813925,0,0.4438759684562683,0.05654091387987137,1.0895205736160278,-74.951171875,77.69775390625,25.08544921875
0.24213910102844238,1582813944,0,0.3806435465812683,0.09267372637987137,1.0743838548660278,-64.39208984375,90.02685546875,1.220703125
0.2525930404663086,1582813760,1,0.6480615139007568,0.1978982836008072,0.7950552105903625,-14.95361328125,-7.87353515625,-18.5546875
0.2545919418334961,1582813779,1,0.6312158107757568,0.2071756273508072,0.8009145855903625,-15.68603515625,-10.92529296875,-18.49365234375
0.2546842098236084,1582813815,1,0.6461083889007568,0.2037576586008072,0.7811391949653625,-15.869140625,-15.44189453125,-22.15576171875
0.2564551830291748,1582813834,1,0.6619775295257568,0.2147439867258072,0.7660024762153625,-13.73291015625,-14.2822265625,-27.28271484375
0.2699151039123535,1582813963,0,0.3987099528312683,0.10927528887987137,1.0533877611160278,-67.9931640625,103.1494140625,-9.82666015625
0.2913079261779785,1582813853,1,0.6541650295257568,0.2369607836008072,0.7660024762153625,-13.12255859375,-12.451171875,-28.6865234375
0.29131412506103516,1582813872,1,0.6331689357757568,0.2298807054758072,0.7738149762153625,-15.13671875,-16.845703125,-23.681640625
0.2913179397583008,1582813891,1,0.6495263576507568,0.2342752367258072,0.7730825543403625,-18.4326171875,-20.01953125,-22.4609375
0.2913210391998291,1582813910,1,0.6795556545257568,0.1959451586008072,0.8067739605903625,-18.6767578125,-20.99609375,-26.67236328125
0.3000948429107666,1582813982,0,0.3628212809562683,0.14955848455429077,1.0882998704910278,-65.12451171875,109.86328125,-12.6953125
0.30011415481567383,1582814001,0,0.3164345622062683,0.14052528142929077,1.0914736986160278,-64.453125,109.06982421875,-10.43701171875
0.31436991691589355,1582813929,1,0.7318017482757568,0.2115701586008072,0.7794302105903625,-10.009765625,-17.578125,-40.10009765625
0.31442713737487793,1582813948,1,0.6983544826507568,0.285056471824646,0.7689321637153625,-3.0517578125,-2.5634765625,-59.75341796875
0.31448912620544434,1582813967,1,0.6671044826507568,0.2179178148508072,0.8350942730903625,-8.056640625,-0.42724609375,-72.81494140625
0.3161180019378662,1582813986,1,0.6375634670257568,0.253562331199646,0.8368032574653625,-1.0986328125,7.14111328125,-75.439453125
0.3376801013946533,1582814020,0,0.2827431559562683,0.14443153142929077,1.1063662767410278,-70.98388671875,103.57666015625,-7.99560546875
0.33768391609191895,1582814039,0,0.2822548747062683,0.13124793767929077,1.0912295579910278,-74.40185546875,100.2197265625,-5.18798828125
0.34436798095703125,1582814005,1,0.5840966701507568,0.284812331199646,0.8231313824653625,-1.52587890625,10.6201171875,-73.8525390625
0.3445119857788086,1582814024,1,0.5545556545257568,0.265281081199646,0.8453481793403625,-4.21142578125,8.97216796875,-74.8291015625
0.34452390670776367,1582814043,1,0.5609033107757568,0.273826003074646,0.8470571637153625,-7.01904296875,10.1318359375,-72.8759765625
0.36040806770324707,1582814058,0,0.2727333903312683,0.16030067205429077,1.1105166673660278,-76.0498046875,99.79248046875,-2.86865234375
0.38784313201904297,1582814079,1,0.4993799030780792,0.279929518699646,0.8590200543403625,-12.75634765625,5.79833984375,-59.08203125
0.39251089096069336,1582814077,0,0.2837197184562683,0.14125770330429077,1.1339541673660278,-77.0263671875,98.6328125,3.23486328125
0.3925161361694336,1582814096,0,0.2995888590812683,0.03749794512987137,1.1078311204910278,-83.984375,93.505859375,1.708984375
0.40495896339416504,1582814098,1,0.5367333889007568,0.256492018699646,0.8433950543403625,-26.42822265625,-0.67138671875,-59.4482421875
0.4193451404571533,1582814115,0,0.2688271403312683,-0.0027852579951286316,1.0616885423660278,-93.6279296875,92.71240234375,-15.13671875
0.4406709671020508,1582814117,1,0.5550439357757568,0.1981424242258072,0.8502309918403625,-36.0107421875,1.3427734375,-76.96533203125
0.4406771659851074,1582814136,1,0.2586572468280792,0.1800760179758072,1.2081412076950073,-33.203125,-4.57763671875,-100.28076171875
0.4499928951263428,1582814134,0,0.2261025309562683,0.04994911700487137,1.1105166673660278,-99.12109375,97.5341796875,-29.84619140625
0.4652249813079834,1582814155,1,0.3499658405780792,0.400290846824646,1.0413931608200073,-1.220703125,-17.9443359375,-83.31298828125
0.48862791061401367,1582814170,0,0.1670204997062683,0.39076942205429077,1.3929873704910278,-50.23193359375,81.9091796875,-5.7373046875
0.4886319637298584,1582814189,0,0.2756630778312683,0.26308387517929077,1.3622256517410278,-42.1142578125,47.119140625,7.9345703125
0.4950070381164551,1582814174,1,0.4236963093280792,0.449851393699646,1.0225943326950073,9.6435546875,-36.31591796875,-57.2509765625
0.49503397941589355,1582814193,1,0.5506494045257568,0.453025221824646,0.9647329449653625,-2.3193359375,-61.46240234375,-41.015625
0.5105550289154053,1582814208,0,0.3144814372062683,0.20644325017929077,1.1044131517410278,-59.02099609375,29.60205078125,4.8828125
0.5236918926239014,1582814212,1,0.6649072170257568,0.329001784324646,0.7608755230903625,-20.5078125,-58.04443359375,-51.57470703125
0.5406041145324707,1582814227,0,0.4106728434562683,0.07289833575487137,0.8978701829910278,-70.556640625,47.18017578125,-8.30078125
0.5406079292297363,1582814246,0,0.3315712809562683,0.18324989080429077,0.7294131517410278,-87.21923828125,85.44921875,-26.9775390625
0.5551040172576904,1582814231,1,0.7098290920257568,0.1544412523508072,0.6402700543403625,-42.29736328125,-15.2587890625,-99.54833984375
0.555138111114502,1582814250,1,0.6697900295257568,0.1493142992258072,0.5516470074653625,-28.1982421875,42.1142578125,-150.0244140625
0.5700430870056152,1582814265,0,0.3337685465812683,0.04116005450487137,1.1622744798660278,-103.08837890625,153.74755859375,-65.73486328125
0.5925302505493164,1582814269,1,0.3528955280780792,0.462058424949646,0.8394888043403625,-16.66259765625,72.021484375,-188.720703125
0.5925350189208984,1582814288,1,0.2847802937030792,1.123923659324646,0.9859731793403625,-3.96728515625,47.79052734375,-108.33740234375
0.6013171672821045,1582814284,0,-0.07907324284315109,0.5284647345542908,1.4789248704910278,-85.205078125,183.41064453125,-52.42919921875
0.6013228893280029,1582814303,0,0.04470605403184891,0.47841590642929077,1.1698428392410278,-73.42529296875,92.10205078125,-9.521484375
0.6141550540924072,1582814307,1,0.24449709057807922,0.421531081199646,0.9776723980903625,-52.490234375,-23.92578125,-46.9970703125
0.6380600929260254,1582814322,0,-0.019991211593151093,0.26064246892929077,1.2921572923660278,-105.712890625,63.65966796875,11.29150390625
0.6449871063232422,1582814343,1,0.24352052807807922,0.385398268699646,0.9561880230903625,-38.14697265625,-20.08056640625,-88.43994140625
0.6593780517578125,1582814341,0,0.04690331965684891,0.19863075017929077,1.2877627611160278,-126.15966796875,55.7861328125,20.751953125
0.6594071388244629,1582814360,0,-0.08151464909315109,0.14858192205429077,1.2059756517410278,-131.8359375,60.97412109375,18.4326171875
0.6858460903167725,1582814362,1,0.2906396687030792,0.500632643699646,1.0938833951950073,-16.29638671875,-5.0048828125,-106.99462890625
0.68585205078125,1582814381,1,0.3179834187030792,0.497947096824646,0.9561880230903625,-45.34912109375,-7.8125,-97.47314453125
0.6907370090484619,1582814379,0,-0.03219824284315109,0.22011512517929077,1.0778018236160278,-125.244140625,74.21875,-13.18359375
0.6907429695129395,1582814398,0,-0.03659277409315109,0.22206825017929077,0.9801455736160278,-132.87353515625,101.13525390625,-40.95458984375
0.7035949230194092,1582814400,1,0.3089502155780792,0.352927565574646,0.7989614605903625,-52.91748046875,15.44189453125,-93.1396484375
0.7411901950836182,1582814419,1,0.16100099682807922,0.427878737449646,0.8414419293403625,-25.0244140625,62.19482421875,-77.5146484375
0.7412269115447998,1582814438,1,0.024038106203079224,0.285544753074646,0.8451040387153625,2.9296875,69.15283203125,-53.03955078125
0.7502849102020264,1582814434,0,-0.2162802815437317,0.33437293767929077,0.9957705736160278,-109.375,8.7890625,-87.70751953125
0.7503869533538818,1582814453,0,-0.1769736409187317,0.16640418767929077,1.1268740892410278,-53.89404296875,-4.7607421875,-114.2578125
0.7651429176330566,1582814457,1,-0.020151346921920776,0.394187331199646,0.8922231793403625,18.37158203125,35.400390625,-53.77197265625
0.7883000373840332,1582814472,0,0.014188475906848907,0.18227332830429077,1.0455752611160278,-8.11767578125,-44.677734375,-122.0703125
0.7952151298522949,1582814476,1,0.0018213093280792236,0.465964674949646,0.7835806012153625,28.3203125,32.40966796875,-51.57470703125
0.795306921005249,1582814495,1,-0.041635721921920776,0.554831862449646,0.8209341168403625,32.77587890625,54.74853515625,-37.17041015625
0.81095290184021,1582814491,0,-0.025606445968151093,0.30629676580429077,1.1056338548660278,14.83154296875,-26.9775390625,-160.2783203125
0.8110110759735107,1582814510,0,0.06179589778184891,0.32289832830429077,1.0861026048660278,19.22607421875,-26.611328125,-163.26904296875
0.8366849422454834,1582814514,1,-0.11316892504692078,0.550437331199646,0.8233755230903625,17.88330078125,41.19873046875,-22.3388671875
0.8418989181518555,1582814529,0,0.2822548747062683,0.42983192205429077,1.0922061204910278,16.17431640625,-6.7138671875,-125.9765625
0.8419041633605957,1582814548,0,0.4253212809562683,0.7650370001792908,1.0917178392410278,0.8544921875,19.83642578125,-73.18115234375
0.8550820350646973,1582814533,1,-0.056772440671920776,0.494040846824646,0.8084829449653625,-2.9296875,26.123046875,-4.5166015625
0.8552229404449463,1582814552,1,-0.07312986254692078,0.381492018699646,0.7923696637153625,0.06103515625,23.681640625,25.08544921875
0.8704509735107422,1582814567,0,0.2270790934562683,0.6153787970542908,1.1317569017410278,-44.43359375,49.31640625,21.240234375
0.8909480571746826,1582814571,1,-0.10657712817192078,0.603904128074646,0.8714712262153625,18.06640625,-1.708984375,34.24072265625
0.9002170562744141,1582814586,0,0.009793944656848907,0.42421668767929077,1.1012393236160278,-88.9892578125,93.505859375,79.1015625
0.9002878665924072,1582814605,0,0.025907225906848907,0.36074012517929077,1.0983096361160278,-111.328125,84.53369140625,85.5712890625
0.9150230884552002,1582814607,1,0.10802248120307922,0.546775221824646,0.8819692730903625,-22.27783203125,-39.97802734375,28.9306640625
0.9381430149078369,1582814624,0,0.12454003840684891,0.19936317205429077,0.8749209642410278,-127.01416015625,35.888671875,98.0224609375
0.9451010227203369,1582814626,1,0.19566896557807922,0.467673659324646,0.8512075543403625,-48.64501953125,-56.33544921875,44.49462890625
0.9451680183410645,1582814645,1,0.2689111530780792,0.380759596824646,0.8302114605903625,-69.03076171875,-52.490234375,18.798828125
0.9601039886474609,1582814643,0,0.027372069656848907,0.27358192205429077,0.8866397142410278,-99.9755859375,50.4150390625,100.76904296875
0.9601731300354004,1582814662,0,0.03787011653184891,0.07509560137987137,0.9640322923660278,-45.166015625,38.51318359375,100.5859375
0.9880828857421875,1582814664,1,0.3882959187030792,0.371238112449646,0.7620962262153625,-74.21875,-20.08056640625,-16.2353515625
0.9927170276641846,1582814698,0,-0.04367285221815109,0.34804481267929077,0.9620791673660278,-27.4658203125,45.83740234375,111.87744140625
1.0050411224365234,1582814683,1,0.23058107495307922,0.415915846824646,0.7706411480903625,-46.44775390625,25.390625,-27.64892578125
1.0200920104980469,1582814717,0,0.05056542903184891,0.45986121892929077,0.9110537767410278,-61.58447265625,39.73388671875,116.39404296875
1.0420291423797607,1582814702,1,0.011098653078079224,0.468650221824646,0.9161489605903625,-30.76171875,19.10400390625,3.72314453125
1.0420348644256592,1582814721,1,0.16002443432807922,0.426658034324646,0.7557485699653625,-51.7578125,-8.544921875,34.85107421875
1.0502691268920898,1582814736,0,0.3867470622062683,0.5863260626792908,0.6947451829910278,-105.77392578125,57.92236328125,100.9521484375
1.0503180027008057,1582814755,0,0.1806923747062683,0.37660926580429077,0.8295108079910278,-146.91162109375,82.82470703125,114.07470703125
1.06502103805542,1582814740,1,0.2881982624530792,0.358542799949646,0.8026235699653625,-61.4013671875,-18.5546875,21.240234375
1.0651040077209473,1582814759,1,0.2794091999530792,0.299704909324646,0.9239614605903625,-60.85205078125,-10.7421875,-16.4794921875
1.0873451232910156,1582814774,0,-0.12472753971815109,0.11537880450487137,1.0284854173660278,-112.36572265625,42.236328125,171.5087890625
1.0950021743774414,1582814778,1,0.2637841999530792,0.328513503074646,0.9830434918403625,-94.66552734375,-2.44140625,-38.26904296875
1.0950582027435303,1582814797,1,0.2593896687030792,0.288230299949646,0.9642446637153625,-110.3515625,-14.95361328125,-28.01513671875
1.1101491451263428,1582814793,0,0.12185449153184891,0.24233192205429077,0.9579287767410278,-77.94189453125,52.91748046875,170.41015625
1.1102180480957031,1582814812,0,0.1955849528312683,0.42348426580429077,1.1237002611160278,-96.74072265625,76.7822265625,150.390625
1.1362690925598145,1582814816,1,0.2989404499530792,0.2472146898508072,0.8475454449653625,-98.32763671875,-20.5078125,7.87353515625
1.1410090923309326,1582814831,0,0.2651650309562683,0.34218543767929077,0.9405947923660278,-110.3515625,65.673828125,136.23046875
1.1550891399383545,1582814835,1,0.2735498249530792,0.1334451586008072,0.8585317730903625,-68.359375,-20.1416015625,37.04833984375
1.1699471473693848,1582814850,0,0.2116982340812683,0.29335731267929077,0.9308291673660278,-95.27587890625,44.921875,115.53955078125
1.1700022220611572,1582814869,0,0.3113076090812683,0.21596473455429077,1.0304385423660278,-91.61376953125,40.22216796875,81.787109375
1.1918509006500244,1582814871,1,0.08336427807807922,0.2323221117258072,0.9403188824653625,-37.7197265625,-57.6171875,86.12060546875
1.191857099533081,1582814890,1,0.2813623249530792,0.1671365648508072,0.9862173199653625,-52.18505859375,-96.37451171875,94.29931640625
1.2000339031219482,1582814888,0,0.3420693278312683,0.37612098455429077,1.0692569017410278,-98.6328125,60.791015625,71.8994140625
1.2000579833984375,1582814907,0,0.3420693278312683,0.33364051580429077,1.0028506517410278,-114.3798828125,108.33740234375,90.14892578125
1.2151050567626953,1582814909,1,0.4483545124530792,0.05873812735080719,0.8695181012153625,-44.0673828125,-92.529296875,98.14453125
1.239441156387329,1582814926,0,0.1887490153312683,0.30434364080429077,1.0316592454910278,-117.98095703125,116.8212890625,72.20458984375
1.2435309886932373,1582814928,1,0.4254052937030792,0.04433383047580719,0.7638052105903625,-12.3291015625,-93.26171875,108.642578125
1.2436110973358154,1582814947,1,0.3912256062030792,0.09535922110080719,0.9876821637153625,36.1328125,-105.65185546875,95.21484375
1.2577588558197021,1582814962,0,0.2639443278312683,0.20741981267929077,1.0631533861160278,-72.8759765625,89.111328125,34.1796875
1.286388874053955,1582814966,1,0.3550927937030792,0.1944803148508072,1.1170767545700073,56.2744140625,-94.05517578125,81.48193359375
1.2911601066589355,1582814981,0,0.2109658122062683,0.29579871892929077,1.0309268236160278,-41.50390625,95.39794921875,51.94091796875
1.305237054824829,1582814985,1,0.3414209187030792,0.264792799949646,1.1207388639450073,54.19921875,-82.82470703125,55.84716796875
1.3053040504455566,1582815004,1,0.4393213093280792,0.2159646898508072,1.0611685514450073,56.15234375,-95.52001953125,22.3388671875
1.3200910091400146,1582815000,0,0.1777626872062683,0.42641395330429077,0.9518252611160278,-37.53662109375,85.9375,55.0537109375
1.3201420307159424,1582815019,0,0.10134667903184891,0.5811991095542908,0.9965029954910278,-60.9130859375,63.41552734375,25.81787109375
1.3421108722686768,1582815023,1,0.2725732624530792,0.2359842211008072,0.7552602887153625,71.8994140625,-101.6845703125,-8.7890625
1.349802017211914,1582815038,0,0.1509072184562683,0.5316385626792908,1.1273623704910278,-106.87255859375,22.39990234375,-2.13623046875
1.349851131439209,1582815057,0,0.2881142497062683,0.35073035955429077,1.3397647142410278,-127.44140625,-18.06640625,11.65771484375
1.365217924118042,1582815042,1,0.5643212795257568,0.483054518699646,0.9198110699653625,88.19580078125,-88.8671875,-55.0537109375
1.3652520179748535,1582815061,1,0.6568505764007568,0.394675612449646,1.0164908170700073,95.88623046875,-8.9111328125,-62.98828125
1.389343023300171,1582815076,0,0.5005165934562683,-0.04160361737012863,1.0809756517410278,-94.42138671875,-28.38134765625,87.21923828125
1.3952100276947021,1582815080,1,0.23863771557807922,0.357566237449646,1.0296744108200073,100.15869140625,1.15966796875,-32.71484375
1.3952410221099854,1582815099,1,-0.023813456296920776,0.374167799949646,1.0035513639450073,86.3037109375,-88.07373046875,-19.34814453125
1.410146951675415,1582815095,0,0.2907997965812683,-0.01572471112012863,0.9462100267410278,-40.22216796875,65.4296875,62.68310546875
1.4101769924163818,1582815114,0,0.1887490153312683,0.18984168767929077,0.9457217454910278,-4.8828125,100.40283203125,7.14111328125
1.442073106765747,1582815133,0,0.3191201090812683,0.31044715642929077,0.9515811204910278,22.76611328125,105.1025390625,0.244140625
1.4551570415496826,1582815135,1,0.4551904499530792,0.362204909324646,0.6788442730903625,144.10400390625,-129.08935546875,-76.84326171875
1.455186128616333,1582815154,1,0.5401513576507568,0.582419753074646,0.7848013043403625,151.55029296875,-125.79345703125,-96.00830078125
1.4702908992767334,1582815152,0,0.1594521403312683,0.38661903142929077,0.9969912767410278,46.630859375,112.79296875,0.9765625
1.4703431129455566,1582815171,0,0.1384560465812683,0.45033973455429077,0.8822451829910278,64.27001953125,127.13623046875,-42.54150390625
1.4901270866394043,1582815173,1,0.5985009670257568,0.812400221824646,0.7308462262153625,132.75146484375,-86.60888671875,-100.9521484375
1.5002169609069824,1582815190,0,0.1882607340812683,0.5387186408042908,0.7714053392410278,47.8515625,141.6015625,-65.12451171875
1.5142099857330322,1582815192,1,0.6165673732757568,0.860251784324646,0.6590688824653625,114.92919921875,-56.57958984375,-81.0546875
1.514281988143921,1582815211,1,0.4925439655780792,0.837546706199646,0.7125356793403625,115.478515625,-10.986328125,-77.20947265625
1.5371119976043701,1582815226,0,0.11013574153184891,0.5912088751792908,0.7218447923660278,22.03369140625,127.62451171875,-33.38623046875
1.5436530113220215,1582815230,1,0.3504541218280792,0.683982253074646,0.5926626324653625,87.40234375,-8.30078125,-127.38037109375
1.543656826019287,1582815249,1,0.3672998249530792,0.949851393699646,0.5174673199653625,51.7578125,-14.46533203125,-105.46875
1.5586819648742676,1582815245,0,0.014920897781848907,0.6334452033042908,0.7792178392410278,39.306640625,114.990234375,34.912109375
1.5587739944458008,1582815264,0,0.1257607340812683,0.6478495001792908,0.7377139329910278,48.76708984375,96.25244140625,78.125
1.5733389854431152,1582815268,1,0.3597314655780792,1.051413893699646,0.44398102164268494,33.87451171875,6.77490234375,-56.2744140625
1.5907881259918213,1582815283,0,0.03445214778184891,0.8397440314292908,0.6534854173660278,15.0146484375,88.8671875,69.2138671875
1.6175191402435303,1582815302,0,0.06228417903184891,0.7943338751792908,0.6883975267410278,-10.92529296875,77.45361328125,53.7109375
1.6185829639434814,1582815321,0,0.10110253840684891,0.7748026251792908,0.7250186204910278,-27.77099609375,84.3505859375,41.748046875
1.6368041038513184,1582815287,1,0.19664552807807922,0.826804518699646,0.47449859976768494,25.57373046875,2.0751953125,-21.728515625
1.6368088722229004,1582815306,1,0.3140771687030792,0.854148268699646,0.46375641226768494,18.12744140625,-10.1318359375,-23.8037109375
1.6368381977081299,1582815325,1,0.2759912312030792,0.898826003074646,0.44642242789268494,11.77978515625,-34.36279296875,-59.02099609375
1.6488139629364014,1582815340,0,0.05349511653184891,0.7237772345542908,0.7455264329910278,-34.3017578125,97.47314453125,42.66357421875
1.6634831428527832,1582815344,1,0.2737939655780792,0.858298659324646,0.43275055289268494,-9.6435546875,-34.24072265625,-70.00732421875
1.6635079383850098,1582815363,1,0.21764162182807922,0.844626784324646,0.43104156851768494,-20.99609375,-22.8271484375,-61.95068359375
1.6874821186065674,1582815359,0,0.026151366531848907,0.7030252814292908,0.6681338548660278,-30.76171875,102.9052734375,40.46630859375
1.6874990463256836,1582815378,0,-0.009004883468151093,0.7391580939292908,0.6349307298660278,-32.40966796875,97.59521484375,40.4052734375
1.693810224533081,1582815399,1,0.22960451245307922,0.766257643699646,0.49720367789268494,-6.77490234375,-33.8134765625,-34.7900390625
1.7086970806121826,1582815397,0,-0.05319433659315109,0.7257303595542908,0.6383486986160278,-39.0625,86.9140625,41.6259765625
1.7087280750274658,1582815416,0,-0.0075400397181510925,0.7088846564292908,0.6901065111160278,-46.2646484375,81.4208984375,48.88916015625
1.7345590591430664,1582815418,1,0.20445802807807922,0.716697096824646,0.5404165387153625,25.2685546875,-39.73388671875,-35.70556640625
1.7406320571899414,1582815435,0,0.018583007156848907,0.7450174689292908,0.6908389329910278,-41.1376953125,82.45849609375,63.17138671875
1.7536449432373047,1582815437,1,0.21446779370307922,0.857077956199646,0.45374664664268494,36.92626953125,-37.841796875,-25.93994140625
1.753706932067871,1582815456,1,0.20885255932807922,0.911521315574646,0.45447906851768494,26.123046875,-33.50830078125,-22.8271484375
1.7683119773864746,1582815454,0,0.011991210281848907,0.7835916876792908,0.6564151048660278,-41.6259765625,91.9189453125,71.59423828125
1.7906899452209473,1582815475,1,0.17247560620307922,0.897117018699646,0.44691070914268494,7.99560546875,-29.78515625,-9.09423828125
1.7983291149139404,1582815490,0,-0.022432617843151093,0.8604959845542908,0.5282412767410278,-75.62255859375,106.99462890625,58.7158203125
1.8138151168823242,1582815494,1,0.22423341870307922,0.860251784324646,0.45228180289268494,-9.21630859375,-33.8134765625,-0.3662109375
1.8138458728790283,1582815513,1,0.18541505932807922,0.857077956199646,0.41175445914268494,-16.78466796875,-28.564453125,-7.75146484375
1.838451862335205,1582815509,0,0.031034179031848907,0.7987284064292908,0.5902529954910278,-95.52001953125,106.26220703125,54.6875
1.8384602069854736,1582815528,0,-0.0024130865931510925,0.7704080939292908,0.6107608079910278,-102.294921875,104.736328125,66.71142578125
1.8454070091247559,1582815532,1,0.17979982495307922,0.896872878074646,0.44617828726768494,-9.82666015625,-14.404296875,-10.1318359375
1.8586440086364746,1582815547,0,-0.023409180343151093,0.7206034064292908,0.6114932298660278,-91.49169921875,101.6845703125,68.7255859375
1.858720064163208,1582815566,0,-0.030245117843151093,0.7679666876792908,0.5861026048660278,-80.810546875,94.90966796875,66.22314453125
1.886781930923462,1582815551,1,0.18932130932807922,0.939109206199646,0.47816070914268494,-5.43212890625,-1.40380859375,-9.765625
1.886786937713623,1582815570,1,0.16270998120307922,0.923728346824646,0.49427399039268494,-10.07080078125,1.77001953125,0.732421875
1.8927412033081055,1582815585,0,-0.06295996159315109,0.7845682501792908,0.6124697923660278,-83.55712890625,92.8955078125,57.373046875
1.9034810066223145,1582815589,1,0.14684084057807922,0.882956862449646,0.5013540387153625,-9.521484375,-8.056640625,5.06591796875
1.9034979343414307,1582815608,1,0.18297365307807922,0.855613112449646,0.48548492789268494,-8.544921875,-13.5498046875,2.25830078125
1.9185969829559326,1582815604,0,-0.09225683659315109,0.7103495001792908,0.6774111986160278,-90.6982421875,92.10205078125,55.7861328125
1.918673038482666,1582815623,0,-0.11520605534315109,0.7181620001792908,0.6615420579910278,-89.84375,96.923828125,65.12451171875
1.9410171508789062,1582815627,1,0.18370607495307922,0.874167799949646,0.45277008414268494,-9.21630859375,-9.46044921875,-5.0048828125
1.9489772319793701,1582815642,0,-0.12301855534315109,0.7606424689292908,0.6410342454910278,-88.5009765625,98.20556640625,72.75390625
1.9637789726257324,1582815663,1,0.16246584057807922,0.912253737449646,0.47425445914268494,-17.39501953125,9.21630859375,-6.28662109375
1.9874229431152344,1582815661,0,-0.10568457096815109,0.7796854376792908,0.6591006517410278,-92.041015625,94.7265625,74.70703125
1.9874279499053955,1582815680,0,-0.09445410221815109,0.7813944220542908,0.6788760423660278,-90.14892578125,91.85791015625,72.81494140625
1.9953498840332031,1582815682,1,0.14562013745307922,0.901999831199646,0.5489614605903625,-22.64404296875,4.8828125,-3.173828125
2.010064125061035,1582815699,0,-0.09640722721815109,0.7555155158042908,0.7211123704910278,-86.36474609375,88.68408203125,70.00732421875
2.0100929737091064,1582815718,0,-0.07687597721815109,0.7596659064292908,0.7323428392410278,-78.9794921875,88.31787109375,71.044921875
2.0358798503875732,1582815701,1,0.15465334057807922,0.882468581199646,0.5543325543403625,-19.71435546875,-4.150390625,-0.06103515625
2.035888195037842,1582815720,1,0.15538576245307922,0.861472487449646,0.5225942730903625,-9.58251953125,-9.21630859375,-3.23486328125
2.0530171394348145,1582815739,1,0.17027834057807922,0.888816237449646,0.5330923199653625,-8.11767578125,-8.056640625,-6.4697265625
2.054759979248047,1582815758,1,0.17174318432807922,0.870017409324646,0.5372427105903625,-9.8876953125,-8.544921875,-9.6435546875
2.0685839653015137,1582815754,0,-0.06540136784315109,0.7977518439292908,0.7096377611160278,-85.38818359375,92.71240234375,70.25146484375
2.0686120986938477,1582815773,0,-0.08981543034315109,0.7804178595542908,0.6876651048660278,-93.8720703125,92.529296875,69.7021484375
2.0900561809539795,1582815777,1,0.17369630932807922,0.882712721824646,0.5345571637153625,-8.60595703125,-13.427734375,-13.427734375
2.1001341342926025,1582815792,0,-0.07541113346815109,0.7533182501792908,0.7052432298660278,-91.9189453125,88.37890625,69.82421875
2.1150619983673096,1582815796,1,0.14146974682807922,0.891745924949646,0.49695953726768494,-9.3994140625,-19.287109375,-17.02880859375
2.1151301860809326,1582815815,1,0.13780763745307922,0.926169753074646,0.47791656851768494,-7.62939453125,-18.06640625,-14.0380859375
2.139080047607422,1582815811,0,-0.04538183659315109,0.7728495001792908,0.6915713548660278,-91.30859375,86.669921875,68.54248046875
2.139085054397583,1582815830,0,-0.04318457096815109,0.7779764533042908,0.6923037767410278,-95.39794921875,80.9326171875,67.19970703125
2.1451361179351807,1582815834,1,0.14439943432807922,0.905906081199646,0.46522125601768494,-8.85009765625,-16.54052734375,-9.3994140625
2.1602060794830322,1582815849,0,-0.03146582096815109,0.7748026251792908,0.6398135423660278,-104.3701171875,78.2470703125,67.68798828125
2.1602699756622314,1582815868,0,-0.023409180343151093,0.7782205939292908,0.5580264329910278,-118.408203125,69.091796875,71.2890625
2.188135862350464,1582815853,1,0.12853029370307922,0.877097487449646,0.44446930289268494,-12.14599609375,-20.3857421875,-10.92529296875
2.188141107559204,1582815872,1,0.13170412182807922,0.853904128074646,0.41614899039268494,-13.427734375,-24.90234375,-16.66259765625
2.1930339336395264,1582815887,0,0.04641503840684891,0.8084940314292908,0.5287295579910278,-141.41845703125,51.025390625,70.12939453125
2.206294059753418,1582815891,1,0.11412599682807922,0.864890456199646,0.44080719351768494,-14.46533203125,-28.564453125,-22.705078125
2.22001314163208,1582815906,0,0.07815331965684891,0.6974100470542908,0.6273623704910278,-170.0439453125,39.9169921875,61.95068359375
2.2200629711151123,1582815925,0,0.1411415934562683,0.7257303595542908,0.6197940111160278,-194.3359375,49.13330078125,68.4814453125
2.2416160106658936,1582815927,1,0.11900880932807922,0.919822096824646,0.42322906851768494,-42.48046875,-43.701171875,-35.888671875
2.250188112258911,1582815944,0,0.2314736247062683,0.7184061408042908,0.5787783861160278,-212.890625,56.0302734375,82.3974609375
2.2635178565979004,1582815946,1,0.13731935620307922,0.921286940574646,0.42249664664268494,-75.0732421875,-50.84228515625,-36.68212890625
2.2875800132751465,1582815963,0,0.3608681559562683,0.39052528142929077,0.6039248704910278,-226.13525390625,96.8017578125,77.63671875
2.287585973739624,1582815982,0,0.3674599528312683,0.39223426580429077,0.6932803392410278,-188.41552734375,114.013671875,75.439453125
2.295362949371338,1582815965,1,0.15172365307807922,0.823630690574646,0.43055328726768494,-106.5673828125,-66.2841796875,-39.73388671875
2.295389175415039,1582815984,1,0.21104982495307922,0.725486159324646,0.37171539664268494,-135.19287109375,-89.41650390625,-39.24560546875
2.3100199699401855,1582816018,0,-0.4301474690437317,0.6727518439292908,0.7967959642410278,-192.138671875,107.2998046875,21.05712890625
2.3346879482269287,1582816003,1,0.3194482624530792,0.704978346824646,0.32288727164268494,-156.3720703125,-101.74560546875,-18.98193359375
2.3346941471099854,1582816022,1,0.3367822468280792,0.616599440574646,0.44398102164268494,-189.8193359375,-92.4072265625,39.6728515625
2.342393159866333,1582816037,0,-0.2675498127937317,0.6483377814292908,0.6215029954910278,-170.59326171875,18.24951171875,-7.2021484375
2.3551862239837646,1582816041,1,0.4449365437030792,0.337058424949646,0.6068227887153625,-164.55078125,-119.32373046875,63.04931640625
2.3552680015563965,1582816060,1,0.3734033405780792,0.421286940574646,0.6539419293403625,-95.8251953125,-76.84326171875,24.96337890625
2.3685948848724365,1582816056,0,0.2651650309562683,0.30434364080429077,1.0780459642410278,-132.87353515625,-63.8427734375,9.521484375
2.3686630725860596,1582816075,0,0.3064247965812683,0.45668739080429077,1.1356631517410278,-94.23828125,-65.5517578125,51.025390625
2.39137601852417,1582816079,1,0.20079591870307922,0.959372878074646,0.46326813101768494,-94.29931640625,-91.796875,15.44189453125
2.4000210762023926,1582816094,0,0.3628212809562683,0.5750955939292908,1.0670596361160278,-88.37890625,-51.7578125,53.955078125
2.4154269695281982,1582816098,1,0.9979150295257568,1.182029128074646,0.24305327236652374,-166.19873046875,-139.0380859375,90.087890625
2.4154579639434814,1582816117,1,0.7503564357757568,0.511130690574646,0.7086294293403625,-193.115234375,-21.66748046875,139.5263671875
2.4392969608306885,1582816113,0,0.3491494059562683,0.6541971564292908,0.9918643236160278,-104.4921875,-20.44677734375,51.57470703125
2.4393022060394287,1582816132,0,0.4595009684562683,0.7245096564292908,0.8973819017410278,-123.4130859375,-1.46484375,49.31640625
2.445143938064575,1582816136,1,0.6910302639007568,0.368796706199646,0.8480337262153625,-154.541015625,34.912109375,78.55224609375
2.460174083709717,1582816151,0,0.6052529215812683,0.7735819220542908,0.8949404954910278,-144.34814453125,-6.4697265625,22.03369140625
2.474397897720337,1582816155,1,0.7274072170257568,0.416648268699646,1.0394400358200073,-146.78955078125,7.080078125,18.5546875
2.4903810024261475,1582816170,0,0.5605751872062683,0.6822733283042908,1.0140811204910278,-159.912109375,-3.47900390625,-9.3994140625
2.4903862476348877,1582816189,0,0.3769814372062683,0.6397928595542908,1.1869326829910278,-158.8134765625,14.892578125,-17.08984375
2.5051398277282715,1582816191,1,0.5113427639007568,0.877341628074646,1.3648794889450073,-87.82958984375,-37.90283203125,-28.9306640625
2.505169153213501,1582816210,1,0.21422365307807922,-0.03598843514919281,1.2374380826950073,-83.49609375,-58.65478515625,12.63427734375
2.520181894302368,1582816208,0,0.3127724528312683,0.5457987189292908,1.2020694017410278,-135.009765625,25.32958984375,4.82177734375
2.520252227783203,1582816227,0,0.3357216715812683,0.6397928595542908,1.3136416673660278,-118.83544921875,12.3291015625,28.25927734375
2.5402889251708984,1582816229,1,0.5491845607757568,0.297019362449646,1.3050650358200073,-16.17431640625,-123.22998046875,-16.4794921875
2.5500001907348633,1582816246,0,0.3984658122062683,0.5653299689292908,1.3551455736160278,-123.291015625,3.60107421875,20.56884765625
2.5651519298553467,1582816248,1,0.5027978420257568,0.549460768699646,1.1739615201950073,51.3916015625,-63.04931640625,10.7421875
2.565217971801758,1582816267,1,0.4581201374530792,0.636374831199646,1.1539419889450073,62.80517578125,-62.98828125,-12.6953125
2.588404893875122,1582816282,0,0.1716591715812683,0.40224403142929077,1.4232608079910278,-106.14013671875,-4.8828125,11.1083984375
2.5955541133880615,1582816286,1,0.4700830280780792,0.645163893699646,1.1734732389450073,55.84716796875,-73.6083984375,-33.02001953125
2.6101622581481934,1582816301,0,0.06741113215684891,0.34853309392929077,1.4208194017410278,-74.64599609375,-2.99072265625,27.099609375
2.6373438835144043,1582816305,1,0.5096337795257568,0.717429518699646,1.1112173795700073,39.00146484375,-87.646484375,-53.64990234375
2.6373491287231445,1582816324,1,0.5042626857757568,0.680808424949646,1.1346548795700073,24.90234375,-103.82080078125,-35.94970703125
2.642967939376831,1582816320,0,0.11135644465684891,0.33876746892929077,1.4112979173660278,-44.49462890625,-6.16455078125,53.22265625
2.642972230911255,1582816339,0,0.1770302653312683,0.37514442205429077,1.3605166673660278,-22.3388671875,-31.43310546875,52.06298828125
2.6551411151885986,1582816343,1,0.5064599514007568,0.656150221824646,1.0301626920700073,-7.99560546875,-124.1455078125,-24.169921875
2.670023202896118,1582816358,0,0.1269814372062683,0.36244910955429077,1.3707705736160278,-24.71923828125,-21.66748046875,28.86962890625
2.670053005218506,1582816377,0,0.03811425715684891,0.31655067205429077,1.2723819017410278,-31.31103515625,11.53564453125,14.46533203125
2.690446138381958,1582816362,1,0.4818017780780792,0.552634596824646,1.0118521451950073,-18.1884765625,-127.25830078125,-19.22607421875
2.69045090675354,1582816381,1,0.3824365437030792,0.493064284324646,0.9371450543403625,-15.7470703125,-126.52587890625,-24.0478515625
2.701348066329956,1582816396,0,0.026395507156848907,0.19106239080429077,1.1180850267410278,-36.1328125,28.62548828125,13.12255859375
2.7152299880981445,1582816400,1,0.3538720905780792,0.456443190574646,0.8643911480903625,-0.79345703125,-127.62451171875,-23.681640625
2.7153210639953613,1582816419,1,0.3399560749530792,0.386863112449646,0.7723501324653625,12.3291015625,-131.40869140625,-30.33447265625
2.738840103149414,1582816415,0,-0.10080175846815109,0.27431434392929077,1.0646182298660278,-40.95458984375,35.21728515625,25.45166015625
2.738847017288208,1582816434,0,-0.10641699284315109,0.26503700017929077,0.9747744798660278,-37.53662109375,32.71484375,54.99267578125
2.758043050765991,1582816453,0,-0.1300986409187317,0.27895301580429077,0.9471865892410278,-38.39111328125,46.5087890625,67.87109375
2.7861061096191406,1582816455,1,0.3082177937030792,0.410056471824646,0.6287954449653625,5.859375,-131.2255859375,-24.10888671875
2.786112070083618,1582816474,1,0.3001611530780792,0.404685378074646,0.5743520855903625,-6.591796875,-131.04248046875,-11.8408203125
2.7904610633850098,1582816472,0,-0.1474326252937317,0.27797645330429077,0.8841983079910278,-39.36767578125,68.29833984375,77.20947265625
2.7905001640319824,1582816491,0,-0.1493857502937317,0.19838660955429077,0.8387881517410278,-48.095703125,100.2197265625,76.416015625
2.805340051651001,1582816493,1,0.3692529499530792,0.364402174949646,0.48719391226768494,-6.28662109375,-99.06005859375,27.4658203125
2.8201820850372314,1582816510,0,-0.2106650471687317,0.27797645330429077,0.7970401048660278,-63.96484375,112.12158203125,72.69287109375
2.8412258625030518,1582816512,1,0.3604638874530792,0.300437331199646,0.46448883414268494,-7.62939453125,-85.38818359375,20.44677734375
2.841231107711792,1582816531,1,0.3414209187030792,0.2486795336008072,0.41883453726768494,-10.6201171875,-73.6083984375,-0.48828125
2.8499860763549805,1582816546,0,-0.1825888752937317,0.24135535955429077,0.5961123704910278,-80.74951171875,111.02294921875,94.05517578125
2.86527419090271,1582816550,1,0.3511865437030792,0.297507643699646,0.41981109976768494,-12.39013671875,-68.359375,-6.7138671875
2.865311861038208,1582816569,1,0.3255517780780792,0.295066237449646,0.39344391226768494,-23.86474609375,-65.91796875,-9.1552734375
2.887855052947998,1582816565,0,-0.2255576252937317,0.21840614080429077,0.5807315111160278,-68.84765625,83.3740234375,106.8115234375
2.88785982131958,1582816584,0,-0.2082236409187317,0.21865028142929077,0.6014834642410278,-68.66455078125,61.95068359375,110.9619140625
2.8936071395874023,1582816588,1,0.2689111530780792,0.337546706199646,0.36732086539268494,-32.71484375,-62.07275390625,-5.31005859375
2.9088680744171143,1582816603,0,-0.2011435627937317,0.20009559392929077,0.5768252611160278,-78.79638671875,50.6591796875,113.8916015625
2.933565139770508,1582816607,1,0.2532861530780792,0.303611159324646,0.33069977164268494,-39.24560546875,-57.9833984375,24.35302734375
2.93356990814209,1582816626,1,0.2808740437030792,0.293113112449646,0.32777008414268494,-51.3916015625,-53.955078125,39.55078125
2.9397730827331543,1582816622,0,-0.1696494221687317,0.19130653142929077,0.5487490892410278,-81.84814453125,44.49462890625,129.39453125
2.9397780895233154,1582816641,0,-0.06613378971815109,0.21083778142929077,0.5477725267410278,-86.12060546875,40.283203125,154.23583984375
2.9535489082336426,1582816645,1,0.3189599812030792,0.262839674949646,0.30970367789268494,-71.4111328125,-45.166015625,35.46142578125
2.9683382511138916,1582816660,0,0.030790038406848907,0.24379676580429077,0.5785342454910278,-100.64697265625,56.640625,167.29736328125
2.990831136703491,1582816664,1,0.3277490437030792,0.318747878074646,0.31312164664268494,-82.94677734375,-38.4521484375,25.7568359375
2.9908368587493896,1582816683,1,0.2850244343280792,0.358786940574646,0.35535797476768494,-76.47705078125,-22.705078125,37.2314453125
2.9986732006073,1582816679,0,0.08938378840684891,0.25966590642929077,0.5792666673660278,-115.90576171875,78.43017578125,175.47607421875
2.9987308979034424,1582816698,0,0.08694238215684891,0.26528114080429077,0.5160342454910278,-128.72314453125,108.33740234375,181.33544921875
3.013521194458008,1582816719,1,0.3558252155780792,0.263327956199646,0.49232086539268494,-60.24169921875,16.845703125,92.28515625
3.037006139755249,1582816717,0,-0.04489355534315109,0.21401160955429077,0.5323916673660278,-130.43212890625,108.09326171875,172.7294921875
3.037013053894043,1582816736,0,-0.03586035221815109,0.09853310137987137,0.6295596361160278,-118.10302734375,76.84326171875,179.38232421875
3.0438950061798096,1582816738,1,0.4002588093280792,0.2140115648508072,0.5199087262153625,-59.6923828125,28.74755859375,103.3935546875
3.0583910942077637,1582816755,0,0.008329100906848907,0.07387489825487137,0.7135440111160278,-104.736328125,57.43408203125,206.4208984375
3.085033893585205,1582816757,1,0.4158838093280792,0.1690896898508072,0.5413931012153625,-53.466796875,34.912109375,104.67529296875
3.0850391387939453,1582816776,1,0.4097802937030792,0.1698221117258072,0.6278188824653625,-40.771484375,38.75732421875,106.87255859375
3.0909621715545654,1582816774,0,0.10085839778184891,0.11049599200487137,0.8041201829910278,-102.294921875,58.89892578125,232.177734375
3.103560209274292,1582816795,1,0.3941552937030792,0.1712869554758072,0.7113149762153625,-28.74755859375,43.64013671875,117.73681640625
3.120065927505493,1582816810,0,0.1347939372062683,0.04238075762987137,0.8087588548660278,-134.521484375,96.49658203125,225.52490234375
3.141033887863159,1582816814,1,0.3922021687030792,0.12441195547580719,0.7918813824653625,-28.01513671875,61.03515625,129.39453125
3.1410391330718994,1582816833,1,0.4227197468280792,0.08730258047580719,0.8153188824653625,-34.24072265625,73.18115234375,131.65283203125
3.150122880935669,1582816829,0,0.2041298747062683,-0.04477744549512863,0.9484072923660278,-138.5498046875,68.84765625,219.7265625
3.150179147720337,1582816848,0,0.3213173747062683,-0.04990439862012863,1.1073428392410278,-120.91064453125,39.1845703125,227.6611328125
3.165285110473633,1582816852,1,0.4227197468280792,0.09242953360080719,0.8209341168403625,-38.330078125,85.99853515625,125.6103515625
3.189244031906128,1582816867,0,0.4087197184562683,-0.01670127362012863,1.2106143236160278,-111.63330078125,39.97802734375,221.49658203125
3.189249038696289,1582816886,0,0.4858681559562683,-0.02719932049512863,1.1556826829910278,-105.28564453125,70.00732421875,193.17626953125
3.1952500343322754,1582816871,1,0.3602197468280792,0.1383279711008072,0.8968618512153625,-40.34423828125,89.2333984375,133.97216796875
3.195282220840454,1582816890,1,0.3094384968280792,0.1690896898508072,1.0587271451950073,-65.185546875,92.041015625,172.9736328125
3.210106134414673,1582816905,0,0.4595009684562683,-0.02964072674512863,1.1903506517410278,-87.646484375,75.68359375,187.31689453125
3.2354249954223633,1582816909,1,0.3555810749530792,0.05312289297580719,1.1478384733200073,-85.38818359375,94.970703125,213.8671875
3.235429048538208,1582816928,1,0.2537744343280792,-0.1707540601491928,1.1327017545700073,-74.03564453125,133.30078125,256.9580078125
3.2417290210723877,1582816924,0,0.8613564372062683,0.35658973455429077,1.1903506517410278,-98.81591796875,74.8291015625,162.04833984375
3.241734027862549,1582816943,0,0.7146279215812683,0.18617957830429077,1.4379092454910278,-124.3896484375,66.7724609375,133.36181640625
3.254937171936035,1582816947,1,0.6026513576507568,-0.1866232007741928,1.2105826139450073,-80.322265625,134.70458984375,223.44970703125
3.2674779891967773,1582816962,0,0.8501259684562683,-0.19175010919570923,1.5445986986160278,-98.388671875,90.51513671875,176.513671875
3.291827917098999,1582816983,1,0.5076806545257568,-0.673439621925354,1.7603873014450073,-114.92919921875,75.0732421875,168.3349609375
3.301934003829956,1582816981,0,0.8901650309562683,-0.03965049237012863,1.5472842454910278,-38.14697265625,106.75048828125,211.42578125
3.3019399642944336,1582817000,0,1.069852590560913,0.09853310137987137,1.5856143236160278,-17.02880859375,110.4736328125,205.078125
3.315031051635742,1582817002,1,0.7254540920257568,-0.765968918800354,1.9210318326950073,-74.52392578125,52.55126953125,194.2138671875
3.3385820388793945,1582817019,0,1.364042043685913,0.06410927325487137,1.7745791673660278,-13.48876953125,115.53955078125,173.15673828125
3.3385860919952393,1582817038,0,1.653836965560913,0.012351460754871368,1.9818545579910278,-26.91650390625,141.845703125,125.6103515625
3.345181941986084,1582817021,1,0.9984033107757568,-0.790627121925354,1.9754751920700073,-38.0859375,39.85595703125,186.70654296875
3.3452138900756836,1582817040,1,1.2742822170257568,-0.733498215675354,1.8895376920700073,8.23974609375,37.2314453125,160.33935546875
3.373136043548584,1582817059,1,1.3975732326507568,-0.690041184425354,1.9268912076950073,52.001953125,47.7294921875,132.9345703125
3.3857550621032715,1582817078,1,1.4088037014007568,-0.578957200050354,2.1400258541107178,68.29833984375,51.025390625,92.59033203125
3.3916800022125244,1582817074,0,1.696805715560913,-0.19248253107070923,1.9720889329910278,23.01025390625,165.22216796875,138.36669921875
3.3919999599456787,1582817093,0,1.996122121810913,-0.04892783612012863,1.7552920579910278,139.34326171875,109.43603515625,157.16552734375
3.404921054840088,1582817097,1,1.6570947170257568,-0.491066575050354,2.1007192134857178,80.50537109375,38.14697265625,54.5654296875
3.4200520515441895,1582817112,0,2.353055715560913,0.10781044512987137,1.6727725267410278,198.486328125,86.24267578125,123.22998046875
3.4416379928588867,1582817116,1,1.7042138576507568,-0.569923996925354,2.1112172603607178,140.31982421875,4.2724609375,82.70263671875
3.441642999649048,1582817135,1,2.012563467025757,-0.701759934425354,2.2323110103607178,168.3349609375,-30.517578125,5.4931640625
3.4502670764923096,1582817131,0,2.705838918685913,0.38222450017929077,1.2079287767410278,151.85546875,121.88720703125,-8.60595703125
3.450360059738159,1582817150,0,2.556913137435913,0.21132606267929077,1.1129580736160278,99.67041015625,70.068359375,-93.75
3.4651451110839844,1582817154,1,2.106069326400757,-0.992531418800354,1.8641470670700073,239.1357421875,-57.06787109375,30.8837890625
3.4883339405059814,1582817169,0,2.359891653060913,-0.09824424237012863,1.1547061204910278,89.29443359375,60.1806640625,-91.4306640625
3.4883389472961426,1582817188,0,2.244413137435913,-0.15757042169570923,1.1014834642410278,84.04541015625,89.17236328125,-95.15380859375
3.4936912059783936,1582817173,1,1.9630029201507568,-1.062843918800354,1.6307486295700073,288.87939453125,-79.58984375,-10.55908203125
3.493765115737915,1582817192,1,1.7466943264007568,-1.104103684425354,1.4515494108200073,305.48095703125,-106.0791015625,-36.7431640625
3.510183811187744,1582817207,0,2.023954153060913,-0.41050010919570923,0.9679385423660278,92.95654296875,76.23291015625,-114.19677734375
3.5360610485076904,1582817211,1,1.5416162014007568,-1.183205246925354,1.2115591764450073,300.72021484375,-114.3798828125,-70.25146484375
3.540937900543213,1582817226,0,1.851590871810913,-0.5787129998207092,0.9625674486160278,118.34716796875,20.1416015625,-134.8876953125
3.540943145751953,1582817245,0,1.532010793685913,-0.5677266716957092,0.9059268236160278,128.96728515625,-5.43212890625,-151.67236328125
3.5550551414489746,1582817247,1,1.1505029201507568,-1.144142746925354,0.9686391949653625,317.5048828125,-157.16552734375,-102.35595703125
3.5698599815368652,1582817264,0,1.349149465560913,-0.5804219841957092,0.8238955736160278,115.3564453125,1.0986328125,-160.70556640625
3.591846227645874,1582817266,1,0.8990380764007568,-1.118752121925354,0.8228872418403625,303.22265625,-170.83740234375,-124.267578125
3.591850996017456,1582817285,1,0.5645654201507568,-0.972023606300354,0.5897329449653625,272.76611328125,-192.32177734375,-149.90234375
3.5986359119415283,1582817283,0,1.086698293685913,-0.6431661248207092,0.6625186204910278,87.21923828125,21.42333984375,-154.052734375
3.5987298488616943,1582817302,0,0.7373329997062683,-0.6219258904457092,0.5516787767410278,53.1005859375,25.45166015625,-136.16943359375
3.615429162979126,1582817304,1,0.3389795124530792,-0.815041184425354,0.34339508414268494,238.76953125,-221.37451171875,-148.92578125
3.6385440826416016,1582817338,0,0.1904579997062683,-0.7059102654457092,0.42765533924102783,0.8544921875,-18.6767578125,-119.93408203125
3.64530086517334,1582817323,1,0.11437013745307922,-0.630959153175354,0.05189116671681404,190.61279296875,-226.4404296875,-143.73779296875
3.6453239917755127,1582817342,1,0.011831074953079224,-0.528175950050354,-0.17100922763347626,148.13232421875,-220.5810546875,-135.8642578125
3.6601641178131104,1582817357,0,0.030545897781848907,-0.6590352654457092,0.44523346424102783,12.63427734375,-56.70166015625,-104.3701171875
3.6854851245880127,1582817361,1,-0.07435056567192078,-0.383644700050354,-0.24815766513347626,92.34619140625,-208.92333984375,-130.55419921875
3.685490846633911,1582817380,1,-0.15296384692192078,-0.283547043800354,-0.18394868075847626,42.3583984375,-196.83837890625,-119.07958984375
3.690531015396118,1582817376,0,-0.10373144596815109,-0.5623555779457092,0.36588776111602783,39.97802734375,-108.94775390625,-81.54296875
3.690535068511963,1582817395,0,-0.2023642659187317,-0.40561729669570923,0.32316315174102783,48.40087890625,-153.564453125,-57.55615234375
3.704364061355591,1582817399,1,-0.19275876879692078,-0.1907735913991928,-0.08678071200847626,-3.72314453125,-185.60791015625,-98.93798828125
3.7201600074768066,1582817414,0,-0.3193076252937317,-0.34726768732070923,0.32609283924102783,38.0859375,-186.767578125,-28.74755859375
3.743263006210327,1582817418,1,-0.2586767375469208,-0.08945523202419281,0.02137358859181404,-31.005859375,-169.0673828125,-89.05029296875
3.7432701587677,1582817437,1,-0.21668455004692078,-0.1255880445241928,0.23450835049152374,-0.3662109375,-138.12255859375,-96.25244140625
3.7502150535583496,1582817433,0,-0.4572470784187317,-0.37851768732070923,0.17741118371486664,0.732421875,-208.80126953125,50.78125
3.750293016433716,1582817452,0,-0.3947470784187317,-0.13925987482070923,0.24259673058986664,-44.921875,-176.025390625,75.62255859375
3.7653679847717285,1582817456,1,-0.3407079875469208,0.01894320547580719,0.30994781851768494,24.0478515625,-110.90087890625,-96.3134765625
3.789839029312134,1582817471,0,-0.2719443440437317,0.006003804504871368,0.37394440174102783,-80.50537109375,-138.00048828125,26.123046875
3.7951548099517822,1582817475,1,-0.3914892375469208,0.338767409324646,-0.012806098908185959,17.63916015625,-104.18701171875,-67.9931640625
3.8101329803466797,1582817490,0,-1.234590768814087,0.02846474200487137,0.33414947986602783,-89.7216796875,-144.04296875,66.650390625
3.8101491928100586,1582817509,0,-0.6010459065437317,0.08486122637987137,0.7496768236160278,-65.00244140625,-125.30517578125,73.79150390625
3.836221218109131,1582817511,1,-0.3939306437969208,0.503318190574646,0.19446928799152374,16.05224609375,-64.02587890625,-66.40625
3.8362269401550293,1582817530,1,-0.7591650485992432,0.643699049949646,0.14393217861652374,-69.39697265625,-109.92431640625,-47.7294921875
3.843197822570801,1582817528,0,-0.2756064534187317,0.49599403142929077,0.7623721361160278,-84.65576171875,-85.3271484375,-43.3349609375
3.8432021141052246,1582817547,0,-0.6510947346687317,0.27089637517929077,0.7733584642410278,-91.97998046875,-97.59521484375,12.451171875
3.8548970222473145,1582817549,1,-0.3409521281719208,0.632468581199646,0.21863920986652374,-134.6435546875,-176.8798828125,-27.28271484375
3.870046854019165,1582817566,0,-0.7543662190437317,0.6358866095542908,0.5782901048660278,-112.6708984375,-47.36328125,90.087890625
3.8914191722869873,1582817568,1,-0.4425146281719208,0.740134596824646,0.48060211539268494,-88.80615234375,-110.77880859375,-42.8466796875
3.8914239406585693,1582817587,1,-0.21351072192192078,0.784568190574646,0.27698883414268494,-70.25146484375,-72.81494140625,-60.36376953125
3.8999390602111816,1582817602,0,-0.5033896565437317,0.49086707830429077,0.6466494798660278,-153.25927734375,-51.6357421875,59.326171875
3.9149811267852783,1582817606,1,-0.4464208781719208,0.903708815574646,0.18616850674152374,-124.6337890625,-50.78125,-58.16650390625
3.9386770725250244,1582817621,0,-0.6274130940437317,0.5467752814292908,0.5878115892410278,-181.15234375,-49.37744140625,26.2451171875
3.945096969604492,1582817625,1,-0.4159033000469208,0.852439284324646,0.11024077236652374,-185.9130859375,-46.08154296875,-29.052734375
3.9451279640197754,1582817644,1,-0.3573095500469208,0.839255690574646,0.26282867789268494,-203.4912109375,-25.57373046875,-17.63916015625
3.960294008255005,1582817640,0,-0.6064170002937317,0.5584940314292908,0.5922061204910278,-188.1103515625,-25.5126953125,48.27880859375
3.9603590965270996,1582817659,0,-0.4877646565437317,0.6256327033042908,0.6014834642410278,-215.576171875,12.63427734375,95.8251953125
3.9873859882354736,1582817663,1,-0.2972509562969208,0.850242018699646,0.40613922476768494,-208.1298828125,-10.43701171875,-24.2919921875
3.9936981201171875,1582817678,0,-0.3727744221687317,0.6920389533042908,0.7128115892410278,-243.34716796875,9.70458984375,142.76123046875
3.9937031269073486,1582817697,0,-0.2133505940437317,0.7542948126792908,0.9271670579910278,-261.5966796875,45.59326171875,174.4384765625
4.0042500495910645,1582817682,1,-0.3236181437969208,0.814109206199646,0.5694692730903625,-227.60009765625,-9.33837890625,-13.12255859375
4.007471084594727,1582817701,1,-0.3494970500469208,0.649558424949646,0.7906606793403625,-247.00927734375,-1.8310546875,21.484375
4.020148992538452,1582817716,0,-0.1554892659187317,0.7176737189292908,0.9156924486160278,-262.26806640625,87.5244140625,208.19091796875
4.041522026062012,1582817720,1,-0.2889501750469208,0.573142409324646,0.9469106793403625,-256.7138671875,-7.6904296875,46.38671875
4.041527032852173,1582817739,1,-0.20081540942192078,0.430564284324646,1.0289419889450073,-245.7275390625,3.23486328125,74.21875
4.05026912689209,1582817735,0,-0.06808691471815109,0.6114725470542908,1.0402041673660278,-253.41796875,117.67578125,215.6982421875
4.050359010696411,1582817754,0,-0.2008994221687317,0.5833963751792908,1.0245791673660278,-265.19775390625,76.416015625,227.294921875
4.087670087814331,1582817773,0,0.1745888590812683,0.49990028142929077,1.3629580736160278,-261.23046875,66.0400390625,224.18212890625
4.095311164855957,1582817775,1,-0.18763181567192078,0.493064284324646,1.2728384733200073,-211.669921875,49.25537109375,92.34619140625
4.095334053039551,1582817794,1,-0.2545263469219208,0.405173659324646,1.4730337858200073,-183.77685546875,61.8896484375,122.4365234375
4.10867714881897,1582817792,0,0.2160927653312683,0.5987772345542908,1.5333682298660278,-240.29541015625,101.37939453125,247.6806640625
4.108690977096558,1582817811,0,0.5315224528312683,0.5609354376792908,1.4659854173660278,-241.455078125,107.48291015625,259.765625
4.135569095611572,1582817813,1,0.057973653078079224,0.273581862449646,1.4644888639450073,-189.697265625,21.42333984375,140.869140625
4.141832113265991,1582817830,0,0.6257607340812683,0.5296854376792908,1.3690615892410278,-251.953125,81.6650390625,265.19775390625
4.15506911277771,1582817832,1,0.14562013745307922,0.2040017992258072,1.4166373014450073,-199.76806640625,3.662109375,147.76611328125
4.155102968215942,1582817851,1,0.23204591870307922,0.1495584398508072,1.4918326139450073,-215.39306640625,1.89208984375,163.26904296875
4.170332193374634,1582817866,0,0.8225380778312683,0.44350379705429077,1.6774111986160278,-167.78564453125,28.74755859375,270.5078125
4.192578077316284,1582817870,1,0.3145654499530792,-0.00522671639919281,1.7818716764450073,-213.8671875,-7.14111328125,159.85107421875
4.192583084106445,1582817889,1,0.5711572170257568,-0.00913296639919281,1.5841177701950073,-195.86181640625,-50.59814453125,167.6025390625
4.2000508308410645,1582817885,0,1.052274465560913,0.5291971564292908,1.5695010423660278,-96.13037109375,30.517578125,264.70947265625
4.200123071670532,1582817904,0,1.219510793685913,0.45107215642929077,1.4669619798660278,-42.48046875,58.28857421875,275.93994140625
4.21375298500061,1582817908,1,0.8243310451507568,-0.1856466382741928,1.4950064420700073,-188.5986328125,-70.86181640625,186.279296875
4.237854957580566,1582817923,0,1.436307668685913,0.5799784064292908,1.1332217454910278,-14.892578125,89.599609375,295.166015625
4.2451171875,1582817927,1,1.1258447170257568,-0.312111496925354,1.4581412076950073,-196.96044921875,-71.59423828125,191.22314453125
4.2451372146606445,1582817946,1,1.3843896389007568,-0.428810715675354,1.7074087858200073,-199.8291015625,-112.4267578125,193.05419921875
4.260051012039185,1582817942,0,1.491483449935913,0.6644510626792908,0.8385440111160278,0.54931640625,142.88330078125,315.36865234375
4.2600791454315186,1582817961,0,1.875516653060913,0.7228006720542908,0.8922549486160278,7.9345703125,101.806640625,289.55078125
4.272434949874878,1582817965,1,1.8492333889007568,-0.617043137550354,1.7240103483200073,-132.38525390625,-113.28125,197.93701171875
4.290869951248169,1582817980,0,2.118192434310913,0.7901834845542908,0.6632510423660278,45.95947265625,92.4072265625,238.58642578125
4.290876150131226,1582817999,0,2.064481496810913,0.5934061408042908,0.8231631517410278,45.71533203125,126.3427734375,203.4912109375
4.305176019668579,1582817984,1,2.254750967025757,-0.750343918800354,1.5706900358200073,-49.01123046875,-87.40234375,162.4755859375
4.305211067199707,1582818003,1,2.156606435775757,-0.537209153175354,1.6429556608200073,-0.244140625,-66.40625,116.51611328125
4.319354057312012,1582818018,0,2.285917043685913,0.7069315314292908,0.37785065174102783,111.75537109375,110.4736328125,176.20849609375
4.340626955032349,1582818039,1,1.9276025295257568,-0.578468918800354,0.9644888043403625,80.4443359375,-70.12939453125,116.88232421875
4.350258111953735,1582818037,0,2.014432668685913,0.17690223455429077,0.24699126183986664,78.857421875,91.73583984375,115.29541015625
4.350290060043335,1582818056,0,1.899686574935913,0.11513466387987137,0.45133697986602783,48.88916015625,119.0185546875,67.626953125
4.365375995635986,1582818058,1,1.6693017482757568,-0.482277512550354,0.8797720074653625,103.8818359375,-71.6552734375,90.9423828125
4.3886399269104,1582818075,0,1.702909231185913,-0.04184775799512863,0.5218936204910278,72.021484375,93.505859375,1.708984375
4.395220041275024,1582818077,1,1.3907372951507568,-0.704933762550354,0.6480825543403625,124.6337890625,-56.70166015625,66.89453125
4.3952860832214355,1582818096,1,0.9461572170257568,-0.631447434425354,0.6195181012153625,143.9208984375,-57.80029296875,27.28271484375
4.409923076629639,1582818094,0,1.231473684310913,-0.39023643732070923,0.5214053392410278,74.52392578125,43.51806640625,-15.380859375
4.43489408493042,1582818115,1,0.6507470607757568,-0.486672043800354,0.5426138043403625,167.48046875,-66.0400390625,-8.4228515625
4.440122127532959,1582818130,0,0.7326943278312683,-0.28086143732070923,0.5821963548660278,91.97998046875,6.103515625,-96.61865234375
4.440127849578857,1582818149,0,0.6616494059562683,-0.19175010919570923,0.5077334642410278,73.54736328125,9.46044921875,-74.5849609375
4.455091953277588,1582818134,1,0.6060693264007568,-0.724709153175354,0.7447622418403625,194.88525390625,-88.07373046875,-47.42431640625
4.455154895782471,1582818153,1,0.2820947468280792,-0.546974778175354,0.7083852887153625,238.037109375,-72.20458984375,-74.52392578125
4.470064163208008,1582818168,0,0.2868935465812683,-0.12387900799512863,0.6573916673660278,50.6591796875,14.46533203125,-113.6474609375
4.490742921829224,1582818172,1,0.21129396557807922,-0.2347189038991928,0.5113638043403625,257.4462890625,-77.1484375,-92.95654296875
4.500053882598877,1582818187,0,0.2073037028312683,0.0023416951298713684,0.47965729236602783,53.8330078125,-7.75146484375,-104.06494140625
4.500169992446899,1582818206,0,-0.0029013678431510925,0.18422645330429077,0.39664947986602783,37.59765625,-10.009765625,-109.375
4.51520299911499,1582818191,1,0.4810693562030792,-0.1548849195241928,0.39588531851768494,260.6201171875,-105.8349609375,-113.6474609375
4.515230894088745,1582818210,1,0.10289552807807922,0.2152322679758072,0.25110992789268494,285.58349609375,-115.66162109375,-133.6669921875
4.537685871124268,1582818225,0,-0.012911133468151093,0.19057410955429077,0.40836822986602783,16.7236328125,-6.9580078125,-116.27197265625
4.545212030410767,1582818229,1,0.042592793703079224,0.351462721824646,0.05384429171681404,232.421875,-102.9052734375,-145.99609375
4.5453009605407715,1582818248,1,0.040151387453079224,0.603904128074646,-0.14366547763347626,133.60595703125,-85.87646484375,-130.31005859375
4.56009316444397,1582818244,0,-0.11105566471815109,0.18984168767929077,0.37638580799102783,6.04248046875,-7.9345703125,-120.91064453125
4.5601279735565186,1582818263,0,-0.2929404377937317,0.31532996892929077,0.28019440174102783,-36.56005859375,-2.197265625,-106.4453125
4.587667942047119,1582818267,1,0.07579591870307922,0.530661940574646,0.03626616671681404,48.27880859375,-70.00732421875,-117.49267578125
4.593339204788208,1582818282,0,-0.1445029377937317,0.16371864080429077,0.30827057361602783,-84.3505859375,19.53125,-50.048828125
4.606330156326294,1582818303,1,-0.08655759692192078,0.427878737449646,0.40638336539268494,7.01904296875,-42.41943359375,-157.77587890625
4.619359016418457,1582818301,0,-0.2001670002937317,0.46059364080429077,0.49674713611602783,-127.3193359375,32.3486328125,-27.4658203125
4.619394063949585,1582818320,0,-0.09640722721815109,0.42226356267929077,0.5726748704910278,-143.61572265625,54.443359375,4.82177734375
4.642847061157227,1582818322,1,-0.08484861254692078,0.349997878074646,0.45667633414268494,-31.8603515625,-36.31591796875,-128.60107421875
4.650327920913696,1582818339,0,0.0041787102818489075,0.5113748908042908,0.5563174486160278,-153.80859375,79.04052734375,47.2412109375
4.650350093841553,1582818358,0,0.015653319656848907,0.5414041876792908,0.6866885423660278,-149.169921875,87.0361328125,59.87548828125
4.667333126068115,1582818341,1,-0.055795878171920776,0.396140456199646,0.5572622418403625,-47.119140625,-31.67724609375,-101.5625
4.667337894439697,1582818360,1,0.10582521557807922,0.252097487449646,0.5931509137153625,-55.35888671875,-21.91162109375,-90.75927734375
4.695293188095093,1582818379,1,0.013051778078079224,0.453269362449646,0.5975454449653625,-69.51904296875,-11.962890625,-95.703125
4.695327043533325,1582818398,1,0.033559590578079224,0.353415846824646,0.7369497418403625,-81.60400390625,-15.13671875,-56.57958984375
4.710227012634277,1582818394,0,0.08401269465684891,0.48671668767929077,0.6276065111160278,-123.96240234375,46.20361328125,75.01220703125
4.710284948348999,1582818413,0,0.1782509684562683,0.5697245001792908,0.6974307298660278,-135.07080078125,38.4521484375,65.12451171875
4.723643064498901,1582818417,1,0.12560060620307922,0.578513503074646,0.7154653668403625,-92.71240234375,-14.46533203125,-52.30712890625
4.741698980331421,1582818432,0,0.1772744059562683,0.6349100470542908,0.5424014329910278,-133.48388671875,26.7333984375,42.66357421875
4.755186080932617,1582818436,1,0.13438966870307922,0.401755690574646,0.6065786480903625,-112.60986328125,-14.892578125,-23.193359375
4.755216121673584,1582818455,1,0.3568017780780792,0.2242654711008072,1.0164908170700073,-108.7646484375,-15.625,-30.029296875
4.770096063613892,1582818451,0,0.3137490153312683,0.5172342658042908,0.6241885423660278,-149.47509765625,40.4052734375,40.83251953125
4.770109176635742,1582818470,0,0.2905556559562683,0.5223612189292908,0.46476471424102783,-186.82861328125,38.51318359375,13.18359375
4.791456937789917,1582818474,1,0.3939111530780792,0.308005690574646,0.8870962262153625,-96.86279296875,-0.06103515625,-23.49853515625
4.800282001495361,1582818489,0,0.2964150309562683,0.5084452033042908,0.5489932298660278,-226.37939453125,55.419921875,-37.29248046875
4.800309896469116,1582818508,0,0.4712197184562683,0.48403114080429077,0.6617861986160278,-244.56787109375,54.87060546875,-24.658203125
4.815277099609375,1582818493,1,0.3109033405780792,0.2042459398508072,0.8661001324653625,-84.28955078125,18.98193359375,-33.63037109375
4.815294027328491,1582818512,1,0.22936037182807922,0.2425760179758072,0.7022817730903625,-102.35595703125,18.73779296875,-2.50244140625
4.838293075561523,1582818527,0,0.4861122965812683,0.38710731267929077,0.6095401048660278,-254.8828125,43.39599609375,22.4609375
4.844990015029907,1582818531,1,0.3006494343280792,0.2335428148508072,0.7411001324653625,-119.0185546875,26.79443359375,14.2822265625
4.860321044921875,1582818546,0,0.3291298747062683,0.28237098455429077,0.8453799486160278,-265.380859375,54.87060546875,91.796875
4.860404968261719,1582818565,0,0.1819130778312683,0.44838660955429077,0.8885928392410278,-263.5498046875,103.02734375,151.0009765625
4.8853759765625,1582818567,1,0.17931154370307922,0.457663893699646,0.7684438824653625,-145.32470703125,38.87939453125,28.13720703125
4.89156699180603,1582818584,0,0.3347451090812683,0.5824198126792908,0.9042178392410278,-269.53125,119.68994140625,199.951171875
4.905210018157959,1582818586,1,0.19371584057807922,0.361716628074646,0.8316763043403625,-203.43017578125,21.240234375,57.4951171875
4.9052488803863525,1582818605,1,0.3428857624530792,0.1615213304758072,1.1085318326950073,-242.3095703125,-11.16943359375,118.59130859375
4.920178174972534,1582818603,0,0.5364052653312683,0.6908182501792908,0.9855166673660278,-281.79931640625,125.91552734375,225.03662109375
4.920253038406372,1582818622,0,0.7368447184562683,0.7420877814292908,1.2814151048660278,-279.052734375,125.1220703125,262.5732421875
4.941216945648193,1582818624,1,0.7066552639007568,-0.08579312264919281,1.3910025358200073,-252.62451171875,-32.28759765625,156.982421875
4.950206995010376,1582818658,0,1.506864309310913,0.9493631720542908,1.6498233079910278,-150.32958984375,89.84375,319.39697265625
4.96520209312439,1582818643,1,1.2996728420257568,-0.1661153882741928,1.7166861295700073,-238.28125,-54.99267578125,173.9501953125
4.965287208557129,1582818662,1,1.5726220607757568,-0.2244649976491928,2.0152699947357178,-188.720703125,-66.10107421875,170.22705078125
4.988583087921143,1582818677,0,1.673368215560913,0.9293436408042908,1.3675967454910278,-69.64111328125,95.458984375,276.85546875
4.995186805725098,1582818681,1,2.036733388900757,-0.260353684425354,2.0023305416107178,-107.666015625,-46.93603515625,129.0283203125
4.9952712059021,1582818700,1,1.7354638576507568,-0.10092984139919281,1.8216665983200073,-21.91162109375,-15.80810546875,89.111328125
5.010370969772339,1582818696,0,1.670682668685913,0.8761209845542908,1.0887881517410278,-15.380859375,132.99560546875,209.04541015625
5.0104100704193115,1582818715,0,1.598905324935913,0.9044412970542908,0.9462100267410278,-18.310546875,177.24609375,136.1083984375
5.035778999328613,1582818719,1,1.5845849514007568,-0.11631070077419281,1.5413931608200073,57.9833984375,-13.85498046875,75.1953125
5.042340040206909,1582818734,0,1.384061574935913,0.6805643439292908,1.0062686204910278,-44.3115234375,211.73095703125,90.9423828125
5.055228233337402,1582818738,1,1.3841454982757568,-0.08017788827419281,1.1610220670700073,84.8388671875,-30.33447265625,45.71533203125
5.05528712272644,1582818757,1,1.0828759670257568,-0.03257046639919281,0.8101919293403625,79.833984375,-62.255859375,19.04296875
5.070130825042725,1582818753,0,1.205838918685913,0.5013651251792908,1.0826846361160278,-32.1044921875,191.95556640625,70.73974609375
5.070160150527954,1582818772,0,0.9065224528312683,0.19130653142929077,1.0572940111160278,13.0615234375,136.29150390625,34.5458984375
5.091629981994629,1582818776,1,0.8135888576507568,-0.04233609139919281,0.8341177105903625,81.1767578125,-80.9326171875,-4.39453125
5.099873065948486,1582818791,0,0.6528603434562683,0.14321082830429077,1.0272647142410278,64.94140625,77.33154296875,-16.78466796875
5.115170001983643,1582818795,1,0.6299951076507568,-0.1380392163991928,0.7725942730903625,96.86279296875,-89.05029296875,-9.33837890625
5.139447927474976,1582818810,0,0.4629189372062683,0.08657021075487137,0.8680850267410278,86.7919921875,45.22705078125,-32.2265625
5.139453172683716,1582818829,0,0.4360634684562683,0.17031043767929077,0.8009463548660278,94.29931640625,29.78515625,-48.88916015625
5.145133972167969,1582818831,1,0.4339502155780792,-0.2168966382741928,0.8292348980903625,147.705078125,-87.0361328125,-62.8662109375
5.1602959632873535,1582818848,0,0.3152138590812683,0.20326942205429077,0.7457705736160278,83.984375,16.90673828125,-54.19921875
5.160391092300415,1582818867,0,0.1933876872062683,0.14760535955429077,0.7709170579910278,80.9326171875,-5.92041015625,-52.79541015625
5.187031984329224,1582818850,1,0.3572900593280792,-0.00791226327419281,0.6895864605903625,175.96435546875,-85.87646484375,-70.9228515625
5.187038898468018,1582818869,1,0.3604638874530792,0.07118929922580719,0.5941274762153625,180.60302734375,-67.0166015625,-63.4765625
5.192561149597168,1582818886,0,0.3901650309562683,0.20522254705429077,0.5521670579910278,97.22900390625,-33.935546875,-59.4482421875
5.205384969711304,1582818888,1,0.4857080280780792,0.2105935961008072,0.35535797476768494,187.07275390625,-72.93701171875,-93.994140625
5.205389976501465,1582818907,1,0.22496584057807922,0.292868971824646,0.46985992789268494,215.6982421875,-59.63134765625,-117.85888671875
5.220071792602539,1582818922,0,0.11453027278184891,0.40175575017929077,0.46500885486602783,66.7724609375,-92.95654296875,-73.66943359375
5.240108013153076,1582818926,1,0.16051271557807922,0.382956862449646,0.42200836539268494,192.138671875,-71.4111328125,-117.24853515625
5.250159025192261,1582818941,0,0.10671777278184891,0.39321082830429077,0.33707916736602783,32.1044921875,-57.55615234375,-100.64697265625
5.26521897315979,1582818945,1,0.13219240307807922,0.716697096824646,0.03602202609181404,124.3896484375,-57.43408203125,-80.01708984375
5.265287160873413,1582818964,1,0.21373537182807922,0.469138503074646,0.38099274039268494,34.912109375,-74.8291015625,-85.26611328125
5.288240194320679,1582818960,0,-0.1484091877937317,0.20888465642929077,0.5985537767410278,-23.86474609375,-20.5078125,-136.3525390625
5.288245916366577,1582818979,0,-0.1979697346687317,0.30190223455429077,0.36173737049102783,-31.6162109375,13.48876953125,-53.64990234375
5.295403003692627,1582818983,1,0.17613771557807922,0.340476393699646,0.43030914664268494,22.88818359375,-49.560546875,-127.44140625
5.310061931610107,1582818998,0,-0.06320410221815109,0.36537879705429077,0.45133697986602783,-64.208984375,3.7841796875,-26.91650390625
5.310088872909546,1582819017,0,-0.08542089909315109,0.33510535955429077,0.5131045579910278,-112.1826171875,-8.544921875,-17.822265625
5.336277961730957,1582819002,1,0.034780293703079224,0.370505690574646,0.35340484976768494,12.39013671875,-43.5791015625,-130.615234375
5.336283206939697,1582819021,1,0.047475606203079224,0.253562331199646,0.5057485699653625,-12.51220703125,-38.87939453125,-100.64697265625
5.34082293510437,1582819036,0,-0.1723349690437317,0.34682410955429077,0.6363955736160278,-114.19677734375,-1.28173828125,21.30126953125
5.355290174484253,1582819040,1,0.023305684328079224,0.2315896898508072,0.5196645855903625,-14.70947265625,-19.1650390625,-98.44970703125
5.355319023132324,1582819059,1,0.033315449953079224,0.261863112449646,0.39832672476768494,-14.95361328125,-4.82177734375,-76.72119140625
5.370794057846069,1582819055,0,-0.09347753971815109,0.34511512517929077,0.6036807298660278,-85.38818359375,-3.0517578125,68.05419921875
5.3707990646362305,1582819074,0,-0.04123144596815109,0.32167762517929077,0.6215029954910278,-72.021484375,-7.14111328125,94.3603515625
5.398047924041748,1582819093,0,-0.015352539718151093,0.35707801580429077,0.5668154954910278,-71.6552734375,-3.662109375,119.93408203125
5.415220022201538,1582819095,1,-0.06678220629692078,0.481833815574646,0.42322906851768494,-39.9169921875,21.6064453125,-36.4990234375
5.415255069732666,1582819114,1,-0.039926737546920776,0.454001784324646,0.5655630230903625,-83.31298828125,9.33837890625,-9.09423828125
5.437247037887573,1582819112,0,0.05447167903184891,0.42543739080429077,0.5936709642410278,-97.96142578125,24.169921875,131.65283203125
5.438429832458496,1582819131,0,0.08669824153184891,0.42324012517929077,0.6205264329910278,-133.544921875,59.14306640625,134.1552734375
5.443711996078491,1582819133,1,-0.06873533129692078,0.389060378074646,0.5892446637153625,-115.66162109375,10.1318359375,19.04296875
5.46047306060791,1582819150,0,0.1723915934562683,0.42250770330429077,0.6124697923660278,-154.47998046875,81.23779296875,132.50732421875
5.485957145690918,1582819152,1,0.16783693432807922,0.308249831199646,0.7994497418403625,-126.46484375,7.32421875,21.3623046875
5.485962867736816,1582819171,1,0.08775880932807922,0.340720534324646,0.7996938824653625,-126.953125,18.6767578125,25.634765625
5.4909539222717285,1582819186,0,0.2878701090812683,0.5709452033042908,0.6654483079910278,-172.91259765625,111.2060546875,116.14990234375
5.505012035369873,1582819190,1,0.22179201245307922,0.2037576586008072,0.9305532574653625,-133.23974609375,16.41845703125,28.1982421875
5.5050458908081055,1582819209,1,0.2586572468280792,0.2040017992258072,0.9232290387153625,-133.056640625,22.4609375,37.4755859375
5.520048141479492,1582819205,0,0.4375283122062683,0.5626444220542908,0.7584658861160278,-189.88037109375,111.87744140625,118.83544921875
5.520098924636841,1582819224,0,0.4509560465812683,0.6729959845542908,0.7601748704910278,-204.65087890625,104.1259765625,133.48388671875
5.541624069213867,1582819228,1,0.3638818562030792,0.2218240648508072,0.9444692730903625,-139.6484375,18.798828125,53.89404296875
5.550177097320557,1582819243,0,0.4602333903312683,0.6080545783042908,0.8036319017410278,-206.298828125,109.7412109375,141.17431640625
5.565192937850952,1582819247,1,0.4014795124530792,0.2142557054758072,1.0772818326950073,-161.2548828125,12.5732421875,62.5
5.565282106399536,1582819266,1,0.4529931843280792,0.332419753074646,1.1370962858200073,-175.1708984375,-0.8544921875,79.58984375
5.589039087295532,1582819262,0,0.5613076090812683,0.6165995001792908,0.8434268236160278,-211.0595703125,113.6474609375,162.59765625
5.58904504776001,1582819281,0,0.5627724528312683,0.6610330939292908,0.9134951829910278,-218.017578125,120.9716796875,181.09130859375
5.595351934432983,1582819285,1,0.5023095607757568,0.2296365648508072,1.2240103483200073,-184.326171875,-4.33349609375,96.49658203125
5.610151052474976,1582819300,0,0.6736122965812683,0.7076639533042908,0.9823428392410278,-220.947265625,121.09375,196.10595703125
5.610213994979858,1582819319,0,0.8262001872062683,0.7005838751792908,1.0853701829910278,-215.75927734375,118.7744140625,222.47314453125
5.635441064834595,1582819304,1,0.7022607326507568,0.11904086172580719,1.3092154264450073,-177.734375,3.5400390625,113.22021484375
5.635447025299072,1582819323,1,0.8980615139007568,0.03774203360080719,1.4107779264450073,-172.2412109375,6.89697265625,115.3564453125
5.642222166061401,1582819338,0,1.105008840560913,0.8534159064292908,1.1742373704910278,-198.30322265625,112.9150390625,264.58740234375
5.654077053070068,1582819359,1,1.3238427639007568,-0.09067593514919281,1.7259634733200073,-153.564453125,-9.3994140625,114.68505859375
5.670330047607422,1582819357,0,1.370877981185913,0.9840311408042908,1.1744815111160278,-156.67724609375,119.384765625,277.9541015625
5.670353174209595,1582819376,0,1.559354543685913,1.0384745597839355,0.9427920579910278,-122.1923828125,130.43212890625,250.48828125
5.691373109817505,1582819378,1,1.5389306545257568,-0.11216031014919281,1.8177603483200073,-93.32275390625,-17.15087890625,117.61474609375
5.701031923294067,1582819395,0,1.530301809310913,0.8746561408042908,1.0289736986160278,-100.28076171875,174.98779296875,203.4912109375
5.715059995651245,1582819397,1,1.5296533107757568,-0.1465841382741928,1.8306998014450073,-39.12353515625,-13.427734375,108.33740234375
5.715085983276367,1582819416,1,1.5711572170257568,-0.05698452889919281,1.4986685514450073,34.5458984375,-4.150390625,64.27001953125
5.738652229309082,1582819414,0,1.523465871810913,0.6898416876792908,0.9906436204910278,-65.61279296875,185.48583984375,156.79931640625
5.745535850524902,1582819435,1,1.3963525295257568,-0.12290249764919281,1.2225455045700073,74.03564453125,-28.076171875,34.24072265625
5.759378910064697,1582819450,0,1.354764699935913,0.34316200017929077,0.9906436204910278,-0.9765625,132.9345703125,81.84814453125
5.759461164474487,1582819469,0,1.324979543685913,0.38735145330429077,0.9767276048660278,26.42822265625,127.62451171875,34.0576171875
5.786926984786987,1582819454,1,1.0560204982757568,-0.2403341382741928,1.0631216764450073,68.115234375,-45.0439453125,3.60107421875
5.786932945251465,1582819473,1,0.9288232326507568,-0.11313687264919281,1.0843619108200073,75.37841796875,-71.35009765625,5.0048828125
5.792956113815308,1582819488,0,1.022977590560913,0.27162879705429077,0.9051944017410278,55.60302734375,123.47412109375,-18.06640625
5.8048319816589355,1582819492,1,0.8467919826507568,-0.1536642163991928,0.9522817730903625,115.66162109375,-88.19580078125,12.5732421875
5.8201048374176025,1582819507,0,0.6440712809562683,0.08168739825487137,0.8636904954910278,77.20947265625,99.42626953125,-30.21240234375
5.820141077041626,1582819526,0,0.4887978434562683,0.09218544512987137,0.7513858079910278,88.92822265625,71.4111328125,-40.771484375
5.842158079147339,1582819511,1,0.6060693264007568,-0.09189663827419281,0.7569692730903625,139.5263671875,-76.7822265625,-3.90625
5.842162847518921,1582819530,1,0.5316064357757568,-0.1827169507741928,0.8617056012153625,151.06201171875,-72.75390625,-12.14599609375
5.848671913146973,1582819545,0,0.4404579997062683,0.17372840642929077,0.7928897142410278,107.36083984375,33.0810546875,-89.2333984375
5.8650312423706055,1582819549,1,0.4620263874530792,-0.1580587476491928,0.8299673199653625,190.7958984375,-74.5849609375,-50.96435546875
5.8650429248809814,1582819568,1,0.24254396557807922,0.07704867422580719,0.6363638043403625,213.9892578125,-75.86669921875,-51.025390625
5.888601064682007,1582819564,0,0.3799111247062683,0.17812293767929077,0.8307315111160278,116.76025390625,4.82177734375,-120.9716796875
5.888605833053589,1582819583,0,-0.03488378971815109,0.13783973455429077,0.7552920579910278,133.056640625,-8.23974609375,-114.6240234375
5.895273923873901,1582819587,1,0.20226076245307922,0.10756625235080719,0.45228180289268494,181.70166015625,-74.64599609375,-46.93603515625
5.909970045089722,1582819602,0,-0.11642675846815109,0.05385536700487137,0.42252838611602783,114.3798828125,-75.37841796875,-57.373046875
5.9359869956970215,1582819623,1,0.027700215578079224,0.1925271898508072,0.6004751324653625,191.0400390625,-90.6982421875,-98.2666015625
5.942254066467285,1582819621,0,0.014432616531848907,0.5589823126792908,0.47257721424102783,63.17138671875,-60.6689453125,-134.09423828125
5.942258834838867,1582819640,0,-0.3381064534187317,-0.06455283612012863,0.42350494861602783,26.7333984375,-72.998046875,-42.8466796875
5.953366041183472,1582819642,1,0.22545412182807922,0.360495924949646,0.38807281851768494,208.31298828125,-74.8291015625,-110.41259765625
5.96996808052063,1582819659,0,0.0056435540318489075,0.29311317205429077,0.43717682361602783,-38.75732421875,-77.94189453125,-84.5947265625
5.992911100387573,1582819661,1,-0.004038065671920776,0.541159987449646,0.19227202236652374,174.6826171875,-61.82861328125,-113.6474609375
5.992917060852051,1582819680,1,-0.055551737546920776,0.543113112449646,0.13416655361652374,99.365234375,-56.33544921875,-75.74462890625
6.000146150588989,1582819678,0,-0.2358115315437317,0.14858192205429077,0.49723541736602783,-56.45751953125,-73.54736328125,-92.34619140625
6.01523494720459,1582819699,1,-0.20447751879692078,0.427146315574646,0.44813141226768494,21.17919921875,-69.15283203125,-86.60888671875
6.015328884124756,1582819718,1,-0.09998533129692078,0.405173659324646,0.48353180289268494,-0.732421875,-35.5224609375,-88.9892578125
6.038171052932739,1582819714,0,-0.2565634846687317,0.14174598455429077,0.5526553392410278,-85.75439453125,-26.4892578125,16.41845703125
6.0392539501190186,1582819733,0,0.0022255852818489075,0.6424784064292908,0.7111026048660278,-129.08935546875,-19.47021484375,23.98681640625
6.044981002807617,1582819737,1,0.014272481203079224,0.396628737449646,0.39100250601768494,6.4697265625,-23.0712890625,-93.26171875
6.059364080429077,1582819752,0,-0.09225683659315109,0.27333778142929077,0.7626162767410278,-196.533203125,50.96435546875,-7.4462890625
6.08528208732605,1582819756,1,-0.10437986254692078,0.312156081199646,0.42493805289268494,-8.544921875,-10.6201171875,-93.505859375
6.085287094116211,1582819775,1,-0.17151853442192078,0.331199049949646,0.36219391226768494,-23.74267578125,-8.6669921875,-94.23828125
6.091356039047241,1582819771,0,-0.10666113346815109,0.41640418767929077,0.7933779954910278,-207.275390625,73.3642578125,39.00146484375
6.091359853744507,1582819790,0,0.0041787102818489075,0.46230262517929077,0.6825381517410278,-184.63134765625,66.5283203125,83.19091796875
6.105071067810059,1582819794,1,-0.19764158129692078,0.364890456199646,0.37464508414268494,-28.50341796875,8.056640625,-71.2890625
6.12027907371521,1582819809,0,0.04519433528184891,0.45229285955429077,0.7443057298660278,-172.66845703125,54.8095703125,115.90576171875
6.120352029800415,1582819828,0,0.09597558528184891,0.44423621892929077,0.7963076829910278,-147.8271484375,31.1279296875,144.71435546875
6.141301870346069,1582819813,1,-0.07215330004692078,0.432761549949646,0.48255524039268494,-63.5986328125,19.71435546875,-22.216796875
6.1413092613220215,1582819832,1,-0.12439939379692078,0.471091628074646,0.5181997418403625,-98.81591796875,23.8037109375,0.06103515625
6.150222063064575,1582819847,0,0.1484658122062683,0.47475379705429077,0.8202334642410278,-122.61962890625,23.37646484375,157.1044921875
6.164035081863403,1582819851,1,0.042592793703079224,0.502097487449646,0.6695669293403625,-132.87353515625,14.6484375,17.88330078125
6.188836097717285,1582819866,0,0.2246376872062683,0.49208778142929077,0.8507510423660278,-113.34228515625,28.3203125,153.4423828125
6.188842058181763,1582819885,0,0.3945595622062683,0.5584940314292908,0.9506045579910278,-114.013671875,51.8798828125,151.67236328125
6.195446014404297,1582819887,1,0.14781740307807922,0.551902174949646,0.8297231793403625,-128.60107421875,48.15673828125,25.2685546875
6.209942102432251,1582819904,0,0.5329872965812683,0.6085428595542908,0.8568545579910278,-131.7138671875,90.14892578125,153.1982421875
6.236976146697998,1582819906,1,0.24107912182807922,0.255271315574646,0.8873403668403625,-127.5634765625,45.59326171875,15.93017578125
6.236979961395264,1582819925,1,0.3714502155780792,0.2457498461008072,0.9769399762153625,-127.3193359375,57.6171875,28.9306640625
6.242096185684204,1582819923,0,0.6025673747062683,0.6781229376792908,0.7970401048660278,-168.212890625,108.58154296875,157.77587890625
6.24210000038147,1582819942,0,0.6282021403312683,0.6654276251792908,0.7262393236160278,-195.12939453125,123.96240234375,159.48486328125
6.254934072494507,1582819944,1,0.3792627155780792,0.336570143699646,1.1588248014450073,-164.794921875,29.052734375,51.08642578125
6.27007794380188,1582819978,0,0.6345497965812683,0.6961893439292908,0.7819033861160278,-141.90673828125,71.22802734375,206.48193359375
6.2912938594818115,1582819963,1,0.5706689357757568,0.414939284324646,1.1488150358200073,-206.84814453125,-8.6669921875,82.51953125
6.291297912597656,1582819982,1,0.6072900295257568,0.405173659324646,1.2945669889450073,-193.84765625,-1.220703125,76.72119140625
6.302412986755371,1582819997,0,0.8523232340812683,0.6827616095542908,0.6866885423660278,-161.7431640625,126.40380859375,217.041015625
6.315216064453125,1582820001,1,0.8018701076507568,0.368552565574646,1.3236197233200073,-186.82861328125,-8.544921875,82.763671875
6.315232038497925,1582820020,1,0.8404443264007568,0.390525221824646,1.3634146451950073,-200.5615234375,-8.60595703125,76.47705078125
6.338797092437744,1582820016,0,0.9595009684562683,0.7794412970542908,0.8092471361160278,-226.01318359375,172.4853515625,227.60009765625
6.338802814483643,1582820035,0,1.023954153060913,0.8426737189292908,0.9462100267410278,-255.7373046875,205.74951171875,240.72265625
6.345096111297607,1582820039,1,1.0579736232757568,0.250876784324646,1.4791373014450073,-210.38818359375,-35.70556640625,123.53515625
6.359241962432861,1582820054,0,1.309842824935913,0.8687967658042908,1.2208682298660278,-276.67236328125,268.98193359375,237.36572265625
6.387385129928589,1582820058,1,1.2762353420257568,0.05702914297580719,1.4698599576950073,-209.228515625,-57.4951171875,125.1220703125
6.387389898300171,1582820077,1,1.5814111232757568,-0.2032247632741928,1.7054556608200073,-157.77587890625,-29.23583984375,97.900390625
6.392698049545288,1582820073,0,1.512235403060913,1.0252909660339355,1.1925479173660278,-273.3154296875,244.7509765625,214.599609375
6.392703056335449,1582820092,0,1.608915090560913,0.7821268439292908,1.2394229173660278,-161.68212890625,139.22119140625,158.447265625
6.404124021530151,1582820096,1,1.6356103420257568,-0.2288595288991928,1.6087759733200073,-94.42138671875,-55.84716796875,67.07763671875
6.420224905014038,1582820111,0,1.386991262435913,0.30532020330429077,1.1610537767410278,-73.30322265625,132.99560546875,144.34814453125
6.44146203994751,1582820115,1,1.1700341701507568,-0.298195481300354,1.5213736295700073,-61.34033203125,-47.607421875,62.68310546875
6.450278043746948,1582820130,0,1.313016653060913,0.5165018439292908,1.0516787767410278,-21.54541015625,163.02490234375,142.27294921875
6.45034384727478,1582820149,0,1.304471731185913,0.38100379705429077,0.9640322923660278,-41.9921875,176.7578125,88.0126953125
6.464000940322876,1582820151,1,1.3033349514007568,-0.2115255445241928,0.9769399762153625,34.912109375,-72.75390625,46.81396484375
6.464008092880249,1582820170,1,0.8865869045257568,-0.2059103101491928,0.9129751324653625,19.04296875,-94.23828125,16.2353515625
6.488600015640259,1582820168,0,0.9404579997062683,0.01991982012987137,0.9750186204910278,-69.64111328125,219.17724609375,68.4814453125
6.488605976104736,1582820187,0,0.7036415934562683,-0.12339072674512863,0.9918643236160278,-44.189453125,236.02294921875,32.470703125
6.49531102180481,1582820189,1,0.8265283107757568,-0.387550950050354,0.6690786480903625,8.7890625,-70.00732421875,1.708984375
6.5100250244140625,1582820206,0,0.5937783122062683,-0.09262900799512863,0.9967471361160278,12.939453125,185.11962890625,13.916015625
6.536125183105469,1582820208,1,0.7972314357757568,-0.463966965675354,0.7989614605903625,46.93603515625,-71.59423828125,-22.3388671875
6.536129951477051,1582820227,1,0.5098779201507568,-0.327980637550354,0.7547720074653625,114.56298828125,-53.7109375,-47.2412109375
6.541202068328857,1582820242,0,0.3911415934562683,-0.03379111737012863,0.9891787767410278,106.201171875,61.95068359375,-10.07080078125
6.554955959320068,1582820246,1,0.4027002155780792,-0.1346212476491928,0.7743032574653625,125.54931640625,-65.7958984375,-40.22216796875
6.569352149963379,1582820261,0,0.2834755778312683,0.04116005450487137,0.9239932298660278,134.6435546875,38.330078125,-35.46142578125
6.59220814704895,1582820265,1,0.2559716999530792,0.05995883047580719,0.6588247418403625,125.8544921875,-68.84765625,-39.00146484375
6.592212915420532,1582820284,1,0.3179834187030792,0.1576150804758072,0.7083852887153625,117.85888671875,-69.51904296875,-38.14697265625
6.600276947021484,1582820280,0,0.10940331965684891,0.11489052325487137,0.8820010423660278,145.01953125,13.916015625,-60.60791015625
6.6003100872039795,1582820299,0,-0.2409384846687317,0.13613075017929077,0.7054873704910278,144.287109375,-18.5546875,-72.998046875
6.615324020385742,1582820303,1,0.4913232624530792,0.02455843985080719,0.7157095074653625,140.44189453125,-83.6181640625,-74.64599609375
6.638949155807495,1582820318,0,-0.3678916096687317,0.04897255450487137,0.5135928392410278,101.07421875,-75.98876953125,-10.498046875
6.6389548778533936,1582820337,0,0.06033105403184891,0.5392069220542908,0.5553408861160278,39.36767578125,-32.5927734375,-106.3232421875
6.645126104354858,1582820322,1,0.3736474812030792,0.04872836172580719,0.8636587262153625,241.02783203125,-49.62158203125,-141.6015625
6.6452531814575195,1582820341,1,0.22301271557807922,0.259421706199646,0.5245473980903625,236.14501953125,-72.57080078125,-155.94482421875
6.660206079483032,1582820356,0,-0.05465918034315109,0.40273231267929077,0.42350494861602783,-26.85546875,-8.4228515625,-126.46484375
6.685007095336914,1582820360,1,0.09850099682807922,0.393699049949646,0.23914702236652374,209.9609375,-52.734375,-143.73779296875
6.685013055801392,1582820379,1,-0.09534665942192078,0.586814284324646,-0.32359710335731506,95.3369140625,-58.837890625,-99.853515625
6.691226005554199,1582820375,0,0.3020302653312683,0.43520301580429077,0.42399322986602783,-66.7724609375,-3.41796875,-114.013671875
6.691231966018677,1582820394,0,-0.2904990315437317,0.5228495001792908,0.49235260486602783,-63.29345703125,-3.2958984375,-132.75146484375
6.718057870864868,1582820413,0,-0.4887412190437317,0.04775185137987137,0.7528506517410278,30.21240234375,-84.65576171875,25.390625
6.741652965545654,1582820415,1,0.058706074953079224,0.454978346824646,0.5631216168403625,48.88916015625,-60.1806640625,-68.05419921875
6.741657972335815,1582820434,1,-0.038950175046920776,0.409079909324646,0.5474966168403625,88.0126953125,-5.859375,-116.5771484375
6.750138998031616,1582820432,0,-0.09836035221815109,0.5858377814292908,0.7545596361160278,78.2470703125,-122.98583984375,2.13623046875
6.750231027603149,1582820451,0,-0.1335166096687317,0.5411600470542908,0.7841006517410278,62.92724609375,-157.5927734375,-19.1650390625
6.765416860580444,1582820453,1,-0.009653300046920776,0.345603346824646,0.6346548199653625,115.17333984375,-16.66259765625,-114.44091796875
6.789359092712402,1582820470,0,-0.03683691471815109,0.46108192205429077,0.7496768236160278,18.1884765625,-150.93994140625,-4.82177734375
6.795338869094849,1582820472,1,-0.16028806567192078,0.577292799949646,0.47694000601768494,67.68798828125,-30.70068359375,-140.625
6.795368909835815,1582820491,1,-0.06849119067192078,0.499411940574646,0.33533844351768494,-12.451171875,-35.46142578125,-96.00830078125
6.810365200042725,1582820506,0,-0.05661230534315109,0.46474403142929077,0.6410342454910278,-60.6689453125,-50.78125,36.92626953125
6.835125923156738,1582820510,1,-0.054819315671920776,0.563865065574646,0.48279938101768494,-62.01171875,-17.578125,-72.998046875
6.835133075714111,1582820529,1,0.09825685620307922,0.494529128074646,0.43397125601768494,-43.76220703125,25.634765625,-75.37841796875
6.841584205627441,1582820525,0,-0.06320410221815109,0.47450965642929077,0.5648623704910278,-96.435546875,20.20263671875,74.951171875
6.841588020324707,1582820544,0,-0.04562597721815109,0.35658973455429077,0.7294131517410278,-122.55859375,45.71533203125,105.16357421875
6.854944944381714,1582820548,1,0.043813496828079224,0.521140456199646,0.5199087262153625,-24.169921875,22.03369140625,-93.3837890625
6.869896173477173,1582820563,0,-0.07516699284315109,0.44765418767929077,0.6888858079910278,-133.36181640625,65.185546875,130.79833984375
6.89116096496582,1582820567,1,-0.07605955004692078,0.492331862449646,0.43860992789268494,-21.3623046875,28.01513671875,-106.689453125
6.891166925430298,1582820586,1,-0.18714353442192078,0.641013503074646,0.5955923199653625,-35.0341796875,22.216796875,-90.087890625
6.900068044662476,1582820582,0,-0.05490332096815109,0.27626746892929077,0.6283389329910278,-134.46044921875,62.43896484375,158.63037109375
6.900102138519287,1582820601,0,0.007840819656848907,0.34145301580429077,0.6920596361160278,-122.4365234375,55.23681640625,201.84326171875
6.9152140617370605,1582820605,1,-0.07508298754692078,0.439841628074646,0.5301626324653625,-29.1748046875,67.5048828125,-113.4033203125
6.938623905181885,1582820620,0,0.2993447184562683,0.5960916876792908,0.6820498704910278,-144.95849609375,71.59423828125,180.6640625
6.938630104064941,1582820639,0,0.3718544840812683,0.5685037970542908,0.6542178392410278,-180.48095703125,110.83984375,155.45654296875
6.945451021194458,1582820624,1,0.057729512453079224,0.350486159324646,0.6197622418403625,-34.66796875,88.8671875,-176.7578125
6.945456027984619,1582820643,1,-0.18299314379692078,0.402732253074646,0.6231802105903625,-53.3447265625,73.79150390625,-208.6181640625
6.960066080093384,1582820658,0,0.4333779215812683,0.5123514533042908,0.6251651048660278,-216.796875,122.74169921875,163.818359375
6.985872030258179,1582820679,1,-0.4229833781719208,0.417380690574646,0.6156118512153625,-26.67236328125,115.41748046875,-266.41845703125
6.992029905319214,1582820677,0,0.6098915934562683,0.49037879705429077,0.7716494798660278,-233.58154296875,135.25390625,187.1337890625
6.992035150527954,1582820696,0,0.5910927653312683,0.5714334845542908,0.6424990892410278,-246.39892578125,164.55078125,200.0732421875
7.00678014755249,1582820698,1,-0.4874365031719208,0.546775221824646,0.5538442730903625,2.99072265625,178.955078125,-314.39208984375
7.020157098770142,1582820715,0,0.6609169840812683,0.5138162970542908,0.6883975267410278,-261.8408203125,191.10107421875,211.181640625
7.042232036590576,1582820717,1,-0.6536962985992432,0.567038893699646,0.5518911480903625,-7.4462890625,180.7861328125,-373.1689453125
7.042237997055054,1582820736,1,-0.9271337985992432,0.547751784324646,0.6976431012153625,-57.0068359375,118.2861328125,-429.50439453125
7.0501580238342285,1582820734,0,0.5862099528312683,0.24135535955429077,0.5975772142410278,-302.490234375,218.017578125,236.572265625
7.065171003341675,1582820755,1,-1.2537939548492432,1.033347487449646,0.8631704449653625,-100.76904296875,83.43505859375,-440.61279296875
7.0873682498931885,1582820770,0,0.6418740153312683,-0.009621195495128632,0.8031436204910278,-387.6953125,267.51708984375,309.26513671875
7.0873730182647705,1582820789,0,0.6848427653312683,-0.5074239373207092,1.1014834642410278,-392.88330078125,297.607421875,366.51611328125
7.095129013061523,1582820774,1,-1.3736670017242432,0.996482253074646,0.8726919293403625,-130.4931640625,116.8212890625,-369.93408203125
7.095155954360962,1582820793,1,-1.3538916110992432,0.667136549949646,0.9466665387153625,-118.408203125,182.0068359375,-381.2255859375
7.1099560260772705,1582820808,0,0.9270302653312683,-0.5071797966957092,1.4230166673660278,-334.16748046875,249.51171875,388.24462890625
7.135568141937256,1582820812,1,-1.0728857517242432,0.476706862449646,0.9515493512153625,-119.2626953125,199.89013671875,-482.97119140625
7.140528202056885,1582820827,0,1.337430715560913,-0.33383995294570923,1.7487002611160278,-186.6455078125,160.15625,357.11669921875
7.140532970428467,1582820846,0,1.320585012435913,-0.31455284357070923,1.5563174486160278,-76.416015625,43.212890625,283.5693359375
7.168025970458984,1582820865,0,1.173124074935913,-0.16806846857070923,1.3951846361160278,8.7890625,13.5498046875,247.98583984375
7.191368103027344,1582820831,1,-1.6121923923492432,0.2242654711008072,1.1859244108200073,-130.126953125,125.48828125,-637.75634765625
7.191373109817505,1582820850,1,-2.447397470474243,0.505271315574646,1.2494009733200073,-161.80419921875,76.72119140625,-649.5361328125
7.19137716293335,1582820869,1,-2.756235361099243,0.974265456199646,1.0394400358200073,-171.9970703125,127.13623046875,-511.41357421875
7.191380023956299,1582820888,1,-2.469614267349243,0.613425612449646,1.1068228483200073,-128.2958984375,230.1025390625,-457.94677734375
7.200239181518555,1582820884,0,0.9944130778312683,-0.13584190607070923,1.0856143236160278,7.6904296875,37.17041015625,263.12255859375
7.20030403137207,1582820903,0,0.9812294840812683,0.04238075762987137,1.0968447923660278,-7.4462890625,100.9521484375,280.1513671875
7.215394020080566,1582820907,1,-2.620981454849243,0.525046706199646,0.9842641949653625,-105.40771484375,261.23046875,-494.32373046875
7.237757205963135,1582820922,0,1.097196340560913,-0.16147667169570923,1.4847842454910278,5.859375,156.06689453125,226.1962890625
7.245168209075928,1582820943,1,-3.069711923599243,0.418113112449646,1.2533072233200073,-174.6826171875,151.18408203125,-465.2099609375
7.260113000869751,1582820941,0,0.6367470622062683,-0.11948447674512863,0.8773623704910278,30.8837890625,162.2314453125,138.12255859375
7.260169982910156,1582820960,0,0.5207802653312683,-0.010353617370128632,1.1674014329910278,69.82421875,143.1884765625,99.18212890625
7.286232948303223,1582820962,1,-2.764047861099243,0.610251784324646,1.1517447233200073,-164.306640625,145.20263671875,-283.447265625
7.292157888412476,1582820979,0,0.1465126872062683,0.19960731267929077,0.9552432298660278,116.27197265625,111.14501953125,94.66552734375
7.292163133621216,1582820998,0,0.4902626872062683,0.07753700762987137,0.7501651048660278,68.84765625,83.984375,113.22021484375
7.305140972137451,1582820981,1,-1.9608252048492432,0.04238070547580719,1.2467154264450073,-123.046875,241.3330078125,-216.12548828125
7.305173873901367,1582821000,1,-1.3863623142242432,0.03969515860080719,1.3346060514450073,-97.10693359375,348.57177734375,-257.75146484375
7.339416980743408,1582821019,1,-1.3914892673492432,-0.06015835702419281,1.4254263639450073,-123.35205078125,409.48486328125,-295.2880859375
7.3412580490112305,1582821038,1,-1.6417334079742432,0.01747836172580719,1.7738150358200073,-152.4658203125,365.8447265625,-235.7177734375
7.350316047668457,1582821034,0,0.2046181559562683,0.12294716387987137,1.1722842454910278,146.66748046875,46.69189453125,69.27490234375
7.350399017333984,1582821053,0,0.3484169840812683,0.37026160955429077,1.1798526048660278,180.35888671875,49.560546875,-1.5869140625
7.36531925201416,1582821057,1,-1.0240576267242432,-0.303322434425354,2.4010121822357178,-66.89453125,221.61865234375,-213.134765625
7.389116048812866,1582821072,0,0.3125283122062683,0.28627723455429077,1.1481143236160278,136.90185546875,99.42626953125,-39.12353515625
7.3951640129089355,1582821076,1,-1.1405127048492432,0.05361117422580719,1.5472525358200073,-108.70361328125,138.97705078125,-54.8095703125
7.395256042480469,1582821095,1,-0.6407568454742432,-0.865578293800354,0.8192251324653625,-129.82177734375,263.18359375,-42.41943359375
7.410068035125732,1582821091,0,0.013944335281848907,0.09145302325487137,0.9625674486160278,53.77197265625,122.802734375,19.6533203125
7.4100940227508545,1582821110,0,0.2600380778312683,0.26454871892929077,0.8614932298660278,9.82666015625,80.26123046875,14.16015625
7.435415029525757,1582821114,1,-0.6046240329742432,-0.982765793800354,0.7835806012153625,-181.33544921875,404.6630859375,-69.51904296875
7.441479206085205,1582821129,0,0.2314736247062683,0.28017371892929077,1.0851260423660278,8.1787109375,66.5283203125,5.18798828125
7.4414849281311035,1582821148,0,0.3730751872062683,0.28993934392929077,1.2025576829910278,32.65380859375,68.359375,8.11767578125
7.455150127410889,1582821133,1,-0.4117529094219208,-1.079445481300354,1.1656607389450073,-238.037109375,496.9482421875,-104.67529296875
7.455181121826172,1582821152,1,-0.2725927531719208,-1.055031418800354,1.3048208951950073,-289.6728515625,463.5009765625,-66.22314453125
7.469980239868164,1582821167,0,0.4565712809562683,0.36733192205429077,1.1534854173660278,50.048828125,80.56640625,-1.52587890625
7.490761995315552,1582821171,1,-0.3709814250469208,-1.107033371925354,1.3629263639450073,-304.5654296875,435.302734375,13.73291015625
7.50044322013855,1582821186,0,0.5278603434562683,0.6402811408042908,1.2423526048660278,42.41943359375,92.7734375,-14.5263671875
7.5004541873931885,1582821205,0,0.6643349528312683,0.8346170783042908,1.4244815111160278,60.1806640625,111.14501953125,-63.96484375
7.5151050090789795,1582821207,1,-0.3851415812969208,-1.203957200050354,1.8341177701950073,-250.8544921875,410.7666015625,156.3720703125
7.539034128189087,1582821224,0,0.8850380778312683,1.0316386222839355,1.4589053392410278,82.3974609375,146.05712890625,-154.96826171875
7.545053958892822,1582821226,1,-0.3914892375469208,-1.338234543800354,1.8753775358200073,-218.26171875,384.1552734375,195.3125
7.545121908187866,1582821245,1,-0.4901220500469208,-1.278175950050354,1.6678580045700073,-170.22705078125,370.9716796875,260.43701171875
7.560125112533569,1582821243,0,0.9387490153312683,1.0975565910339355,1.1578799486160278,58.2275390625,185.97412109375,-255.31005859375
7.560219049453735,1582821262,0,0.8479287028312683,1.0008769035339355,0.8890811204910278,10.43701171875,204.345703125,-279.78515625
7.58688497543335,1582821264,1,-0.6444189548492432,-1.531838059425354,1.7811392545700073,-135.43701171875,372.49755859375,367.98095703125
7.592659950256348,1582821298,0,0.6335732340812683,0.7911600470542908,0.7931338548660278,2.9296875,119.56787109375,-307.80029296875
7.606948137283325,1582821283,1,-0.2931005656719208,-1.952492356300354,2.1327016353607178,-102.783203125,330.56640625,442.07763671875
7.606952905654907,1582821302,1,0.050161153078079224,-2.0877461433410645,2.1466176509857178,-52.91748046875,284.36279296875,396.1181640625
7.620112180709839,1582821317,0,0.6325966715812683,0.6820291876792908,0.8580752611160278,7.01904296875,64.51416015625,-331.23779296875
7.641606092453003,1582821321,1,0.23253419995307922,-2.0047383308410645,1.8004263639450073,16.4794921875,267.7001953125,307.0068359375
7.641610860824585,1582821340,1,0.058950215578079224,-1.796730637550354,1.5279654264450073,72.32666015625,266.29638671875,280.57861328125
7.650458097457886,1582821336,0,0.5183388590812683,0.6627420783042908,0.8715029954910278,-30.82275390625,34.97314453125,-369.44580078125
7.650506973266602,1582821355,0,0.5127236247062683,0.5577616095542908,0.8890811204910278,-83.19091796875,21.17919921875,-410.0341796875
7.665149211883545,1582821359,1,0.13902834057807922,-2.0606465339660645,1.6502798795700073,132.9345703125,241.51611328125,320.6787109375
7.68916392326355,1582821374,0,0.5566689372062683,0.39784950017929077,0.9154483079910278,-105.224609375,-7.4462890625,-462.95166015625
7.69355320930481,1582821378,1,0.3865869343280792,-2.2325215339660645,1.6859244108200073,183.9599609375,190.49072265625,315.673828125
7.693586826324463,1582821397,1,0.4366357624530792,-2.5645527839660645,1.5426138639450073,256.04248046875,129.2724609375,276.9775390625
7.710068941116333,1582821393,0,0.6035439372062683,0.05287880450487137,1.2154971361160278,-101.13525390625,-56.70166015625,-532.89794921875
7.710099935531616,1582821412,0,0.5107704997062683,-0.12412314862012863,1.5294619798660278,-79.04052734375,-72.93701171875,-570.4345703125
7.735446929931641,1582821416,1,0.3021142780780792,-2.4529805183410645,1.2789419889450073,326.96533203125,89.90478515625,261.3525390625
7.7414960861206055,1582821431,0,0.4787880778312683,-0.37583214044570923,1.6659365892410278,-60.48583984375,-51.1474609375,-588.92822265625
7.755125999450684,1582821435,1,-0.07996580004692078,-2.5003437995910645,1.0604361295700073,343.1396484375,80.6884765625,298.33984375
7.77016019821167,1582821450,0,0.3364540934562683,-0.5904317498207092,1.6647158861160278,-64.453125,-32.53173828125,-591.24755859375
7.770226240158081,1582821469,0,0.1845986247062683,-0.9456563591957092,1.7079287767410278,-61.03515625,-37.78076171875,-533.38623046875
7.793168067932129,1582821471,1,-0.5347998142242432,-2.7535176277160645,0.8797720074653625,277.9541015625,24.23095703125,436.34033203125
7.79317307472229,1582821490,1,-0.6475927829742432,-2.9334492683410645,0.6959341168403625,244.2626953125,-19.34814453125,492.919921875
7.798839092254639,1582821488,0,-0.009493164718151093,-1.1253437995910645,1.7557803392410278,-28.6865234375,-41.93115234375,-443.115234375
7.798878908157349,1582821507,0,0.07375878840684891,-1.1326680183410645,1.5629092454910278,4.08935546875,-9.1552734375,-389.404296875
7.814965009689331,1582821509,1,-0.6927587985992432,-2.8316426277160645,0.5230825543403625,237.79296875,-21.240234375,494.9951171875
7.839158058166504,1582821526,0,0.1411415934562683,-1.2642598152160645,1.2897158861160278,-9.70458984375,32.1044921875,-400.45166015625
7.845273971557617,1582821528,1,-1.1663916110992432,-2.5442891120910645,-0.07823579013347626,219.29931640625,26.30615234375,477.05078125
7.845346927642822,1582821547,1,-1.4935400485992432,-2.3550801277160645,-0.5179330706596375,82.1533203125,82.8857421875,485.107421875
7.873020172119141,1582821566,1,-1.2569677829742432,-2.5611348152160645,-0.5748178362846375,9.033203125,166.748046875,428.22265625
7.891604900360107,1582821562,0,0.10769433528184891,-1.5032734870910645,0.9342471361160278,44.677734375,29.78515625,-350.9521484375
7.891610145568848,1582821581,0,0.2304970622062683,-1.3604512214660645,0.8382998704910278,36.68212890625,52.42919921875,-313.29345703125
7.891613245010376,1582821600,0,0.2273232340812683,-1.2981953620910645,0.7047549486160278,36.31591796875,92.34619140625,-276.06201171875
7.903503179550171,1582821585,1,-1.0316259860992432,-2.1209492683410645,-0.5821420550346375,-5.79833984375,226.25732421875,351.86767578125
7.9035420417785645,1582821604,1,-1.1231787204742432,-1.561379075050354,-0.6612436175346375,-9.58251953125,315.97900390625,276.611328125
7.920077085494995,1582821619,0,0.3291298747062683,-1.0945820808410645,0.6815615892410278,68.66455078125,86.48681640625,-233.21533203125
7.9415810108184814,1582821623,1,-1.2301123142242432,-1.118507981300354,-0.6656381487846375,-57.12890625,343.505859375,299.37744140625
7.950263023376465,1582821638,0,0.3991982340812683,-0.9617696404457092,0.6630069017410278,125.244140625,78.79638671875,-214.29443359375
7.950345039367676,1582821657,0,0.4844033122062683,-0.8350606560707092,0.5497256517410278,201.47705078125,49.4384765625,-211.73095703125
7.965149164199829,1582821642,1,-1.0553076267242432,-1.206154465675354,-0.46519866585731506,-128.35693359375,343.505859375,351.25732421875
7.9652180671691895,1582821661,1,-0.7804052829742432,-1.177101731300354,-0.23961274325847626,-182.0068359375,345.947265625,331.48193359375
7.988413095474243,1582821676,0,0.4643837809562683,-0.8262715935707092,0.5480166673660278,222.5341796875,6.7138671875,-211.5478515625
7.9952850341796875,1582821680,1,-0.5692236423492432,-0.927345871925354,0.06190093234181404,-208.43505859375,352.1728515625,277.28271484375
7.9952991008758545,1582821699,1,-0.5911962985992432,-0.579933762550354,0.20667631924152374,-211.5478515625,361.26708984375,237.9150390625
8.010503053665161,1582821695,0,0.3852822184562683,-0.8523946404457092,0.7052432298660278,194.39697265625,-21.1181640625,-188.8427734375
8.010509014129639,1582821714,0,0.2270790934562683,-0.8458028435707092,1.0089541673660278,167.236328125,-30.94482421875,-108.3984375
8.041585206985474,1582821733,0,0.1584755778312683,-0.7674337029457092,1.2035342454910278,186.82861328125,-20.8740234375,-22.52197265625
8.055176258087158,1582821735,1,-0.2535497844219208,-0.494484543800354,0.5763052105903625,-231.99462890625,289.1845703125,236.6943359375
8.055186986923218,1582821754,1,-0.017709940671920776,-0.284767746925354,0.7743032574653625,-247.802734375,228.82080078125,215.63720703125
8.069998979568481,1582821752,0,0.11526269465684891,-0.6136251091957092,1.1505557298660278,260.80322265625,-22.88818359375,36.80419921875
8.070024967193604,1582821771,0,0.2116982340812683,-0.47959190607070923,1.0419131517410278,321.1669921875,-32.16552734375,78.06396484375
8.091937065124512,1582821773,1,0.056508809328079224,-0.11069546639919281,0.8172720074653625,-262.451171875,168.15185546875,173.828125
8.099912166595459,1582821790,0,0.3178994059562683,-0.23764854669570923,1.0165225267410278,332.82470703125,-65.61279296875,116.63818359375
8.11511492729187,1582821792,1,0.10313966870307922,-9.976327419281006e-05,0.7293813824653625,-265.7470703125,128.84521484375,126.40380859375
8.115166902542114,1582821811,1,0.037221699953079224,0.1312478929758072,0.7616079449653625,-237.548828125,121.39892578125,80.322265625
8.138522148132324,1582821826,0,0.4360634684562683,0.17201942205429077,1.1715518236160278,279.541015625,-74.21875,202.392578125
8.145246028900146,1582821830,1,0.051625996828079224,0.1815408617258072,0.8299673199653625,-192.07763671875,111.26708984375,36.0107421875
8.145281076431274,1582821849,1,0.026967793703079224,0.278464674949646,0.8407095074653625,-161.56005859375,97.900390625,-14.0380859375
8.160178899765015,1582821845,0,0.4006630778312683,0.34487098455429077,1.1351748704910278,291.748046875,-35.7666015625,254.57763671875
8.160238027572632,1582821864,0,0.4939247965812683,0.5106424689292908,1.0509463548660278,344.17724609375,-0.732421875,291.3818359375
8.186978101730347,1582821868,1,-0.20716306567192078,0.445456862449646,0.6497915387153625,-147.8271484375,58.2275390625,-69.15283203125
8.192842960357666,1582821883,0,0.6303994059562683,0.6527323126792908,0.7845889329910278,378.7841796875,18.98193359375,314.8193359375
8.203451156616211,1582821887,1,-0.3209325969219208,0.568747878074646,0.5702016949653625,-168.02978515625,15.625,-98.44970703125
8.203517198562622,1582821906,1,-0.3807470500469208,0.600242018699646,0.6082876324653625,-194.76318359375,-20.1416015625,-102.60009765625
8.219482183456421,1582821902,0,0.7690712809562683,0.9210428595542908,0.5641299486160278,386.90185546875,34.1796875,352.96630859375
8.219549894332886,1582821921,0,0.8991982340812683,1.1954569816589355,0.36222565174102783,323.2421875,63.5986328125,380.7373046875
8.242134094238281,1582821925,1,-0.3941747844219208,0.547263503074646,0.7508657574653625,-196.044921875,-33.3251953125,-112.4267578125
8.25028920173645,1582821940,0,0.8481728434562683,1.2945780754089355,0.27409088611602783,209.8388671875,122.314453125,395.81298828125
8.250329971313477,1582821959,0,0.8655068278312683,1.2657694816589355,0.23380766808986664,132.8125,183.349609375,412.41455078125
8.265286207199097,1582821944,1,-0.4862158000469208,0.599997878074646,0.8221548199653625,-164.9169921875,-42.66357421875,-165.8935546875
8.26529312133789,1582821963,1,-0.6561377048492432,0.587302565574646,0.7508657574653625,-137.451171875,-73.73046875,-234.86328125
8.288280963897705,1582821978,0,1.112821340560913,1.2596659660339355,0.24772368371486664,78.06396484375,255.7373046875,429.931640625
8.295315027236938,1582821999,1,-0.9234716892242432,0.481101393699646,0.7454946637153625,-167.05322265625,-122.314453125,-265.9912109375
8.308727979660034,1582821997,0,1.324491262435913,1.2376933097839355,0.15128813683986664,65.0634765625,292.05322265625,448.6083984375
8.308816194534302,1582822016,0,1.482694387435913,1.1783671379089355,0.03312407433986664,80.87158203125,269.53125,461.7919921875
8.334815979003906,1582822018,1,-0.8455908298492432,0.270163893699646,0.8475454449653625,-189.88037109375,-162.04833984375,-308.2275390625
8.340900182723999,1582822035,0,1.600858449935913,1.1546854972839355,-0.17073334753513336,64.94140625,245.66650390625,488.6474609375
8.355180025100708,1582822037,1,-0.9322607517242432,0.11000765860080719,0.9342153668403625,-147.3388671875,-160.09521484375,-390.380859375
8.355231046676636,1582822056,1,-1.3912451267242432,0.08852328360080719,1.1090201139450073,-71.71630859375,-150.2685546875,-452.5146484375
8.3700590133667,1582822054,0,1.699002981185913,1.1878886222839355,-0.34700286388397217,-1.220703125,203.7353515625,527.34375
8.397716045379639,1582822090,0,1.975370168685913,0.8971170783042908,-0.10872162878513336,-89.66064453125,106.689453125,537.41455078125
8.39886212348938,1582822109,0,2.000272512435913,0.7882303595542908,-0.028887644410133362,-103.759765625,79.16259765625,554.5654296875
8.413856029510498,1582822075,1,-1.9818212985992432,0.712058424949646,1.2249869108200073,24.23095703125,-214.84375,-416.32080078125
8.413885831832886,1582822094,1,-1.7891943454742432,0.924460768699646,0.8729360699653625,51.45263671875,-298.76708984375,-240.1123046875
8.413948059082031,1582822113,1,-1.5269873142242432,0.297019362449646,0.6402700543403625,34.1796875,-299.6826171875,-124.0234375
8.438080072402954,1582822128,0,1.907010793685913,0.6932596564292908,-0.007891550660133362,-108.88671875,56.21337890625,574.15771484375
8.444945096969604,1582822132,1,-1.6348974704742432,0.297751784324646,0.5643423199653625,37.353515625,-294.98291015625,-158.0810546875
8.45854902267456,1582822147,0,1.842557668685913,0.6644510626792908,-0.06331147253513336,-127.99072265625,21.1181640625,581.787109375
8.458588123321533,1582822166,0,1.799100637435913,0.6305155158042908,-0.08772553503513336,-163.9404296875,-19.04296875,564.02587890625
8.473443031311035,1582822151,1,-1.9737646579742432,1.055076003074646,0.46204742789268494,36.56005859375,-307.373046875,-135.25390625
8.473469257354736,1582822170,1,-1.7020361423492432,1.078757643699646,0.30457672476768494,10.68115234375,-307.4951171875,20.81298828125
8.492846012115479,1582822185,0,1.739774465560913,0.5479959845542908,-0.021075144410133362,-185.6689453125,-71.77734375,509.70458984375
8.51769208908081,1582822204,0,1.571561574935913,0.44570106267929077,0.24186430871486664,-186.58447265625,-110.53466796875,457.94677734375
8.518607139587402,1582822223,0,1.227567434310913,0.12563270330429077,0.8802920579910278,-176.94091796875,-125.91552734375,432.31201171875
8.537188053131104,1582822189,1,-1.1883642673492432,0.575095534324646,0.32825836539268494,-9.765625,-253.35693359375,84.89990234375
8.537194967269897,1582822208,1,-0.9137060642242432,0.2384256273508072,0.47547516226768494,7.62939453125,-203.0029296875,49.1943359375
8.537199020385742,1582822227,1,-1.0184423923492432,0.830710768699646,0.8629263043403625,91.4306640625,-158.38623046875,6.77490234375
8.548587083816528,1582822242,0,0.8777138590812683,0.14784950017929077,1.3807803392410278,-173.828125,-139.83154296875,462.82958984375
8.563666820526123,1582822263,1,-0.7428076267242432,0.357810378074646,0.5343130230903625,19.59228515625,-187.07275390625,49.01123046875
8.587610006332397,1582822261,0,1.111600637435913,0.30019325017929077,1.6180850267410278,-167.05322265625,-132.8125,492.12646484375
8.587615013122559,1582822280,0,1.095487356185913,0.44106239080429077,1.6070986986160278,-138.61083984375,-134.94873046875,472.5341796875
8.593820095062256,1582822282,1,-0.6825048923492432,0.319968581199646,0.5440786480903625,16.4794921875,-139.09912109375,82.8857421875
8.609579086303711,1582822299,0,0.9656044840812683,0.6483377814292908,1.7123233079910278,-95.947265625,-132.62939453125,394.775390625
8.609584093093872,1582822318,0,0.3701454997062683,0.32192176580429077,1.7884951829910278,-72.93701171875,-104.6142578125,296.9970703125
8.635972023010254,1582822301,1,-0.5045263767242432,0.298240065574646,0.7633169293403625,37.9638671875,-113.037109375,101.86767578125
8.635977029800415,1582822320,1,-0.4212743937969208,0.1922830492258072,0.7857778668403625,37.7197265625,-114.990234375,69.39697265625
8.65264105796814,1582822339,1,-0.4710790812969208,0.383933424949646,0.6707876324653625,60.9130859375,-122.4365234375,74.40185546875
8.653600931167603,1582822358,1,-0.5084326267242432,0.355613112449646,0.35218414664268494,23.62060546875,-100.40283203125,110.29052734375
8.687041997909546,1582822377,1,-0.3748876750469208,0.291892409324646,0.6090200543403625,-1.40380859375,-45.10498046875,134.58251953125
8.698889970779419,1582822354,0,-0.05661230534315109,-0.08921103924512863,1.2001162767410278,-63.29345703125,-131.16455078125,295.2880859375
8.698960065841675,1582822373,0,0.08303613215684891,-0.12949424982070923,1.1434756517410278,-65.3076171875,-185.85205078125,297.4853515625
8.700181007385254,1582822392,0,0.1628701090812683,-0.23227745294570923,1.2804385423660278,-68.84765625,-260.68115234375,281.67724609375
8.700212001800537,1582822411,0,0.09426660090684891,-0.40439659357070923,1.6056338548660278,-93.75,-274.5361328125,251.03759765625
8.713485956192017,1582822396,1,-0.3682958781719208,0.2462381273508072,0.7198598980903625,22.8271484375,-12.39013671875,130.18798828125
8.713567972183228,1582822415,1,-0.3824560344219208,0.330954909324646,1.0086783170700073,52.978515625,-10.31494140625,98.6328125
8.744019985198975,1582822434,1,-0.5723974704742432,0.574851393699646,1.1634634733200073,81.1767578125,-46.875,122.25341796875
8.759427070617676,1582822430,0,-0.06759863346815109,-0.5403829216957092,1.6295596361160278,-116.88232421875,-258.1787109375,228.1494140625
8.759480953216553,1582822449,0,-0.1276572346687317,-0.6043477654457092,1.5948916673660278,-127.3193359375,-261.53564453125,209.53369140625
8.759557008743286,1582822468,0,-0.1364462971687317,-0.6956563591957092,1.6012393236160278,-135.25390625,-304.13818359375,198.2421875
8.786770105361938,1582822453,1,-0.6971533298492432,0.644431471824646,0.9727895855903625,76.35498046875,-102.05078125,172.8515625
8.7867751121521,1582822472,1,-0.6934912204742432,0.551413893699646,1.0040396451950073,10.31494140625,-95.5810546875,221.37451171875
8.792824983596802,1582822487,0,-0.04489355534315109,-0.7771993279457092,1.7340518236160278,-143.4326171875,-349.91455078125,205.99365234375
8.804909944534302,1582822491,1,-0.4903661906719208,0.483542799949646,0.8365591168403625,-9.94873046875,-38.330078125,258.97216796875
8.81858205795288,1582822506,0,0.03616113215684891,-0.8521504998207092,1.9945498704910278,-159.3017578125,-383.1787109375,202.0263671875
8.818599939346313,1582822525,0,0.11819238215684891,-0.9346700310707092,2.1744813919067383,-175.048828125,-384.765625,177.24609375
8.841978073120117,1582822527,1,-0.4461767375469208,0.500876784324646,0.7498891949653625,61.03515625,80.2001953125,255.43212890625
8.850178956985474,1582822544,0,0.11233300715684891,-1.0535664558410645,2.2958192825317383,-177.30712890625,-384.33837890625,150.57373046875
8.865053176879883,1582822546,1,-0.3831884562969208,0.524070143699646,0.6720083355903625,55.96923828125,89.29443359375,292.54150390625
8.865102052688599,1582822565,1,-0.2828466594219208,0.323630690574646,0.7203481793403625,-15.68603515625,72.8759765625,347.71728515625
8.889678001403809,1582822563,0,0.06863183528184891,-1.2439961433410645,2.3954286575317383,-166.3818359375,-397.4609375,135.8642578125
8.88968300819397,1582822582,0,0.06570214778184891,-1.3917012214660645,2.4364442825317383,-169.86083984375,-416.32080078125,135.498046875
8.895437002182007,1582822584,1,0.014028340578079224,0.03017367422580719,0.7921255230903625,-69.9462890625,48.2177734375,357.72705078125
8.910419940948486,1582822618,0,0.2610146403312683,-1.5938496589660645,2.7154970169067383,-223.7548828125,-401.611328125,130.859375
8.923556089401245,1582822603,1,0.19981935620307922,-0.09189663827419281,0.8883169293403625,-56.94580078125,65.61279296875,323.54736328125
8.9355309009552,1582822622,1,0.11949709057807922,0.09609164297580719,0.8868520855903625,-19.6533203125,111.38916015625,273.5595703125
8.94163703918457,1582822637,0,0.1728798747062683,-1.7415547370910645,2.8461122512817383,-254.33349609375,-380.79833984375,94.7265625
8.955235004425049,1582822641,1,-0.008432596921920776,0.1825174242258072,0.8797720074653625,-35.94970703125,117.431640625,279.052734375
8.955265998840332,1582822660,1,-0.11902830004692078,0.1424783617258072,0.9898794293403625,-87.70751953125,76.171875,317.56591796875
8.969985008239746,1582822656,0,0.07961816340684891,-1.7959980964660645,2.8402528762817383,-282.958984375,-345.458984375,21.42333984375
8.970060110092163,1582822675,0,-0.04977636784315109,-1.8362812995910645,2.7858095169067383,-292.48046875,-303.28369140625,-73.54736328125
8.992025136947632,1582822679,1,-0.15784665942192078,0.10048617422580719,1.0902212858200073,-121.52099609375,33.935546875,344.05517578125
9.000136852264404,1582822694,0,-0.1747763752937317,-1.9361348152160645,2.6422548294067383,-289.12353515625,-270.3857421875,-155.6396484375
9.015219926834106,1582822698,1,-0.06263181567192078,0.01747836172580719,1.2784537076950073,-139.892578125,5.67626953125,370.4833984375
9.015240907669067,1582822717,1,-0.15101072192192078,0.1686014086008072,1.5272330045700073,-100.9521484375,15.19775390625,407.2265625
