sync_time,timestamp_ms,device_id,ax,ay,az,gx,gy,gz
0.025554180145263672,1578389220,1,0.24622392654418945,0.8895660042762756,-0.07763516157865524,10.68115234375,21.484375,-19.10400390625
0.025559186935424805,1578389239,1,0.25403642654418945,0.9247222542762756,-0.07812344282865524,10.8642578125,19.22607421875,-18.4326171875
0.03913116455078125,1578389231,0,-0.16075268387794495,0.9534237384796143,0.023516561836004257,0.30517578125,26.55029296875,-16.66259765625
0.03913712501525879,1578389250,0,-0.16612377762794495,0.9822323322296143,0.029375936836004257,0.9765625,26.06201171875,-15.9912109375
0.0622563362121582,1578389258,1,0.26844072341918945,0.9354644417762756,-0.09716641157865524,8.056640625,20.99609375,-18.98193359375
0.06749916076660156,1578389269,0,-0.17027416825294495,0.9727108478546143,0.022539999336004257,-2.197265625,21.42333984375,-14.16015625
0.08266925811767578,1578389277,1,0.25452470779418945,0.9239898324012756,-0.10693203657865524,3.35693359375,20.3857421875,-16.78466796875
0.08268332481384277,1578389296,1,0.25525712966918945,0.9708648324012756,-0.10180508345365524,2.44140625,17.51708984375,-12.5732421875
0.09785032272338867,1578389288,0,-0.16587963700294495,0.9775936603546143,0.022539999336004257,-7.6904296875,16.845703125,-13.00048828125
0.11580228805541992,1578389315,1,0.25403642654418945,1.0121246576309204,-0.12402188032865524,1.15966796875,22.705078125,-10.25390625
0.12778496742248535,1578389307,0,-0.19395580887794495,1.0354549884796143,0.021319296211004257,-5.615234375,23.5595703125,-10.1318359375
0.12783432006835938,1578389326,0,-0.21275463700294495,1.0425350666046143,0.0010556243360042572,-3.5400390625,22.88818359375,-4.39453125
0.14421725273132324,1578389334,1,0.23230791091918945,0.9825835824012756,-0.16284024715423584,-3.0517578125,23.13232421875,-9.3994140625
0.14429020881652832,1578389353,1,0.20911455154418945,0.9188628792762756,-0.17040860652923584,-10.498046875,13.97705078125,-10.07080078125
0.1651163101196289,1578389345,0,-0.21080151200294495,0.9827206134796143,-0.022137735038995743,-13.427734375,18.5546875,2.38037109375
0.16512513160705566,1578389364,0,-0.21519604325294495,0.9199764728546143,-0.030926797538995743,-23.01025390625,18.73779296875,-1.03759765625
0.17433714866638184,1578389372,1,0.20276689529418945,0.9017730355262756,-0.16869962215423584,-13.12255859375,10.68115234375,-3.662109375
0.18781423568725586,1578389383,0,-0.26475659012794495,0.9094784259796143,-0.029950235038995743,-13.916015625,9.033203125,-1.15966796875
0.18784213066101074,1578389402,0,-0.26817455887794495,0.9688045978546143,-0.08952054381370544,4.82177734375,-9.765625,-1.0986328125
0.21166515350341797,1578389408,1,0.16907548904418945,0.9796538949012756,-0.20825040340423584,-8.4228515625,4.39453125,0.9765625
0.2178952693939209,1578389421,0,-0.30162182450294495,1.0410702228546143,-0.15714749693870544,5.9814453125,-7.75146484375,3.662109375
0.23276805877685547,1578389427,1,0.20423173904418945,1.0421539545059204,-0.24658048152923584,-5.43212890625,-1.5869140625,0.18310546875
0.23284101486206055,1578389446,1,0.19178056716918945,1.0521637201309204,-0.29101407527923584,-4.5166015625,-12.20703125,0.48828125
0.24748015403747559,1578389440,0,-0.31675854325294495,1.0491268634796143,-0.19230374693870544,12.0849609375,2.01416015625,-0.54931640625
0.24755096435546875,1578389459,0,-0.36021557450294495,1.0686581134796143,-0.23673734068870544,14.09912109375,-2.0751953125,4.2724609375
0.2678501605987549,1578389465,1,0.20642900466918945,1.0626617670059204,-0.29809415340423584,0.732421875,-4.39453125,2.74658203125
0.29155421257019043,1578389484,1,0.19104814529418945,1.0277496576309204,-0.30102384090423584,2.5634765625,-8.36181640625,2.99072265625
0.2929511070251465,1578389503,1,0.19007158279418945,0.9921050667762756,-0.26586759090423584,9.033203125,-16.2353515625,2.685546875
0.3120882511138916,1578389495,0,-0.25792065262794495,1.0352108478546143,-0.11979398131370544,3.60107421875,3.662109375,6.34765625
0.31209325790405273,1578389514,0,-0.25987377762794495,0.9995663166046143,-0.05631742253899574,5.615234375,18.49365234375,8.1787109375
0.3228621482849121,1578389522,1,0.21668291091918945,0.9867339730262756,-0.20263516902923584,17.4560546875,-9.521484375,9.27734375
0.3396260738372803,1578389533,0,-0.24522534012794495,0.9981014728546143,-0.029706094413995743,10.07080078125,8.1787109375,17.333984375
0.3396341800689697,1578389552,0,-0.25962963700294495,1.0217831134796143,-0.03434476628899574,20.01953125,-5.67626953125,21.8505859375
0.361004114151001,1578389541,1,0.20764970779418945,1.0035797357559204,-0.17138516902923584,18.798828125,-6.40869140625,12.6953125
0.3610103130340576,1578389560,1,0.20301103591918945,0.9872222542762756,-0.13598477840423584,14.58740234375,-16.2353515625,14.46533203125
0.3677210807800293,1578389571,0,-0.23448315262794495,1.0076229572296143,-0.04679593816399574,17.63916015625,-8.85009765625,21.66748046875
0.38360118865966797,1578389579,1,0.25550127029418945,0.9596343636512756,-0.12597501277923584,10.6201171875,-20.263671875,16.357421875
0.3836061954498291,1578389598,1,0.21302080154418945,0.9244781136512756,-0.12963712215423584,3.2958984375,-18.12744140625,14.46533203125
0.3976631164550781,1578389590,0,-0.23399487137794495,0.9795467853546143,-0.029950235038995743,7.62939453125,-14.34326171875,18.49365234375
0.39773106575012207,1578389609,0,-0.21934643387794495,1.0420467853546143,-0.030926797538995743,7.62939453125,-22.03369140625,14.5263671875
0.4156312942504883,1578389617,1,0.16053056716918945,0.06827694177627563,-0.03393398970365524,-220.88623046875,-84.3505859375,66.34521484375
0.4275221824645996,1578389628,0,-0.16124096512794495,0.7666561603546143,-0.13078030943870544,8.7890625,-37.90283203125,21.8505859375
0.44293212890625,1578389636,1,-0.02184247598052025,0.5521636605262756,-0.18993985652923584,-103.69873046875,-118.1640625,61.46240234375
0.46311211585998535,1578389647,0,-0.16563549637794495,0.9058163166046143,-0.05045804753899574,-6.2255859375,-12.51220703125,12.26806640625
0.4631180763244629,1578389666,0,-0.28868237137794495,0.9265682697296143,-0.020672891288995743,9.94873046875,7.87353515625,15.31982421875
0.47439122200012207,1578389671,1,0.16053056716918945,1.0685211420059204,-0.47167813777923584,-10.31494140625,-91.6748046875,36.07177734375
0.4892261028289795,1578389685,0,-0.27354565262794495,0.9824764728546143,-0.08878812193870544,29.11376953125,-24.7802734375,27.099609375
0.5110251903533936,1578389691,1,0.11487627029418945,0.8827300667762756,-0.30615079402923584,32.77587890625,-57.92236328125,16.7236328125
0.5110311508178711,1578389710,1,0.07727861404418945,1.1149078607559204,0.20068514347076416,-23.4375,15.19775390625,-25.93994140625
0.5181403160095215,1578389704,0,-0.25450268387794495,0.8572323322296143,-0.12882718443870544,19.83642578125,-40.4052734375,27.52685546875
0.5181460380554199,1578389723,0,-0.38853588700294495,0.9717342853546143,-0.031170938163995743,28.99169921875,-40.0390625,65.12451171875
0.5341949462890625,1578389729,1,-0.15026044845581055,0.8243804574012756,0.6066910028457642,-95.8251953125,49.072265625,-12.02392578125
0.5342831611633301,1578389748,1,-0.17223310470581055,0.7650542855262756,0.22509920597076416,-36.7431640625,-18.5546875,5.9814453125
0.5602860450744629,1578389759,0,-0.09605541825294495,1.0781795978546143,-0.21940335631370544,40.95458984375,36.92626953125,32.16552734375
0.5662212371826172,1578389767,1,0.48523759841918945,1.2516266107559204,-0.48803555965423584,-44.37255859375,-6.89697265625,12.39013671875
0.5794451236724854,1578389778,0,0.06483325362205505,0.9150936603546143,0.27620211243629456,7.62939453125,-5.18798828125,-12.6953125
0.5941252708435059,1578389786,1,0.15686845779418945,0.9117828011512756,-0.22802579402923584,-93.26171875,10.92529296875,-11.1083984375
0.5941519737243652,1578389805,1,0.01624346151947975,0.6866851449012756,-0.11352383345365524,-54.99267578125,18.85986328125,-10.43701171875
0.615617036819458,1578389797,0,-0.41002026200294495,0.9712460041046143,0.15681734681129456,-128.23486328125,119.81201171875,-60.4248046875
0.6156232357025146,1578389816,0,-0.17027416825294495,0.5256893634796143,-0.33952054381370544,-98.9990234375,-5.18798828125,22.4609375
0.622833251953125,1578389824,1,0.24817705154418945,0.8146148324012756,-0.13696134090423584,-15.07568359375,14.6484375,1.15966796875
0.6417331695556641,1578389835,0,-0.14439526200294495,0.9180233478546143,-0.6500674486160278,-14.34326171875,-34.36279296875,30.33447265625
0.6637182235717773,1578389843,1,0.39514970779418945,0.9315581917762756,-0.20751798152923584,-14.0380859375,-56.33544921875,1.40380859375
0.6637229919433594,1578389862,1,0.38074541091918945,1.0111480951309204,-0.20654141902923584,-4.21142578125,-71.533203125,6.34765625
0.6702690124511719,1578389854,0,-0.12120190262794495,1.0342342853546143,-0.19596585631370544,26.611328125,-72.08251953125,19.10400390625
0.6702752113342285,1578389873,0,-0.014268312603235245,1.0576717853546143,-0.06266507506370544,2.3193359375,-174.49951171875,40.1611328125
0.6852312088012695,1578389881,1,0.22180986404418945,0.9737945199012756,-0.13598477840423584,-10.80322265625,-99.54833984375,18.12744140625
0.7111852169036865,1578389892,0,0.07850512862205505,1.0601131916046143,-0.04435453191399574,0.54931640625,-213.07373046875,94.23828125
0.7111902236938477,1578389911,0,0.06922778487205505,0.8481991291046143,0.013995077461004257,28.74755859375,-198.486328125,117.3095703125
0.7162981033325195,1578389900,1,0.21472978591918945,0.9647613167762756,-0.05053555220365524,-13.97705078125,-137.20703125,25.69580078125
0.7300691604614258,1578389930,0,0.052382078021764755,0.9736874103546143,-0.08610257506370544,46.81396484375,-18.6767578125,108.21533203125
0.7428989410400391,1578389935,1,0.17786455154418945,0.9098296761512756,0.10083163529634476,-49.74365234375,-196.96044921875,48.64501953125
0.7429792881011963,1578389955,1,0.6749348640441895,1.0165191888809204,0.05224765092134476,-88.7451171875,-270.5078125,38.39111328125
0.7644522190093994,1578389949,0,-0.16099682450294495,0.9614803791046143,-0.029706094413995743,59.326171875,10.986328125,109.68017578125
0.7644569873809814,1578389968,0,0.010634031146764755,0.9556210041046143,0.03523531183600426,41.07666015625,79.345703125,117.5537109375
0.7739651203155518,1578389974,1,0.27259111404418945,0.9100738167762756,0.09106601029634476,-81.54296875,-245.60546875,26.9775390625
0.7878432273864746,1578389987,0,-0.49913159012794495,0.8140194416046143,-0.04850492253899574,22.39990234375,80.74951171875,81.787109375
0.8116772174835205,1578389993,1,0.12073564529418945,0.48063045740127563,0.15576326847076416,-71.22802734375,-236.572265625,-9.82666015625
0.8116822242736816,1578390012,1,0.46253252029418945,0.7198882699012756,0.06250155717134476,-61.279296875,-196.96044921875,-14.46533203125
0.8189201354980469,1578390023,0,-0.09581127762794495,1.5667049884796143,0.16438570618629456,8.4228515625,97.71728515625,34.5458984375
0.832984209060669,1578390031,1,0.47596025466918945,1.3107086420059204,-0.005857817828655243,-27.2216796875,-61.21826171875,72.998046875
0.8476481437683105,1578390042,0,-0.5162214636802673,1.4168026447296143,-0.19913968443870544,-55.5419921875,-50.1708984375,60.302734375
0.8477680683135986,1578390061,0,-0.23545971512794495,0.5732967853546143,-0.23746976256370544,-87.158203125,-78.67431640625,35.82763671875
0.8660171031951904,1578390050,1,-0.38365888595581055,1.1036773920059204,0.04712069779634476,-50.1708984375,-106.99462890625,37.90283203125
0.8660223484039307,1578390069,1,0.19397783279418945,0.9315581917762756,-0.09692227095365524,-58.65478515625,-75.1953125,36.80419921875
0.8781061172485352,1578390080,0,0.08485278487205505,0.8740780353546143,-0.16495999693870544,-25.20751953125,-52.8564453125,-28.3203125
0.892707109451294,1578390088,1,0.29578447341918945,0.8580718636512756,-0.07543789595365524,-43.15185546875,-65.49072265625,42.48046875
0.892768144607544,1578390107,1,0.31018877029418945,0.7823882699012756,-0.005613677203655243,-23.86474609375,-28.74755859375,43.212890625
0.9153661727905273,1578390099,0,0.07313403487205505,0.9165585041046143,-0.014813516288995743,19.71435546875,-27.40478515625,-55.23681640625
0.9153721332550049,1578390118,0,0.23206958174705505,0.8982479572296143,0.016680624336004257,-19.83642578125,-35.21728515625,-41.19873046875
0.9233081340789795,1578390126,1,0.34339189529418945,0.7899566292762756,-0.09887539595365524,-6.4697265625,-32.1044921875,62.43896484375
0.9378423690795898,1578390137,0,0.36390551924705505,0.9180233478546143,0.16145601868629456,-45.22705078125,35.33935546875,-36.56005859375
0.963360071182251,1578390145,1,0.5626301765441895,0.7618804574012756,0.06469882279634476,-1.953125,-46.142578125,58.2275390625
0.9633653163909912,1578390164,1,0.44959306716918945,0.8990874886512756,0.10131991654634476,-8.72802734375,-36.43798828125,29.72412109375
0.9693341255187988,1578390156,0,0.15809497237205505,1.0142147541046143,0.08308687806129456,-53.77197265625,52.001953125,2.86865234375
0.9693560600280762,1578390175,0,0.022596921771764755,1.0918514728546143,-0.06095609441399574,-46.9970703125,50.537109375,34.72900390625
0.9844381809234619,1578390199,1,0.5301594734191895,1.0362945795059204,-0.15038907527923584,-1.708984375,-33.63037109375,-2.197265625
0.9977352619171143,1578390194,0,0.033583249896764755,1.1965878009796143,-0.16984280943870544,-31.6162109375,24.96337890625,3.41796875
0.9977552890777588,1578390213,0,0.12757739424705505,1.1946346759796143,-0.21427640318870544,-10.6201171875,11.77978515625,-15.380859375
1.015653133392334,1578390219,1,0.49842119216918945,1.0724273920059204,-0.21557462215423584,-3.41796875,-36.376953125,-13.427734375
1.0281610488891602,1578390232,0,0.17738208174705505,1.1946346759796143,-0.32487210631370544,4.08935546875,-8.544921875,-21.3623046875
1.0441410541534424,1578390238,1,0.5147786140441895,0.9850249886512756,-0.38525235652923584,-5.9814453125,-43.9453125,-30.2734375
1.044208288192749,1578390257,1,0.5501790046691895,0.9943023324012756,-0.44116055965423584,-7.080078125,-57.80029296875,-40.4052734375
1.0656609535217285,1578390251,0,0.33534106612205505,1.0950253009796143,-0.28995999693870544,4.82177734375,-16.845703125,-37.78076171875
1.0756113529205322,1578390276,1,0.43201494216918945,1.0287262201309204,-0.43993985652923584,-9.6435546875,-49.1943359375,-37.59765625
1.0890450477600098,1578390287,0,0.20789965987205505,1.1843807697296143,-0.32780179381370544,5.615234375,-17.88330078125,-29.6630859375
1.1122021675109863,1578390295,1,0.40271806716918945,0.9535308480262756,-0.37255704402923584,-7.32421875,-48.88916015625,-32.5927734375
1.112206220626831,1578390314,1,0.11951494216918945,1.6461578607559204,-0.15429532527923584,72.57080078125,95.947265625,70.49560546875
1.1191270351409912,1578390306,0,0.26209887862205505,1.7002499103546143,-0.5465518236160278,-41.68701171875,69.091796875,-2.25830078125
1.1192011833190918,1578390325,0,0.27967700362205505,1.0269100666046143,-0.22135648131370544,-35.58349609375,-33.8134765625,-22.03369140625
1.1327390670776367,1578390333,1,0.5885090827941895,1.0629059076309204,-0.46996915340423584,-41.19873046875,-60.24169921875,-2.13623046875
1.160229206085205,1578390344,0,0.30872973799705505,1.2109920978546143,-0.28385648131370544,-19.83642578125,-54.19921875,-27.77099609375
1.1602370738983154,1578390363,0,0.26258715987205505,1.1226131916046143,-0.17960843443870544,-5.31005859375,-34.11865234375,-36.07177734375
1.1658141613006592,1578390352,1,0.6903157234191895,1.0214020013809204,-0.32299649715423584,-46.38671875,-32.16552734375,-11.65771484375
1.1658282279968262,1578390371,1,0.5448079109191895,1.0135895013809204,-0.27612149715423584,-23.193359375,-29.1748046875,-35.0341796875
1.179490089416504,1578390382,0,0.10926684737205505,1.1372616291046143,-0.24870023131370544,16.2353515625,-39.48974609375,-39.9169921875
1.194092035293579,1578390390,1,0.41785478591918945,1.0958648920059204,-0.13989102840423584,-7.32421875,-45.8984375,-47.30224609375
1.194167137145996,1578390409,1,0.36487627029418945,1.0841461420059204,-0.13525235652923584,4.08935546875,-67.0166015625,-62.43896484375
1.2165412902832031,1578390401,0,-0.033311281353235245,1.1455624103546143,-0.22208890318870544,47.42431640625,-52.8564453125,-39.36767578125
1.2165513038635254,1578390420,0,-0.012559328228235245,1.1545956134796143,-0.14738187193870544,63.53759765625,-71.1669921875,-46.32568359375
1.2243542671203613,1578390428,1,0.34949541091918945,1.0929352045059204,-0.14135587215423584,-0.732421875,-77.5146484375,-61.82861328125
1.2378571033477783,1578390439,0,0.042860593646764755,1.1450741291046143,-0.11930570006370544,66.2841796875,-75.50048828125,-45.22705078125
1.2634871006011963,1578390463,1,0.31775712966918945,1.0502105951309204,-0.17431485652923584,3.0517578125,-68.9697265625,-59.814453125
1.2691571712493896,1578390458,0,0.018202390521764755,1.1233456134796143,-0.15421780943870544,65.673828125,-78.61328125,-44.00634765625
1.2691903114318848,1578390477,0,-0.048448000103235245,1.1206600666046143,-0.19889554381370544,64.453125,-81.9091796875,-47.119140625
1.2843079566955566,1578390483,1,0.29895830154418945,1.0482574701309204,-0.14916837215423584,5.0048828125,-74.89013671875,-65.185546875
1.299537181854248,1578390496,0,-0.007920656353235245,1.0869686603546143,-0.19889554381370544,68.05419921875,-90.576171875,-53.16162109375
1.3167450428009033,1578390502,1,0.30579423904418945,1.0113922357559204,-0.14941251277923584,3.173828125,-82.33642578125,-67.87109375
1.316749095916748,1578390521,1,0.34021806716918945,0.9210601449012756,-0.16039884090423584,13.36669921875,-80.6884765625,-76.96533203125
1.3291382789611816,1578390515,0,0.050184812396764755,1.0059139728546143,-0.13151273131370544,72.1435546875,-79.04052734375,-54.8095703125
1.3442742824554443,1578390540,1,0.24451494216918945,0.9310699105262756,-0.13720548152923584,25.634765625,-75.3173828125,-76.35498046875
1.34433913230896,1578390559,1,0.14148759841918945,0.9950347542762756,-0.11108242720365524,33.69140625,-75.25634765625,-78.61328125
1.3656682968139648,1578390551,0,-0.07383862137794495,0.9482967853546143,-0.20182523131370544,83.92333984375,-68.66455078125,-43.76220703125
1.3656721115112305,1578390570,0,-0.19419994950294495,0.9719784259796143,-0.27995023131370544,90.39306640625,-63.65966796875,-32.958984375
1.3743202686309814,1578390578,1,0.06873369216918945,1.0094391107559204,-0.14868009090423584,40.34423828125,-85.63232421875,-83.3740234375
1.3890230655670166,1578390589,0,-0.26646557450294495,1.0183651447296143,-0.26554593443870544,90.9423828125,-68.42041015625,-40.58837890625
1.4133591651916504,1578390597,1,0.07141923904418945,0.9989410042762756,-0.17944180965423584,26.2451171875,-83.31298828125,-88.8671875
1.4133641719818115,1578390616,1,0.04138994589447975,0.9979644417762756,-0.21801602840423584,16.2353515625,-76.7822265625,-86.85302734375
1.4215612411499023,1578390608,0,-0.20152416825294495,0.9829647541046143,-0.25260648131370544,78.91845703125,-71.533203125,-55.72509765625
1.4215669631958008,1578390627,0,-0.22813549637794495,0.9568417072296143,-0.27579984068870544,67.626953125,-71.10595703125,-57.55615234375
1.4344682693481445,1578390635,1,-0.008170600980520248,1.0152984857559204,-0.21557462215423584,13.5498046875,-65.3076171875,-82.763671875
1.4491982460021973,1578390646,0,-0.27891674637794495,0.9666073322296143,-0.31803616881370544,55.96923828125,-79.1015625,-46.44775390625
1.466320276260376,1578390654,1,-0.07701826095581055,1.0426422357559204,-0.23095548152923584,8.36181640625,-56.45751953125,-67.32177734375
1.466325044631958,1578390673,1,-0.10265302658081055,0.9542632699012756,-0.16992032527923584,-9.21630859375,-47.66845703125,-52.978515625
1.4792163372039795,1578390665,0,-0.30601635575294495,0.9072811603546143,-0.26383695006370544,37.4755859375,-70.49560546875,-43.0908203125
1.4793002605438232,1578390684,0,-0.37925854325294495,0.8484432697296143,-0.23722562193870544,20.32470703125,-61.09619140625,-44.43359375
1.4945111274719238,1578390692,1,-0.12706708908081055,0.9142242074012756,-0.09521328657865524,-16.54052734375,-41.748046875,-51.81884765625
1.5169200897216797,1578390703,0,-0.39659252762794495,0.8018124103546143,-0.20426663756370544,14.892578125,-59.08203125,-48.095703125
1.5169250965118408,1578390722,0,-0.35630932450294495,0.7595760822296143,-0.16300687193870544,-0.42724609375,-44.37255859375,-50.23193359375
1.524346113204956,1578390728,1,-0.17662763595581055,0.8265777230262756,-0.09496914595365524,-23.86474609375,-17.578125,-40.1611328125
1.5395772457122803,1578390741,0,-0.39756909012794495,0.6121151447296143,-0.15275296568870544,-20.44677734375,-31.18896484375,-44.86083984375
1.5644831657409668,1578390747,1,-0.29918622970581055,0.7394195199012756,-0.07958828657865524,-29.11376953125,-1.8310546875,-27.16064453125
1.5644891262054443,1578390766,1,-0.36681318283081055,0.6932769417762756,-0.03417813032865524,-39.61181640625,9.82666015625,-3.0517578125
1.5691871643066406,1578390760,0,-0.41783276200294495,0.47173428535461426,-0.15153226256370544,-44.189453125,-18.00537109375,-22.39990234375
1.5692012310028076,1578390779,0,-0.48497143387794495,0.36821866035461426,-0.18888577818870544,-57.0068359375,-15.380859375,2.13623046875
1.5843231678009033,1578390785,1,-0.45519208908081055,0.5655913949012756,1.55717134475708e-06,-49.4384765625,15.9912109375,31.67724609375
1.6197502613067627,1578390804,1,-0.35680341720581055,0.34610897302627563,-0.04125820845365524,-40.83251953125,12.26806640625,51.57470703125
1.6197991371154785,1578390823,1,-0.34508466720581055,0.32828670740127563,-0.03954922407865524,-30.33447265625,13.48876953125,52.490234375
1.6292071342468262,1578390815,0,-0.33995190262794495,0.13189055025577545,-0.21329984068870544,-61.95068359375,-19.59228515625,32.40966796875
1.629223346710205,1578390834,0,-0.32579174637794495,0.13677336275577545,-0.16520413756370544,-52.06298828125,-8.056640625,36.80419921875
1.6428663730621338,1578390842,1,-0.32433271408081055,0.32682186365127563,-0.025389067828655243,-22.64404296875,15.56396484375,62.255859375
1.665041208267212,1578390853,0,-0.27867260575294495,0.19414640963077545,-0.09879788756370544,-50.4150390625,-11.1083984375,54.26025390625
1.666614055633545,1578390872,0,-0.24473705887794495,0.30400967597961426,-0.03580961003899574,-61.6455078125,-10.92529296875,75.1953125
1.674314022064209,1578390861,1,-0.25402021408081055,0.38077694177627563,-0.006101958453655243,-20.6298828125,13.3056640625,80.62744140625
1.6743502616882324,1578390880,1,-0.17198896408081055,0.41788631677627563,-0.018064849078655243,-30.94482421875,17.02880859375,105.95703125
1.6893010139465332,1578390891,0,-0.15831127762794495,0.35503506660461426,0.014727499336004257,-76.904296875,-11.474609375,85.75439453125
1.7132081985473633,1578390899,1,0.004768852144479752,0.38297420740127563,-0.04150234907865524,-38.0859375,28.86962890625,133.60595703125
1.7132141590118408,1578390918,1,0.10779619216918945,0.39005428552627563,-0.018064849078655243,-40.8935546875,42.8466796875,144.71435546875
1.719191074371338,1578390910,0,-0.032578859478235245,0.43413662910461426,0.08455172181129456,-99.4873046875,0.18310546875,84.65576171875
1.7192273139953613,1578390929,0,0.057020749896764755,0.45147061347961426,0.13582125306129456,-114.68505859375,15.31982421875,100.5859375
1.7345612049102783,1578390937,1,0.16907548904418945,0.42960506677627563,0.08081210404634476,-46.9970703125,51.8798828125,153.9306640625
1.7475221157073975,1578390948,0,0.043837156146764755,0.5706112384796143,0.12874117493629456,-115.1123046875,26.7333984375,129.82177734375
1.7664971351623535,1578390956,1,0.27600908279418945,0.45401912927627563,0.07373202592134476,-44.98291015625,50.23193359375,155.6396484375
1.7793641090393066,1578390967,0,0.0020891092717647552,0.6377499103546143,0.16292086243629456,-114.8681640625,30.2734375,130.0048828125
1.779466152191162,1578390986,0,0.09290942549705505,0.6814510822296143,0.21834078431129456,-118.95751953125,21.78955078125,122.4365234375
1.7944509983062744,1578390991,1,0.44861650466918945,0.47916561365127563,0.13476717472076416,-46.44775390625,39.61181640625,151.7333984375
1.8160812854766846,1578391005,0,0.21571215987205505,0.7122128009796143,0.33577242493629456,-117.67578125,20.01953125,123.10791015625
1.8242969512939453,1578391011,1,0.6073079109191895,0.46842342615127563,0.19751131534576416,-39.36767578125,35.46142578125,150.146484375
1.8243310451507568,1578391030,1,0.6954426765441895,0.48307186365127563,0.22314608097076416,-33.69140625,40.283203125,147.8271484375
1.8391401767730713,1578391024,0,0.26966723799705505,0.7644588947296143,0.41487398743629456,-111.63330078125,24.35302734375,119.7509765625
1.839217185974121,1578391043,0,0.25257739424705505,0.7876522541046143,0.44148531556129456,-102.783203125,35.58349609375,112.12158203125
1.8623270988464355,1578391049,1,0.6409993171691895,0.5465484261512756,0.27392733097076416,-25.45166015625,47.119140625,136.8408203125
1.862334966659546,1578391068,1,0.6663899421691895,0.6056304574012756,0.29052889347076416,-27.28271484375,38.51318359375,144.1650390625
1.8692450523376465,1578391079,0,0.19105395674705505,0.9165585041046143,0.44343844056129456,-98.5107421875,30.6396484375,133.48388671875
1.884329080581665,1578391087,1,0.7708821296691895,0.5907378792762756,0.25512850284576416,-25.0244140625,33.935546875,141.357421875
1.8990919589996338,1578391098,0,0.33021411299705505,0.9556210041046143,0.5044735670089722,-95.0927734375,30.029296875,117.61474609375
1.9179742336273193,1578391106,1,0.8866047859191895,0.5477691292762756,0.19140779972076416,-17.51708984375,45.41015625,123.35205078125
1.9179792404174805,1578391125,1,0.8414387702941895,0.6029449105262756,0.20678865909576416,-5.4931640625,59.26513671875,104.67529296875
1.9291703701019287,1578391117,0,0.34266528487205505,0.8774960041046143,0.48445406556129456,-81.4208984375,53.1005859375,85.99853515625
1.9292731285095215,1578391136,0,0.32069262862205505,0.9587948322296143,0.43220797181129456,-75.98876953125,57.2509765625,84.1064453125
1.9446840286254883,1578391144,1,0.8060383796691895,0.6991363167762756,0.26001131534576416,-9.27734375,60.97412109375,102.72216796875
1.9652941226959229,1578391155,0,0.35804614424705505,0.9988338947296143,0.49275484681129456,-71.59423828125,55.84716796875,91.6748046875
1.9742002487182617,1578391163,1,0.8409504890441895,0.6700835824012756,0.21240389347076416,-4.33349609375,65.0634765625,112.36572265625
1.9742281436920166,1578391182,1,0.8819661140441895,0.6000152230262756,0.24218904972076416,-3.2958984375,74.52392578125,113.4033203125
1.9896152019500732,1578391174,0,0.39539965987205505,0.9956600666046143,0.5816220045089722,-80.38330078125,68.90869140625,93.44482421875
1.9896612167358398,1578391193,0,0.38636645674705505,0.9226620197296143,0.5283993482589722,-78.55224609375,85.8154296875,91.36962890625
2.0115671157836914,1578391201,1,0.9110188484191895,0.6173492074012756,0.30493319034576416,3.2958984375,88.8671875,103.94287109375
2.0191361904144287,1578391212,0,0.33412036299705505,1.0418026447296143,0.48445406556129456,-59.5703125,89.53857421875,87.46337890625
2.0191690921783447,1578391231,0,0.31068286299705505,1.2241756916046143,0.5074032545089722,-49.31640625,74.5849609375,71.83837890625
2.0341250896453857,1578391220,1,0.9552083015441895,0.7569976449012756,0.29126131534576416,18.06640625,90.2099609375,96.6796875
2.049107074737549,1578391250,0,0.36414965987205505,1.1707088947296143,0.6048153638839722,-69.3359375,63.90380859375,58.16650390625
2.066159248352051,1578391255,1,0.9681477546691895,0.7416167855262756,0.24560701847076416,-2.44140625,77.63671875,84.41162109375
2.0661652088165283,1578391275,1,1.0684895515441895,0.6849761605262756,0.28881990909576416,-20.81298828125,99.54833984375,98.876953125
2.079179048538208,1578391269,0,0.5743547081947327,1.1064999103546143,0.7127255201339722,-92.529296875,68.05419921875,60.36376953125
2.0792510509490967,1578391288,0,0.6312394738197327,1.0745174884796143,0.6836727857589722,-99.18212890625,90.8203125,74.21875
2.094057083129883,1578391294,1,1.0699543952941895,0.6832671761512756,0.30420076847076416,-14.95361328125,126.52587890625,111.51123046875
2.1148359775543213,1578391307,0,0.5584855675697327,1.0627987384796143,0.6419247388839722,-97.47314453125,112.73193359375,94.23828125
2.1244070529937744,1578391313,1,1.0243000984191895,0.6771636605262756,0.32690584659576416,-9.27734375,135.498046875,120.66650390625
2.1244349479675293,1578391332,1,0.8878254890441895,0.7372222542762756,0.37866365909576416,-10.8642578125,136.71875,135.92529296875
2.1392300128936768,1578391343,0,0.22645434737205505,1.1401913166046143,0.6372860670089722,-109.130859375,99.54833984375,88.2568359375
2.1618382930755615,1578391351,1,0.9283528327941895,0.5799956917762756,0.40356600284576416,-34.423828125,123.046875,138.85498046875
2.1692070960998535,1578391362,0,0.32044848799705505,0.9402401447296143,0.7229794263839722,-125.9765625,81.60400390625,57.0068359375
2.1692581176757812,1578391381,0,0.47083911299705505,0.8020565509796143,0.7029598951339722,-126.953125,78.67431640625,62.3779296875
2.1841280460357666,1578391370,1,0.9049153327941895,0.47110897302627563,0.49414217472076416,-46.5087890625,138.00048828125,109.92431640625
2.184171199798584,1578391389,1,0.9163899421691895,0.44034725427627563,0.5307632684707642,-49.74365234375,126.953125,107.72705078125
2.1995091438293457,1578391400,0,0.47474536299705505,0.7578670978546143,0.7757138013839722,-108.0322265625,102.35595703125,80.38330078125
2.2173759937286377,1578391408,1,0.9351887702941895,0.41861873865127563,0.5561538934707642,-38.63525390625,132.62939453125,114.44091796875
2.2173821926116943,1578391427,1,0.8839192390441895,0.41422420740127563,0.5664077997207642,-40.10009765625,135.19287109375,127.74658203125
2.229449987411499,1578391419,0,0.39881762862205505,0.8413631916046143,0.7903622388839722,-92.28515625,110.16845703125,81.60400390625
2.229466199874878,1578391438,0,0.36463794112205505,0.8169491291046143,0.7615536451339722,-88.8671875,108.45947265625,76.7822265625
2.244413137435913,1578391446,1,0.8870930671691895,0.33780819177627563,0.6015640497207642,-49.74365234375,126.953125,122.25341796875
2.2636070251464844,1578391457,0,0.37122973799705505,0.7605526447296143,0.7867001295089722,-89.35546875,99.67041015625,82.275390625
2.274301052093506,1578391465,1,0.9498372077941895,0.23307186365127563,0.5979019403457642,-47.9736328125,111.63330078125,109.80224609375
2.274343252182007,1578391484,1,0.9771809577941895,0.14591366052627563,0.6064468622207642,-32.470703125,102.72216796875,86.73095703125
2.289199113845825,1578391476,0,0.46375903487205505,0.6304256916046143,0.7974423170089722,-73.2421875,97.47314453125,74.89013671875
2.2892680168151855,1578391495,0,0.43128833174705505,0.5840389728546143,0.7749813795089722,-39.00146484375,77.45361328125,60.48583984375
2.314829111099243,1578391520,1,0.9881672859191895,0.15519100427627563,0.5563980340957642,2.13623046875,87.2802734375,59.75341796875
2.319164276123047,1578391514,0,0.6898332238197327,0.5508358478546143,0.33699312806129456,7.080078125,47.30224609375,51.81884765625
2.3191990852355957,1578391533,0,0.34437426924705505,0.7017147541046143,0.6314266920089722,-10.07080078125,94.29931640625,28.80859375
2.334315061569214,1578391539,1,0.8570637702941895,0.26529842615127563,0.5058609247207642,3.2958984375,72.20458984375,36.2548828125
2.3483340740203857,1578391552,0,0.35999926924705505,0.7549374103546143,0.6145809888839722,-3.60107421875,58.7158203125,19.22607421875
2.3659262657165527,1578391558,1,0.8585286140441895,0.22330623865127563,0.48608553409576416,-10.55908203125,67.626953125,23.98681640625
2.3659310340881348,1578391577,1,0.7264485359191895,0.33390194177627563,0.41113436222076416,-6.9580078125,55.23681640625,-8.11767578125
2.3795483112335205,1578391571,0,0.29554614424705505,0.7930233478546143,0.6255673170089722,-2.86865234375,55.908203125,5.4931640625
2.394454002380371,1578391596,1,0.6793293952941895,0.34244686365127563,0.47094881534576416,-18.798828125,54.931640625,-24.169921875
2.4146082401275635,1578391607,0,0.30775317549705505,0.6091854572296143,0.6187313795089722,-10.80322265625,31.18896484375,15.19775390625
2.4242751598358154,1578391615,1,0.6756672859191895,0.26578670740127563,0.5153824090957642,-25.87890625,46.0205078125,-8.30078125
2.424307107925415,1578391634,1,0.6180500984191895,0.23404842615127563,0.48803865909576416,-12.26806640625,41.259765625,-15.380859375
2.439364194869995,1578391626,0,0.25623950362205505,0.5940487384796143,0.5901669263839722,-15.0146484375,31.43310546875,28.01513671875
2.4394423961639404,1578391645,0,0.19764575362205505,0.5801327228546143,0.5840634107589722,-34.1796875,26.85546875,42.8466796875
2.4624130725860596,1578391653,1,0.6068196296691895,0.21720272302627563,0.5131851434707642,-18.6767578125,20.20263671875,-20.263671875
2.468419075012207,1578391664,0,0.19666919112205505,0.5491268634796143,0.6338680982589722,-46.142578125,-8.11767578125,40.8935546875
2.4684553146362305,1578391683,0,0.32923755049705505,0.35015225410461426,0.6533993482589722,-35.400390625,-32.8369140625,21.17919921875
2.4841489791870117,1578391672,1,0.6346516609191895,0.17716366052627563,0.5322281122207642,-49.25537109375,-1.15966796875,-10.3759765625
2.4842312335968018,1578391691,1,0.6305012702941895,-0.0035003982484340668,0.5515152215957642,-58.837890625,-2.9296875,-4.2724609375
2.498979091644287,1578391702,0,0.35999926924705505,0.31743741035461426,0.6624325513839722,-27.587890625,-33.935546875,7.62939453125
2.517604112625122,1578391710,1,0.6012043952941895,-0.018392976373434067,0.5627456903457642,-43.27392578125,-12.87841796875,-9.33837890625
2.517613172531128,1578391729,1,0.5992512702941895,-0.04768985137343407,0.5737320184707642,-41.56494140625,-18.6767578125,-28.3203125
2.529468297958374,1578391721,0,0.31922778487205505,0.34038662910461426,0.6790341138839722,-12.02392578125,-29.84619140625,6.89697265625
2.5294992923736572,1578391740,0,0.26893481612205505,0.31182217597961426,0.7259091138839722,-14.83154296875,-45.166015625,15.7470703125
2.5454652309417725,1578391748,1,0.5938801765441895,-0.08064883947372437,0.6298843622207642,-30.517578125,-37.65869140625,-52.91748046875
2.565782070159912,1578391759,0,0.25770434737205505,0.41704678535461426,0.9405087232589722,-11.41357421875,-90.087890625,29.78515625
2.5728273391723633,1578391783,1,0.6451497077941895,-0.04768985137343407,0.6455093622207642,-7.50732421875,-36.31591796875,-81.84814453125
2.5904541015625,1578391778,0,0.5238175988197327,0.22686125338077545,0.6909970045089722,-42.8466796875,-80.6884765625,11.71875
2.5904593467712402,1578391797,0,0.40955981612205505,0.25493741035461426,0.9292782545089722,-53.5888671875,-74.03564453125,7.9345703125
2.6125802993774414,1578391803,1,0.6580891609191895,-0.05403750762343407,0.7121597528457642,-21.3623046875,-30.6396484375,-67.07763671875
2.619047164916992,1578391816,0,0.44178637862205505,0.18169523775577545,0.9541805982589722,-65.73486328125,-93.32275390625,51.26953125
2.6343092918395996,1578391822,1,0.6702961921691895,-0.11189883947372437,0.7231460809707642,-10.25390625,-36.92626953125,-56.15234375
2.634387969970703,1578391841,1,0.6007161140441895,-0.15852969884872437,0.7507339715957642,5.126953125,-53.16162109375,-37.7197265625
2.660630226135254,1578391835,0,0.37782153487205505,0.23565031588077545,0.9468563795089722,-74.40185546875,-111.14501953125,86.9140625
2.666062116622925,1578391860,1,0.7442708015441895,-0.04305117949843407,0.8781753778457642,18.6767578125,-45.10498046875,-15.93017578125
2.666067123413086,1578391879,1,1.0152668952941895,-0.09187930822372437,0.8771988153457642,-24.10888671875,-39.0625,-55.35888671875
2.679335355758667,1578391871,0,0.5536027550697327,0.015679609030485153,0.9519833326339722,-140.869140625,-119.384765625,123.046875
2.6794321537017822,1578391890,0,0.5938859581947327,-0.18744538724422455,0.7620419263839722,-162.65869140625,-212.95166015625,125.1220703125
2.694096326828003,1578391898,1,0.5394368171691895,-0.20735782384872437,0.6718765497207642,-3.23486328125,-12.26806640625,3.662109375
2.7150800228118896,1578391909,0,0.9312883019447327,-0.14862702786922455,1.1426571607589722,-164.794921875,-263.18359375,207.03125
2.7228453159332275,1578391917,1,1.0306477546691895,-0.25130313634872437,0.6853042840957642,23.37646484375,25.2685546875,47.9736328125
2.722884178161621,1578391936,1,0.8836750984191895,-0.03743594512343407,0.6796890497207642,38.87939453125,13.73291015625,103.33251953125
2.737521171569824,1578391928,0,1.0728899240493774,-0.23725007474422455,0.8125790357589722,-143.9208984375,-101.50146484375,176.81884765625
2.7376132011413574,1578391947,0,0.6038957238197327,0.28862881660461426,0.8853329420089722,-102.294921875,-116.0888671875,195.80078125
2.7624430656433105,1578391955,1,1.0145344734191895,0.35978084802627563,0.7851577997207642,25.57373046875,15.5029296875,85.63232421875
2.769575357437134,1578391966,0,0.8316789269447327,0.11333586275577545,0.7190731763839722,-129.5166015625,-107.0556640625,191.0400390625
2.782773017883301,1578391974,1,0.6690754890441895,-0.12386173009872437,0.5991226434707642,-18.06640625,1.03759765625,50.537109375
2.782830238342285,1578391993,1,0.7315754890441895,-0.30403751134872437,0.6992202997207642,46.142578125,-58.9599609375,79.40673828125
2.7976791858673096,1578391985,0,0.6314836144447327,-0.6134707927703857,0.32918062806129456,-36.68212890625,26.0009765625,66.7724609375
2.797760009765625,1578392004,0,0.7642961144447327,-0.47357821464538574,0.6949032545089722,64.88037109375,8.1787109375,11.90185546875
2.8168091773986816,1578392012,1,0.9979329109191895,-0.29476016759872437,0.7270523309707642,68.115234375,-49.37744140625,67.32177734375
2.8277060985565186,1578392023,0,1.0338274240493774,-0.21112702786922455,0.7334774732589722,74.0966796875,43.9453125,-55.72509765625
2.8277220726013184,1578392042,0,0.8355851769447327,0.002984296530485153,1.1311825513839722,74.03564453125,94.90966796875,-83.6181640625
2.842794179916382,1578392048,1,0.6734700202941895,-0.011557038873434067,0.7148452997207642,56.640625,-10.92529296875,90.51513671875
2.8656461238861084,1578392061,0,0.5833879113197327,0.011529218405485153,0.9849423170089722,43.212890625,209.47265625,-107.11669921875
2.87288498878479,1578392067,1,0.32752275466918945,0.012124601751565933,0.5717788934707642,40.52734375,-51.94091796875,132.2021484375
2.8729591369628906,1578392086,1,0.28211259841918945,-0.25813907384872437,0.30639803409576416,6.8359375,-77.392578125,213.07373046875
2.88751220703125,1578392080,0,0.5543351769447327,0.003472577780485153,0.7615536451339722,-3.35693359375,321.96044921875,-158.26416015625
2.887583017349243,1578392099,0,0.6158586144447327,0.28716397285461426,1.2935360670089722,-19.287109375,389.58740234375,-176.7578125
2.9108123779296875,1578392105,1,0.45179033279418945,-0.07942813634872437,0.40161287784576416,-31.67724609375,37.53662109375,240.17333984375
2.931709051132202,1578392124,1,2.3079915046691895,-0.37093204259872437,0.6706558465957642,-51.08642578125,-43.88427734375,239.31884765625
2.9344332218170166,1578392143,1,0.9315266609191895,-0.6424164175987244,0.7854019403457642,-47.30224609375,152.34375,151.9775390625
2.947801113128662,1578392135,0,0.47694262862205505,-0.028265703469514847,0.9663876295089722,66.46728515625,106.4453125,-56.94580078125
2.947880983352661,1578392154,0,0.47743090987205505,-0.016302812844514847,0.8264950513839722,93.07861328125,198.3642578125,-81.6650390625
2.964571237564087,1578392162,1,0.24475908279418945,-0.8448089957237244,0.8989273309707642,74.70703125,100.89111328125,-43.27392578125
2.978832244873047,1578392173,0,0.5040422081947327,0.10332609713077545,1.0125302076339722,117.5537109375,207.45849609375,-111.572265625
2.978837013244629,1578392192,0,0.6800675988197327,0.49199795722961426,1.5198544263839722,79.4677734375,159.0576171875,-84.716796875
2.992554187774658,1578392181,1,0.8822102546691895,-0.5459808707237244,0.5539566278457642,218.26171875,32.04345703125,-236.75537109375
2.992629051208496,1578392200,1,0.7071614265441895,-0.37166446447372437,0.6132827997207642,245.66650390625,-10.009765625,-297.66845703125
3.0158531665802,1578392211,0,0.5496965050697327,0.14531828463077545,1.0200985670089722,61.46240234375,74.70703125,-42.48046875
3.02416729927063,1578392219,1,0.39051103591918945,0.13053280115127563,0.9609390497207642,184.9365234375,-20.3857421875,-210.26611328125
3.024182081222534,1578392238,1,0.5838704109191895,0.5062652230262756,0.7121597528457642,152.52685546875,20.6298828125,-131.103515625
3.0375659465789795,1578392230,0,0.36585864424705505,0.37725186347961426,1.2810848951339722,44.43359375,64.697265625,-43.88427734375
3.0375943183898926,1578392249,0,0.44129809737205505,0.20855070650577545,0.9226864576339722,59.99755859375,39.4287109375,-25.7568359375
3.062629222869873,1578392257,1,0.8375325202941895,0.47379451990127563,0.7167984247207642,79.1015625,36.43798828125,-86.24267578125
3.067519187927246,1578392268,0,0.29017505049705505,0.13359953463077545,0.8626278638839722,64.02587890625,53.22265625,-53.16162109375
3.082641363143921,1578392276,1,1.6239094734191895,0.021401945501565933,0.6740738153457642,-11.77978515625,67.7490234375,-89.41650390625
3.097698211669922,1578392287,0,0.14198169112205505,0.13945890963077545,0.6675595045089722,64.697265625,64.14794921875,-66.89453125
3.0977742671966553,1578392306,0,0.17347583174705505,0.36480069160461426,1.0132626295089722,77.392578125,61.6455078125,-67.32177734375
3.117366075515747,1578392311,1,0.9097981452941895,0.38517147302627563,0.6787124872207642,-53.40576171875,204.65087890625,69.88525390625
3.127868175506592,1578392325,0,0.11976489424705505,0.37651944160461426,1.0276669263839722,97.2900390625,20.20263671875,-30.76171875
3.1425740718841553,1578392331,1,0.6058430671691895,0.5817046761512756,0.7368179559707642,-64.8193359375,205.078125,130.9814453125
3.1426382064819336,1578392350,1,0.28162431716918945,0.31778866052627563,1.1318374872207642,-115.966796875,173.9501953125,19.53125
3.1656970977783203,1578392344,0,0.08631762862205505,0.38164639472961426,0.9326962232589722,92.7734375,-8.9111328125,9.27734375
3.1657023429870605,1578392363,0,0.29579028487205505,0.21904875338077545,0.8465145826339722,78.61328125,14.09912109375,2.50244140625
3.172818183898926,1578392369,1,-0.006217475980520248,-0.00032657012343406677,1.0014663934707642,-130.859375,47.8515625,-92.59033203125
3.172851085662842,1578392388,1,0.7652668952941895,-0.24275821447372437,0.8313003778457642,-78.06396484375,-43.5791015625,-82.94677734375
3.1874141693115234,1578392399,0,0.20155200362205505,0.30449795722961426,0.9536923170089722,127.685546875,25.93994140625,-116.69921875
3.2119312286376953,1578392407,1,0.5284504890441895,-0.5857757925987244,0.46411287784576416,-35.82763671875,37.78076171875,-122.86376953125
3.2174952030181885,1578392418,0,0.18910083174705505,0.5252010822296143,0.9300106763839722,119.9951171875,5.06591796875,-118.83544921875
3.232593297958374,1578392426,1,0.5089192390441895,0.04850155487656593,0.7280288934707642,21.42333984375,99.18212890625,-131.9580078125
3.2326722145080566,1578392445,1,0.25110673904418945,0.06974178552627563,0.7634292840957642,23.01025390625,37.353515625,-91.064453125
3.247899293899536,1578392437,0,0.19691333174705505,0.5415585041046143,0.9507626295089722,100.341796875,-2.13623046875,-85.87646484375
3.2479681968688965,1578392456,0,0.18470630049705505,0.5347225666046143,0.9637020826339722,90.6982421875,5.2490234375,-67.87109375
3.2656760215759277,1578392464,1,0.5333333015441895,-0.010824616998434067,0.7373062372207642,44.43359375,-5.06591796875,-70.1904296875
3.2775461673736572,1578392475,0,0.14076098799705505,0.5667049884796143,0.9182919263839722,79.9560546875,12.02392578125,-67.07763671875
3.2926151752471924,1578392483,1,0.6283040046691895,0.09122616052627563,0.8117691278457642,62.8662109375,5.92041015625,-79.1015625
3.292630195617676,1578392502,1,0.6768879890441895,0.21280819177627563,0.7646499872207642,37.841796875,38.14697265625,-87.82958984375
3.313246011734009,1578392494,0,0.07118090987205505,0.6274960041046143,0.8938778638839722,70.86181640625,16.41845703125,-67.19970703125
3.3132522106170654,1578392513,0,0.10023364424705505,0.6973202228546143,0.8833798170089722,65.185546875,-5.0048828125,-56.7626953125
3.3240582942962646,1578392521,1,0.5238118171691895,0.26334530115127563,0.7004410028457642,9.09423828125,59.5703125,-77.08740234375
3.339484214782715,1578392532,0,0.15101489424705505,0.7083065509796143,0.8296688795089722,45.7763671875,-0.6103515625,-47.7294921875
3.3395493030548096,1578392551,0,0.13929614424705505,0.6943905353546143,0.8338192701339722,16.90673828125,22.216796875,-43.88427734375
3.361847162246704,1578392540,1,0.5140461921691895,0.13028866052627563,0.9108902215957642,-15.19775390625,70.98388671875,-80.6884765625
3.3691251277923584,1578392570,0,0.10438403487205505,0.6543514728546143,0.8531063795089722,-1.220703125,28.9306640625,-39.12353515625
3.383366346359253,1578392575,1,0.36267900466918945,-0.020590241998434067,1.0571304559707642,30.57861328125,48.03466796875,-27.28271484375
3.3834261894226074,1578392595,1,0.46912431716918945,0.19938045740127563,0.9506851434707642,54.931640625,28.62548828125,-10.07080078125
3.40970516204834,1578392589,0,0.08729419112205505,0.6589901447296143,0.7603329420089722,-8.7890625,21.17919921875,-27.16064453125
3.4097092151641846,1578392608,0,0.060194578021764755,0.6707088947296143,0.8052548170089722,-13.36669921875,24.84130859375,-20.44677734375
3.4161579608917236,1578392614,1,0.40491533279418945,0.24601131677627563,0.8764663934707642,53.64990234375,2.685546875,-32.04345703125
3.429636240005493,1578392627,0,0.11952075362205505,0.6780331134796143,0.7954891920089722,5.4931640625,26.85546875,-8.7890625
3.4441580772399902,1578392633,1,0.35388994216918945,0.11564022302627563,0.8391128778457642,57.6171875,27.16064453125,-45.22705078125
3.4442272186279297,1578392652,1,0.31775712966918945,0.15860897302627563,0.8181167840957642,84.8388671875,32.65380859375,-41.19873046875
3.4660611152648926,1578392663,0,-0.010850343853235245,0.6470272541046143,0.7679013013839722,19.83642578125,49.74365234375,1.220703125
3.4744420051574707,1578392671,1,0.34656572341918945,0.23063045740127563,0.8742691278457642,99.4873046875,26.4892578125,-19.95849609375
3.487767219543457,1578392682,0,-0.046250734478235245,0.6340878009796143,0.8167294263839722,27.89306640625,34.3017578125,0.67138671875
3.4878153800964355,1578392701,0,-0.007920656353235245,0.7522518634796143,0.7830380201339722,32.40966796875,10.92529296875,17.02880859375
3.513582229614258,1578392690,1,0.5189290046691895,0.37564998865127563,0.8854995965957642,120.91064453125,26.06201171875,-7.568359375
3.5143721103668213,1578392709,1,0.48328447341918945,0.36051326990127563,0.7326675653457642,113.4033203125,7.26318359375,-14.58740234375
3.5191941261291504,1578392720,0,-0.07847729325294495,0.6887753009796143,0.7801083326339722,20.32470703125,17.02880859375,33.38623046875
3.5344061851501465,1578392728,1,0.5499348640441895,0.24283748865127563,0.6027847528457642,75.927734375,-8.4228515625,-48.40087890625
3.5344393253326416,1578392747,1,0.39490556716918945,0.28385311365127563,0.7436538934707642,64.14794921875,-25.69580078125,-23.74267578125
3.5492072105407715,1578392739,0,0.06751880049705505,0.7151424884796143,0.8201473951339722,11.41357421875,4.82177734375,37.90283203125
3.549220085144043,1578392758,0,0.10340747237205505,0.6633846759796143,0.8196591138839722,-5.0048828125,6.77490234375,27.64892578125
3.565399169921875,1578392766,1,0.37390947341918945,0.7110992074012756,1.1181656122207642,38.63525390625,-32.53173828125,2.44140625
3.579069137573242,1578392777,0,0.13587817549705505,0.5833065509796143,0.8059872388839722,-1.03759765625,-3.2958984375,16.78466796875
3.592787981033325,1578392785,1,0.40003252029418945,0.35782772302627563,0.7746597528457642,16.54052734375,48.7060546875,-75.74462890625
3.5928399562835693,1578392804,1,0.46570634841918945,0.34122616052627563,0.8752456903457642,44.7998046875,79.58984375,-109.619140625
3.6162140369415283,1578392796,0,0.16175708174705505,0.6072323322296143,0.8345516920089722,17.27294921875,-8.60595703125,7.080078125
3.616220235824585,1578392815,0,0.18641528487205505,0.6597225666046143,0.7718075513839722,34.85107421875,-7.01904296875,6.16455078125
3.6257259845733643,1578392840,1,0.30945634841918945,0.46695858240127563,0.9187027215957642,18.00537109375,37.65869140625,-27.28271484375
3.6392462253570557,1578392834,0,0.19105395674705505,0.6885311603546143,0.7542294263839722,22.705078125,6.8359375,1.0986328125
3.6393280029296875,1578392853,0,0.21644458174705505,0.7112362384796143,0.8269833326339722,17.76123046875,-6.16455078125,4.150390625
3.6617112159729004,1578392859,1,0.30310869216918945,0.5118804574012756,0.8315445184707642,12.75634765625,33.935546875,-10.68115234375
3.6693310737609863,1578392872,0,0.16395434737205505,0.7268612384796143,0.6973446607589722,0.54931640625,5.92041015625,0.244140625
3.684434175491333,1578392878,1,0.49744462966918945,0.5973296761512756,0.8540054559707642,-5.31005859375,34.5458984375,-35.15625
3.684504270553589,1578392897,1,0.48255205154418945,0.5038238167762756,0.9042984247207642,-45.166015625,102.4169921875,-45.166015625
3.6986382007598877,1578392891,0,0.15199145674705505,0.6384823322296143,0.7312802076339722,-10.80322265625,22.03369140625,3.96728515625
3.7159671783447266,1578392916,1,0.30774736404418945,0.45475155115127563,0.8520523309707642,-57.6171875,141.54052734375,-41.19873046875
3.7295422554016113,1578392927,0,0.053358640521764755,0.5606014728546143,0.7664364576339722,-14.5263671875,12.26806640625,-22.76611328125
3.7443320751190186,1578392935,1,0.13074541091918945,0.39176326990127563,0.7929702997207642,-51.81884765625,132.38525390625,-42.3583984375
3.7443482875823975,1578392954,1,-0.11046552658081055,0.22745662927627563,0.7824722528457642,-22.4609375,88.56201171875,-28.1982421875
3.766641139984131,1578392946,0,0.15223559737205505,0.6921932697296143,0.7947567701339722,-3.47900390625,-17.08984375,-29.9072265625
3.766648054122925,1578392965,0,0.10829028487205505,0.7832577228546143,0.7415341138839722,-4.638671875,-29.72412109375,-24.59716796875
3.7744381427764893,1578392973,1,0.0013508833944797516,0.24674373865127563,0.8774429559707642,34.11865234375,5.06591796875,4.21142578125
3.788327217102051,1578392984,0,0.047743406146764755,0.8130428791046143,0.7764462232589722,-10.07080078125,-14.95361328125,-13.00048828125
3.788398265838623,1578393003,0,0.055800046771764755,0.7446835041046143,0.7957333326339722,-2.25830078125,5.92041015625,5.9814453125
3.8146212100982666,1578392992,1,0.23304033279418945,0.48380428552627563,0.9638687372207642,42.6025390625,4.94384765625,13.73291015625
3.8146262168884277,1578393011,1,0.25354814529418945,0.5182281136512756,0.8959976434707642,23.4375,28.01513671875,0.9765625
3.8190553188323975,1578393022,0,0.07777270674705505,0.6931698322296143,0.8128231763839722,3.173828125,9.6435546875,7.4462890625
3.834193229675293,1578393030,1,0.20472002029418945,0.5067535042762756,0.8684097528457642,9.521484375,34.60693359375,-4.5166015625
3.8342721462249756,1578393049,1,0.19031572341918945,0.41690975427627563,0.8962417840957642,8.60595703125,24.90234375,-5.55419921875
3.8502752780914307,1578393041,0,0.15345630049705505,0.6873104572296143,0.7791317701339722,5.92041015625,2.50244140625,-9.70458984375
3.861366033554077,1578393060,0,0.06483325362205505,0.6790096759796143,0.7000302076339722,11.962890625,20.99609375,-30.70068359375
3.866093158721924,1578393068,1,0.20642900466918945,0.47428280115127563,0.9038101434707642,7.4462890625,23.62060546875,7.4462890625
3.8792471885681152,1578393079,0,0.047743406146764755,0.7158749103546143,0.7383602857589722,19.22607421875,22.0947265625,-31.67724609375
3.893986225128174,1578393103,1,0.19300127029418945,0.49698787927627563,0.8745132684707642,6.9580078125,29.96826171875,7.26318359375
3.915879964828491,1578393098,0,0.052870359271764755,0.7212460041046143,0.7525204420089722,10.8642578125,13.5498046875,-23.4375
3.915886163711548,1578393117,0,0.09461840987205505,0.6995174884796143,0.7285946607589722,3.662109375,12.26806640625,-18.310546875
3.92399525642395,1578393123,1,0.15076494216918945,0.5245757699012756,0.8186050653457642,4.82177734375,18.24951171875,1.953125
3.939049005508423,1578393136,0,0.10926684737205505,0.6863338947296143,0.7244442701339722,1.15966796875,6.4697265625,-13.73291015625
3.9619972705841064,1578393142,1,0.14881181716918945,0.44303280115127563,0.8315445184707642,-0.48828125,-0.6103515625,-1.03759765625
3.962001323699951,1578393161,1,0.13269853591918945,0.38932186365127563,0.8825699090957642,8.30078125,2.99072265625,9.3994140625
3.969114303588867,1578393155,0,0.09779223799705505,0.6826717853546143,0.7283505201339722,-5.126953125,1.708984375,-18.4326171875
3.984164237976074,1578393180,1,0.17469072341918945,0.44938045740127563,0.8884292840957642,14.09912109375,14.892578125,22.64404296875
3.984234094619751,1578393199,1,0.24427080154418945,0.5380035042762756,0.8898941278457642,18.98193359375,15.380859375,16.357421875
3.9984030723571777,1578393191,0,-0.005723390728235245,0.7092831134796143,0.7671688795089722,-9.521484375,-0.9765625,-5.43212890625
3.9984850883483887,1578393210,0,0.045301999896764755,0.7048885822296143,0.7205380201339722,-8.11767578125,4.82177734375,8.4228515625
4.015404224395752,1578393218,1,0.15589189529418945,0.5304351449012756,0.8515640497207642,10.8642578125,9.3994140625,1.708984375
4.029047250747681,1578393229,0,0.059218015521764755,0.7100155353546143,0.7403134107589722,-6.53076171875,8.4228515625,10.31494140625
4.044182062149048,1578393237,1,0.09534502029418945,0.5094390511512756,0.8579117059707642,3.47900390625,6.2255859375,-15.869140625
4.044258117675781,1578393256,1,0.11438798904418945,0.43277889490127563,0.9116226434707642,-1.52587890625,7.87353515625,-14.34326171875
4.066583156585693,1578393248,0,0.057753171771764755,0.7046444416046143,0.7766903638839722,-11.23046875,5.126953125,14.5263671875
4.0665881633758545,1578393267,0,0.032118406146764755,0.7195370197296143,0.7762020826339722,-22.27783203125,1.15966796875,14.892578125
4.074467182159424,1578393275,1,0.14954423904418945,0.48502498865127563,0.9028335809707642,-4.150390625,22.64404296875,-13.00048828125
4.089125156402588,1578393286,0,0.045790281146764755,0.6743710041046143,0.7635067701339722,-27.2216796875,-4.5166015625,18.24951171875
4.11190128326416,1578393294,1,0.20301103591918945,0.5643706917762756,0.9365249872207642,-12.20703125,29.23583984375,-22.03369140625
4.111906051635742,1578393313,1,0.25525712966918945,0.48819881677627563,0.9736343622207642,-28.13720703125,43.9453125,-33.26416015625
4.119268178939819,1578393305,0,0.038466062396764755,0.6912167072296143,0.7139462232589722,-32.71484375,4.82177734375,16.2353515625
4.1193060874938965,1578393324,0,0.08851489424705505,0.6763241291046143,0.7071102857589722,-35.33935546875,5.7373046875,22.0947265625
4.134031295776367,1578393332,1,0.06360673904418945,0.48185116052627563,0.9494644403457642,-38.75732421875,102.47802734375,-38.87939453125
4.14934515953064,1578393343,0,0.10047778487205505,0.6489803791046143,0.6531552076339722,-38.9404296875,9.1552734375,21.728515625
4.149381160736084,1578393362,0,0.050917234271764755,0.6111385822296143,0.6568173170089722,-44.49462890625,15.625,20.99609375
4.16666316986084,1578393368,1,-0.05528974160552025,0.37980037927627563,0.9523941278457642,-33.5693359375,86.97509765625,-40.34423828125
4.179298162460327,1578393381,0,0.06385669112205505,0.5186092853546143,0.6341122388839722,-56.09130859375,27.587890625,22.27783203125
4.194130182266235,1578393387,1,-0.01720380410552025,0.44352108240127563,0.8288589715957642,-23.0712890625,47.8515625,-41.259765625
4.194201231002808,1578393406,1,0.08557939529418945,0.38370662927627563,0.8417984247207642,-14.58740234375,38.75732421875,-58.7158203125
4.213463068008423,1578393400,0,0.08509692549705505,0.44146084785461426,0.6399716138839722,-76.171875,36.19384765625,10.68115234375
4.213468313217163,1578393419,0,0.08070239424705505,0.44219326972961426,0.6931942701339722,-98.69384765625,41.1376953125,0.0
4.224093198776245,1578393425,1,0.03455400839447975,0.49967342615127563,1.0388199090957642,-11.474609375,44.921875,-41.259765625
4.26143217086792,1578393444,1,-0.02770185098052025,0.38443905115127563,1.0300308465957642,-17.88330078125,63.8427734375,-28.01513671875
4.262375354766846,1578393463,1,-0.07872724533081055,0.44474178552627563,0.9582535028457642,-33.3251953125,103.33251953125,-36.68212890625
4.269138336181641,1578393455,0,0.40931567549705505,0.47515225410461426,0.7500790357589722,-130.67626953125,88.8671875,-50.048828125
4.2692060470581055,1578393474,0,0.17298755049705505,0.31377530097961426,0.8660458326339722,-132.8125,137.0849609375,-41.32080078125
4.28416109085083,1578393482,1,-0.13805341720581055,0.39884334802627563,0.8835464715957642,-55.11474609375,99.67041015625,-33.69140625
4.2975852489471436,1578393493,0,0.16786059737205505,0.18047453463077545,1.0242489576339722,-124.45068359375,134.765625,-9.27734375
4.297671318054199,1578393512,0,0.13221606612205505,0.16655851900577545,1.0281552076339722,-116.39404296875,123.35205078125,-16.17431640625
4.31520414352417,1578393501,1,-0.21080732345581055,0.40397030115127563,0.9489761590957642,-68.4814453125,85.693359375,-36.31591796875
4.315209150314331,1578393520,1,-0.25817060470581055,0.16422420740127563,1.0717788934707642,-63.96484375,100.03662109375,-27.16064453125
4.32789421081543,1578393531,0,0.17420825362205505,0.08013273775577545,1.0303524732589722,-95.39794921875,86.181640625,-33.75244140625
4.342560052871704,1578393539,1,-0.25719404220581055,0.35929256677627563,0.9436050653457642,-71.2890625,120.1171875,-3.90625
4.342638254165649,1578393558,1,-0.43785810470581055,-0.026449616998434067,0.6818863153457642,-84.3505859375,89.17236328125,13.12255859375
4.364035129547119,1578393550,0,0.18958911299705505,0.17803312838077545,1.1004208326339722,-52.06298828125,72.265625,-58.2275390625
4.36404013633728,1578393569,0,-0.09703198075294495,0.5625545978546143,1.4663876295089722,-9.3994140625,52.8564453125,-64.14794921875
4.372849225997925,1578393577,1,-0.5154948234558105,-0.22981876134872437,0.5759292840957642,-79.4677734375,3.72314453125,153.9306640625
4.387840032577515,1578393588,0,-0.37266674637794495,0.37627530097961426,2.0440244674682617,-23.193359375,-33.935546875,-53.77197265625
4.41195011138916,1578393596,1,-0.20275068283081055,-0.04280703887343407,0.7133804559707642,-21.3623046875,-93.32275390625,151.9775390625
4.417569160461426,1578393607,0,-0.48008862137794495,0.7400448322296143,1.3885067701339722,-46.44775390625,-21.54541015625,-11.90185546875
4.417603254318237,1578393626,0,-0.10337963700294495,0.6209042072296143,1.1873348951339722,-48.2177734375,-47.8515625,-57.373046875
4.432715177536011,1578393631,1,-0.05333661660552025,0.19449764490127563,0.7092300653457642,-9.70458984375,-115.234375,31.18896484375
4.449055194854736,1578393645,0,0.07215747237205505,0.6050350666046143,0.9480770826339722,-43.701171875,-79.4677734375,-85.693359375
4.469051122665405,1578393651,1,-0.40026044845581055,0.17667537927627563,0.6357437372207642,-15.5029296875,-157.40966796875,24.84130859375
4.469057083129883,1578393670,1,0.8104329109191895,1.9545074701309204,2.0969254970550537,-126.0986328125,-301.513671875,47.54638671875
4.477736949920654,1578393664,0,0.08924731612205505,0.38237881660461426,1.0616024732589722,-57.67822265625,-55.11474609375,-94.78759765625
4.477771043777466,1578393683,0,-0.14634838700294495,0.30816006660461426,0.6189755201339722,25.08544921875,-34.36279296875,-32.8369140625
4.493901252746582,1578393689,1,0.21546220779418945,0.23233944177627563,0.9455581903457642,-198.30322265625,-117.1875,191.83349609375
4.493908166885376,1578393708,1,0.23572587966918945,0.09049373865127563,0.7390152215957642,-182.67822265625,-130.0048828125,84.228515625
4.514926195144653,1578393719,0,0.07704028487205505,0.5466854572296143,0.8408993482589722,-44.00634765625,-92.529296875,30.33447265625
4.522487163543701,1578393727,1,0.39807939529418945,0.018960539251565933,0.6774917840957642,-7.2021484375,-83.3740234375,-3.35693359375
4.537662982940674,1578393738,0,-0.06797924637794495,0.29692959785461426,1.1504696607589722,-45.654296875,-8.23974609375,-27.587890625
4.560976266860962,1578393746,1,0.5067219734191895,0.45597225427627563,1.1555191278457642,-23.13232421875,-100.341796875,-57.92236328125
4.560981035232544,1578393765,1,0.21790361404418945,0.23453670740127563,1.0351577997207642,-44.61669921875,-62.07275390625,-44.73876953125
4.567759275436401,1578393757,0,-0.18028393387794495,0.21099211275577545,1.0911434888839722,-35.7666015625,-25.2685546875,-36.7431640625
4.567779064178467,1578393776,0,-0.15147534012794495,0.17339445650577545,1.0869930982589722,-24.90234375,3.7841796875,-46.32568359375
4.583033084869385,1578393784,1,0.12757158279418945,0.20865780115127563,1.2084976434707642,-35.09521484375,-22.03369140625,-115.966796875
4.597659349441528,1578393795,0,-0.29527416825294495,0.27422451972961426,0.9170712232589722,-9.21630859375,-5.55419921875,-33.75244140625
4.615626096725464,1578393803,1,0.12073564529418945,0.15519100427627563,0.6809097528457642,-37.17041015625,-24.47509765625,-170.71533203125
4.6156322956085205,1578393822,1,0.25281572341918945,-0.08211368322372437,0.48047029972076416,-9.46044921875,-20.93505859375,-208.0078125
4.6278181076049805,1578393814,0,-0.051621828228235245,0.42583584785461426,1.0972470045089722,-29.78515625,19.34814453125,-21.8505859375
4.627848148345947,1578393833,0,-0.18785229325294495,0.17559172213077545,0.6367977857589722,-28.1982421875,36.376953125,15.68603515625
4.64298415184021,1578393841,1,0.7142415046691895,0.005288664251565933,1.0979019403457642,-55.96923828125,-23.681640625,-158.87451171875
4.666185140609741,1578393852,0,-0.061875734478235245,0.29717373847961426,1.2242001295089722,-24.7802734375,-8.72802734375,17.9443359375
4.666190147399902,1578393871,0,-0.13707104325294495,0.14800383150577545,1.0313290357589722,-46.9970703125,4.638671875,7.2021484375
4.674479246139526,1578393860,1,0.5199055671691895,0.10050350427627563,0.9304214715957642,-36.0107421875,-31.18896484375,-60.11962890625
4.689213991165161,1578393890,0,-0.06846752762794495,0.11870695650577545,1.0523251295089722,-52.3681640625,25.146484375,-12.63427734375
4.711524248123169,1578393895,1,0.07727861404418945,0.07926326990127563,0.9970718622207642,-54.38232421875,23.62060546875,-2.13623046875
4.711531162261963,1578393915,1,0.06189775839447975,0.21695858240127563,0.8037124872207642,-65.4296875,-37.41455078125,-23.4375
4.7178733348846436,1578393909,0,0.038954343646764755,0.24907805025577545,1.0606259107589722,-38.39111328125,57.12890625,-21.05712890625
4.717927932739258,1578393928,0,0.20326098799705505,0.33330655097961426,1.0628231763839722,-22.0947265625,116.3330078125,-24.47509765625
4.734155178070068,1578393934,1,0.40442705154418945,0.23697811365127563,0.8408218622207642,-106.5673828125,-60.11962890625,9.70458984375
4.7607262134552,1578393947,0,-0.29576244950294495,0.22490812838077545,1.1822079420089722,-15.380859375,159.66796875,-33.87451171875
4.766544342041016,1578393953,1,0.43567705154418945,-0.08235782384872437,0.9531265497207642,-103.82080078125,-96.86279296875,31.67724609375
4.766548156738281,1578393972,1,0.04309893026947975,-0.17879337072372437,1.0126968622207642,-104.91943359375,-123.4130859375,-23.62060546875
4.7791571617126465,1578393983,0,-0.27183666825294495,-0.009222734719514847,1.1126278638839722,-12.939453125,49.4384765625,-24.658203125
4.79403018951416,1578393991,1,-0.04405927285552025,-0.24226993322372437,0.7087417840957642,-138.671875,-331.48193359375,-24.90234375
4.816526174545288,1578394002,0,-0.25303784012794495,0.11797453463077545,0.9585751295089722,6.89697265625,-38.6962890625,1.15966796875
4.816532135009766,1578394021,0,-0.41758862137794495,0.09722258150577545,0.9920223951339722,9.765625,-62.98828125,-0.42724609375
4.822829246520996,1578394010,1,0.9078450202941895,-0.22933048009872437,0.9326187372207642,-91.36962890625,-254.7607421875,-48.095703125
4.8228442668914795,1578394029,1,1.0208821296691895,-0.5525726675987244,0.9685074090957642,-35.58349609375,-106.62841796875,-76.416015625
4.839490175247192,1578394040,0,-0.06773510575294495,0.08403898775577545,1.0642880201339722,1.708984375,-60.4248046875,1.40380859375
4.8621602058410645,1578394048,1,0.6610188484191895,-0.31917423009872437,0.8308120965957642,34.72900390625,62.19482421875,-17.51708984375
4.862166166305542,1578394067,1,0.38025712966918945,-0.10994571447372437,0.8415542840957642,42.724609375,36.7431640625,-14.0380859375
4.869171142578125,1578394059,0,-0.11558666825294495,0.15483976900577545,1.0894345045089722,-6.103515625,-83.92333984375,33.38623046875
4.869199275970459,1578394078,0,-0.22081127762794495,0.20440031588077545,1.0677059888839722,-11.1083984375,-65.91796875,25.69580078125
4.884164094924927,1578394086,1,0.6366047859191895,-0.06404727697372437,1.0632339715957642,31.8603515625,18.9208984375,-10.1318359375
4.899025201797485,1578394097,0,-0.16636791825294495,0.19927336275577545,1.1309384107589722,-4.7607421875,-41.07666015625,-3.23486328125
4.916163206100464,1578394105,1,0.6358723640441895,-0.12239688634872437,0.8615738153457642,33.99658203125,58.837890625,-28.076171875
4.916445255279541,1578394124,1,0.46570634841918945,-0.09163516759872437,0.8530288934707642,23.98681640625,44.86083984375,-31.43310546875
4.929400205612183,1578394116,0,0.14979419112205505,0.14727140963077545,1.0930966138839722,-2.86865234375,-45.59326171875,-0.79345703125
4.929434299468994,1578394135,0,0.10389575362205505,0.25713467597961426,1.1316708326339722,7.99560546875,-5.4931640625,4.0283203125
4.963419198989868,1578394154,0,-0.013291750103235245,0.24175383150577545,1.1316708326339722,16.17431640625,6.04248046875,17.27294921875
4.964889287948608,1578394173,0,0.10218676924705505,0.12554289400577545,0.9776180982589722,11.5966796875,-0.06103515625,21.8505859375
4.974271059036255,1578394159,1,0.36975908279418945,-0.04988711699843407,0.8796402215957642,1.708984375,-37.9638671875,10.19287109375
4.974281072616577,1578394179,1,0.33045244216918945,-0.12581485509872437,0.9262710809707642,-22.705078125,-66.7724609375,17.88330078125
4.989482164382935,1578394192,0,0.062391843646764755,-0.24970124661922455,0.6585263013839722,-19.53125,25.57373046875,-19.47021484375
5.013324022293091,1578394198,1,0.7611165046691895,0.008462492376565933,0.7260757684707642,-11.474609375,-48.27880859375,49.1943359375
5.0133302211761475,1578394217,1,0.7620930671691895,0.17008358240127563,0.9594742059707642,23.25439453125,-21.728515625,2.62451171875
5.019460201263428,1578394211,0,-0.11998119950294495,0.19683195650577545,1.0281552076339722,-45.10498046875,13.48876953125,8.72802734375
5.033977270126343,1578394236,1,0.5589680671691895,-0.08260196447372437,0.8115249872207642,27.7099609375,-24.59716796875,1.5869140625
5.060025215148926,1578394247,0,0.0013566873967647552,0.16729094088077545,1.0200985670089722,-40.83251953125,35.64453125,-7.32421875
5.066344976425171,1578394255,1,0.5299153327941895,-0.11311954259872437,0.7551285028457642,25.390625,-42.05322265625,7.2021484375
5.066350221633911,1578394274,1,0.42688798904418945,-0.03279727324843407,0.49072420597076416,-16.41845703125,-88.37890625,7.26318359375
5.079128265380859,1578394266,0,-0.12437573075294495,0.11480070650577545,1.0735653638839722,-24.4140625,43.64013671875,6.40869140625
5.079192161560059,1578394285,0,-0.051621828228235245,-0.26508212089538574,0.6426571607589722,-15.93017578125,42.41943359375,-3.173828125
5.093928098678589,1578394293,1,0.8494954109191895,0.04117733612656593,0.9982925653457642,32.16552734375,-49.86572265625,56.45751953125
5.115286111831665,1578394304,0,-0.29942455887794495,0.018853437155485153,1.0525692701339722,2.3193359375,12.20703125,-11.5966796875
5.115291357040405,1578394323,0,-0.17295971512794495,0.07988859713077545,0.9649227857589722,-6.4697265625,29.78515625,-25.32958984375
5.1234071254730225,1578394312,1,0.9034504890441895,-0.07015079259872437,0.7705093622207642,23.25439453125,-7.50732421875,20.5078125
5.123439311981201,1578394331,1,0.8802571296691895,-0.05940860137343407,0.7377945184707642,-14.16015625,42.724609375,-44.61669921875
5.140623092651367,1578394342,0,-0.23106518387794495,0.05181242153048515,1.0393856763839722,-0.67138671875,8.9111328125,-30.76171875
5.163192272186279,1578394350,1,0.46839189529418945,-0.04305117949843407,0.8166519403457642,-21.30126953125,112.060546875,-38.330078125
5.163199186325073,1578394369,1,0.08631181716918945,-0.26790469884872437,0.8718277215957642,-34.36279296875,61.767578125,-37.78076171875
5.169183015823364,1578394361,0,-0.17149487137794495,0.04912687465548515,0.9964169263839722,-4.7607421875,-27.03857421875,-14.34326171875
5.169216156005859,1578394380,0,-0.38609448075294495,-0.012396562844514847,0.9485653638839722,-8.60595703125,-49.25537109375,-8.4228515625
5.184030055999756,1578394388,1,0.6378254890441895,0.022622648626565933,0.9653335809707642,-30.8837890625,12.63427734375,-60.546875
5.1984922885894775,1578394399,0,-0.25352612137794495,-0.010443437844514847,1.0017880201339722,2.197265625,-46.81396484375,-10.92529296875
5.215681076049805,1578394423,1,0.6605305671691895,-0.17488712072372437,0.7895523309707642,-29.4189453125,61.279296875,-115.05126953125
5.228240251541138,1578394418,0,-0.32286205887794495,0.05767179653048515,0.9468563795089722,16.357421875,-69.27490234375,1.89208984375
5.228253364562988,1578394437,0,0.18080005049705505,0.41509366035461426,0.5327938795089722,27.03857421875,-147.5830078125,46.08154296875
5.242751121520996,1578394443,1,0.6912922859191895,-0.29329532384872437,0.5874038934707642,-12.451171875,79.28466796875,-151.91650390625
5.2646801471710205,1578394456,0,0.35633715987205505,0.14116789400577545,0.7459286451339722,12.75634765625,-10.80322265625,21.30126953125
5.272586107254028,1578394462,1,0.8819661140441895,-0.34261173009872437,0.6601577997207642,1.220703125,143.49365234375,-167.8466796875
5.272621154785156,1578394481,1,0.7230305671691895,-0.09627383947372437,0.5646988153457642,31.25,335.75439453125,-126.0986328125
5.287753105163574,1578394475,0,-0.036240968853235245,0.16509367525577545,1.3511532545089722,-18.5546875,2.13623046875,11.962890625
5.311475038528442,1578394500,1,0.31531572341918945,0.11417537927627563,0.7626968622207642,56.2744140625,485.4736328125,-40.283203125
5.318325042724609,1578394511,0,0.33363208174705505,0.22515226900577545,0.8135555982589722,-52.978515625,13.00048828125,-11.04736328125
5.318329095840454,1578394530,0,0.07972583174705505,0.18682219088077545,0.9991024732589722,-31.6162109375,-6.04248046875,21.66748046875
5.332803249359131,1578394519,1,-0.5289225578308105,0.19962459802627563,0.6926285028457642,92.83447265625,330.26123046875,65.73486328125
5.3329033851623535,1578394538,1,-0.5884928703308105,0.18253475427627563,0.6562515497207642,21.42333984375,36.68212890625,128.173828125
5.347523212432861,1578394549,0,-0.29454174637794495,0.33013272285461426,1.6577938795089722,18.798828125,31.06689453125,18.00537109375
5.366490125656128,1578394557,1,0.12732744216918945,-0.030355866998434067,0.9326187372207642,18.4326171875,-36.376953125,88.19580078125
5.366495132446289,1578394576,1,-0.04235028848052025,0.15250545740127563,0.7543960809707642,2.74658203125,35.70556640625,21.78955078125
5.377618312835693,1578394568,0,-0.29576244950294495,0.09014250338077545,1.2576473951339722,34.912109375,12.20703125,25.87890625
5.377700090408325,1578394587,0,0.12684497237205505,-0.07465241849422455,0.6934384107589722,41.68701171875,-79.2236328125,41.6259765625
5.392385244369507,1578394595,1,0.18616533279418945,-0.0025238357484340668,0.8225113153457642,-1.3427734375,4.21142578125,9.70458984375
5.414766073226929,1578394606,0,-0.28257885575294495,0.11919523775577545,1.4702938795089722,17.51708984375,-127.25830078125,60.6689453125
5.4226202964782715,1578394614,1,0.32459306716918945,-0.024008210748434067,1.6096206903457642,30.1513671875,43.76220703125,-43.02978515625
5.422697067260742,1578394633,1,0.7542805671691895,0.40885311365127563,1.2675796747207642,74.951171875,-36.19384765625,-11.04736328125
5.43792724609375,1578394625,0,0.10999926924705505,-0.26752352714538574,0.6687802076339722,14.404296875,-241.76025390625,94.17724609375
5.437995195388794,1578394644,0,-0.12535229325294495,0.7871639728546143,1.6082333326339722,16.41845703125,-305.2978515625,101.62353515625
5.462427139282227,1578394652,1,-0.6055827140808105,-0.48323673009872437,0.17334139347076416,104.00390625,-77.08740234375,48.03466796875
5.469284296035767,1578394663,0,0.21351489424705505,-0.16693757474422455,0.20393648743629456,-15.2587890625,-380.7373046875,119.68994140625
5.469333171844482,1578394682,0,0.5020890831947327,0.18535734713077545,0.7805966138839722,-55.23681640625,-295.47119140625,104.98046875
5.48399019241333,1578394688,1,0.03894853964447975,0.10611873865127563,0.9472671747207642,41.259765625,-13.85498046875,-45.41015625
5.499179124832153,1578394701,0,0.5387101769447327,-0.08002351224422455,1.2325009107589722,-111.38916015625,-141.41845703125,96.5576171875
5.516996145248413,1578394707,1,0.22742509841918945,0.07315975427627563,0.9086929559707642,14.2822265625,-15.68603515625,-1.953125
5.517003059387207,1578394726,1,0.5079426765441895,0.28434139490127563,0.9116226434707642,1.3427734375,-23.86474609375,6.04248046875
5.5292580127716064,1578394720,0,0.26331958174705505,-0.48920321464538574,0.8565243482589722,-145.69091796875,-64.697265625,75.25634765625
5.529346227645874,1578394739,0,0.22962817549705505,-0.5841739177703857,0.27669039368629456,-61.03515625,-190.4296875,124.08447265625
5.544435024261475,1578394745,1,0.32410478591918945,0.18717342615127563,0.8298355340957642,-34.11865234375,2.50244140625,12.451171875
5.57253623008728,1578394764,1,-0.02135419473052025,0.10929256677627563,0.5878921747207642,-51.025390625,-31.79931640625,30.33447265625
5.575751304626465,1578394783,1,0.08924150466918945,0.06803280115127563,0.6704117059707642,-60.11962890625,-99.7314453125,44.677734375
5.589288949966431,1578394775,0,1.0997453927993774,0.39165616035461426,0.8990048170089722,-71.4111328125,-133.7890625,79.7119140625
5.5893943309783936,1578394794,0,0.8018937706947327,-0.009711015969514847,1.0459774732589722,-8.30078125,-59.9365234375,-1.89208984375
5.612921237945557,1578394802,1,0.25281572341918945,0.03800350800156593,0.6987320184707642,-59.326171875,-140.44189453125,43.27392578125
5.6191041469573975,1578394813,0,1.0203996896743774,-0.25018954277038574,1.1087216138839722,95.15380859375,-83.6181640625,25.2685546875
5.619176149368286,1578394832,0,0.8534074425697327,-0.42182040214538574,1.0567196607589722,100.341796875,-105.5908203125,18.85986328125
5.634304046630859,1578394821,1,0.25525712966918945,-0.22444766759872437,0.9125992059707642,-39.00146484375,-128.96728515625,37.9638671875
5.634335041046143,1578394840,1,0.32117509841918945,-0.19270938634872437,0.9196792840957642,-23.98681640625,-65.73486328125,21.6064453125
5.650276184082031,1578394851,0,0.9369035363197327,-0.09076569974422455,0.6177548170089722,111.2060546875,-119.140625,23.25439453125
5.66754937171936,1578394859,1,0.09265947341918945,-0.008871491998434067,0.9116226434707642,24.47509765625,-46.69189453125,7.75146484375
5.667555093765259,1578394878,1,-0.09606122970581055,-0.04353946074843407,0.9257827997207642,82.82470703125,-111.6943359375,-0.9765625
5.679405212402344,1578394870,0,1.1485735177993774,-0.16547273099422455,0.34749117493629456,119.384765625,-47.54638671875,2.44140625
5.679516315460205,1578394889,0,1.0157610177993774,-0.18744538724422455,0.42024508118629456,96.0693359375,11.04736328125,-44.73876953125
5.69411826133728,1578394897,1,-0.03966474160552025,0.07096248865127563,0.9797378778457642,97.10693359375,-185.72998046875,-18.37158203125
5.716224193572998,1578394908,0,0.9803605675697327,-0.21845124661922455,0.43440523743629456,80.26123046875,25.7568359375,-39.4287109375
5.724164247512817,1578394916,1,0.5982747077941895,0.009683195501565933,1.0886245965957642,119.7509765625,-216.49169921875,-63.17138671875
5.738811254501343,1578394927,0,0.8748918175697327,-0.19843171536922455,0.33357515931129456,51.7578125,42.8466796875,-33.75244140625
5.7388763427734375,1578394946,0,0.6891008019447327,-0.24896882474422455,0.39754000306129456,8.544921875,86.97509765625,-44.00634765625
5.763219118118286,1578394951,1,0.9180989265441895,0.16031795740127563,1.1469742059707642,147.76611328125,-53.7109375,-7.6904296875
5.769049167633057,1578394965,0,0.6737199425697327,-0.19525788724422455,0.45442476868629456,-16.357421875,111.328125,-44.677734375
5.784259080886841,1578394971,1,0.7630696296691895,0.38858944177627563,1.1469742059707642,108.0322265625,-8.056640625,48.27880859375
5.7843053340911865,1578394990,1,0.7511067390441895,0.6088042855262756,0.9475113153457642,78.30810546875,14.22119140625,59.9365234375
5.81064510345459,1578394984,0,0.5111222863197327,-0.11933015286922455,0.5401180982589722,-25.69580078125,93.44482421875,-46.875
5.810654163360596,1578395003,0,0.8026261925697327,-0.17792390286922455,0.43660250306129456,-26.2451171875,106.5673828125,-46.44775390625
5.815745115280151,1578395009,1,0.6961750984191895,0.6412749886512756,0.7199722528457642,2.0751953125,76.47705078125,-24.10888671875
5.815751314163208,1578395028,1,0.43933916091918945,0.19645076990127563,0.5654312372207642,-81.48193359375,36.62109375,-83.92333984375
5.829415321350098,1578395039,0,0.48646411299705505,0.05498624965548515,0.6131161451339722,-2.62451171875,534.11865234375,-155.76171875
5.842938184738159,1578395047,1,0.20423173904418945,0.31485897302627563,0.8642593622207642,-47.7294921875,-18.85986328125,-35.7666015625
5.865634202957153,1578395058,0,0.7330461144447327,-0.09320710599422455,0.7679013013839722,-31.18896484375,640.44189453125,-205.6884765625
5.874547004699707,1578395066,1,0.6427083015441895,0.8077788949012756,0.20141756534576416,29.47998046875,-16.90673828125,5.18798828125
5.87463116645813,1578395085,1,0.7540364265441895,0.5489898324012756,0.9265152215957642,-39.0625,10.55908203125,-36.31591796875
5.889380216598511,1578395077,0,-0.16783276200294495,-0.23969148099422455,0.48958101868629456,-113.1591796875,518.24951171875,-221.74072265625
5.889430046081543,1578395096,0,-1.7081159353256226,0.6343319416046143,1.8596981763839722,-127.44140625,29.72412109375,-163.14697265625
5.912267208099365,1578395104,1,1.5858235359191895,-0.12190860509872437,0.27417147159576416,-164.97802734375,26.55029296875,-151.79443359375
5.920326232910156,1578395115,0,0.07508715987205505,-0.46820712089538574,0.8255184888839722,-157.04345703125,-23.4375,-118.5302734375
5.934159278869629,1578395123,1,0.24207353591918945,-0.23787540197372437,0.5200210809707642,-152.77099609375,221.25244140625,-200.01220703125
5.934189081192017,1578395142,1,0.24768877029418945,-0.05721133574843407,0.5803238153457642,-36.4990234375,58.4716796875,-177.55126953125
5.94763708114624,1578395134,0,0.008925046771764755,-0.37128329277038574,1.1638973951339722,-200.98876953125,-15.19775390625,-80.99365234375
5.947713136672974,1578395153,0,0.018446531146764755,-0.24042390286922455,0.8008602857589722,-102.4169921875,-108.82568359375,44.3115234375
5.966439247131348,1578395161,1,0.5943684577941895,0.13834530115127563,0.9646011590957642,13.97705078125,-28.62548828125,-89.41650390625
5.979510068893433,1578395172,0,-0.21421948075294495,-0.40595126152038574,0.7681454420089722,-32.77587890625,-36.56005859375,62.43896484375
5.9795472621917725,1578395191,0,-0.09922924637794495,-0.5172793865203857,1.0813778638839722,35.5224609375,-88.43994140625,105.224609375
5.994035005569458,1578395180,1,0.47010087966918945,0.12980037927627563,0.8859878778457642,68.66455078125,-27.16064453125,17.51708984375
6.01725435256958,1578395210,0,0.055800046771764755,-0.6134707927703857,1.0249813795089722,118.83544921875,-100.52490234375,160.400390625
6.022563219070435,1578395215,1,-0.01622724160552025,0.26285701990127563,1.3869644403457642,-18.49365234375,-32.2265625,70.86181640625
6.022628307342529,1578395235,1,0.6605305671691895,0.6285796761512756,0.41430819034576416,-65.00244140625,-132.8125,12.0849609375
6.039395093917847,1578395229,0,0.16395434737205505,-0.10077546536922455,1.1089657545089722,193.4814453125,-279.47998046875,241.14990234375
6.039452314376831,1578395248,0,0.8101945519447327,-0.04144929721951485,1.3098934888839722,202.45361328125,-280.6396484375,235.83984375
6.063611268997192,1578395254,1,0.6246418952941895,0.15372616052627563,0.24804842472076416,-89.17236328125,-72.93701171875,-38.57421875
6.069201231002808,1578395267,0,1.3375383615493774,0.33379483222961426,1.3074520826339722,142.2119140625,-114.013671875,121.2158203125
6.084335088729858,1578395273,1,0.7269368171691895,-0.06526798009872437,0.5046402215957642,-19.53125,-65.185546875,3.7841796875
6.084423303604126,1578395292,1,0.9283528327941895,0.07950741052627563,0.7937027215957642,59.26513671875,-34.5458984375,19.83642578125
6.109914302825928,1578395303,0,0.5184465050697327,0.08599211275577545,0.8467587232589722,49.13330078125,-19.4091796875,-18.49365234375
6.115344285964966,1578395311,1,0.8927083015441895,0.21988826990127563,0.8266617059707642,108.82568359375,-4.0283203125,11.29150390625
6.129507064819336,1578395322,0,0.5233293175697327,0.13799406588077545,0.8323544263839722,49.74365234375,-39.97802734375,-3.0517578125
6.129606246948242,1578395341,0,0.32679614424705505,0.29375576972961426,0.8821591138839722,34.423828125,-63.53759765625,4.8828125
6.144242286682129,1578395330,1,0.8094563484191895,0.46720272302627563,0.8586441278457642,92.1630859375,13.12255859375,-5.55419921875
6.144343137741089,1578395349,1,0.5084309577941895,0.28678280115127563,0.9643570184707642,17.08984375,25.0244140625,81.1767578125
6.166015148162842,1578395360,0,0.33070239424705505,0.20757414400577545,0.8438290357589722,2.8076171875,-73.6083984375,-12.20703125
6.1742682456970215,1578395368,1,0.7293782234191895,0.6637359261512756,0.8942886590957642,1.40380859375,39.6728515625,91.4306640625
6.174312114715576,1578395387,1,0.45935869216918945,0.21256405115127563,0.6831070184707642,-63.29345703125,127.25830078125,122.49755859375
6.189276218414307,1578395379,0,-0.06993237137794495,0.33037686347961426,0.8516415357589722,-33.935546875,-76.5380859375,-20.01953125
6.189369201660156,1578395398,0,0.5921769738197327,-0.021429765969514847,0.9387997388839722,-93.32275390625,-35.70556640625,29.11376953125
6.212716102600098,1578395406,1,0.38147783279418945,-0.43685001134872437,0.46826326847076416,-133.23974609375,102.84423828125,92.95654296875
6.219603061676025,1578395417,0,1.0995012521743774,-0.27924227714538574,0.7246884107589722,-133.6669921875,-7.38525390625,66.58935546875
6.234260082244873,1578395425,1,0.9215168952941895,-0.7083343863487244,0.37646639347076416,-95.52001953125,86.5478515625,52.18505859375
6.234339237213135,1578395444,1,0.48597002029418945,0.13321834802627563,0.6484390497207642,-36.1328125,75.5615234375,-7.14111328125
6.250202178955078,1578395436,0,0.9027238488197327,-0.5160586833953857,0.48201265931129456,-159.0576171875,41.44287109375,105.46875
6.26020622253418,1578395455,0,0.6800675988197327,-0.07245515286922455,0.9663876295089722,-144.6533203125,23.3154296875,47.30224609375
6.277206182479858,1578395474,0,0.18690356612205505,-0.35932040214538574,0.8926571607589722,-114.19677734375,118.1640625,-61.46240234375
6.278890132904053,1578395493,0,0.39222583174705505,-0.5680606365203857,1.0078915357589722,-59.2041015625,97.412109375,-91.1865234375
6.294081211090088,1578395479,1,0.43689775466918945,1.0358062982559204,0.8247085809707642,16.90673828125,-54.0771484375,-9.70458984375
6.294137239456177,1578395499,1,0.7884602546691895,0.24845272302627563,0.9189468622207642,11.71875,-71.35009765625,17.822265625
6.317279100418091,1578395512,0,0.35145434737205505,-0.48456454277038574,1.2237118482589722,1.15966796875,96.8017578125,-72.6318359375
6.324218273162842,1578395518,1,0.8297200202941895,0.22550350427627563,0.7827163934707642,-13.671875,2.8076171875,38.2080078125
6.3243021965026855,1578395537,1,0.7469563484191895,0.33341366052627563,0.8149429559707642,-27.64892578125,100.40283203125,21.54541015625
6.339085102081299,1578395531,0,0.33070239424705505,-0.23529694974422455,1.2598446607589722,36.865234375,129.7607421875,-36.9873046875
6.36391806602478,1578395556,1,0.5472493171691895,0.34806209802627563,0.8271499872207642,-58.2275390625,80.62744140625,51.26953125
6.368375062942505,1578395567,0,0.30018481612205505,-0.18231843411922455,1.1033505201339722,42.1142578125,133.72802734375,4.33349609375
6.382562160491943,1578395575,1,0.6749348640441895,0.27945858240127563,0.8344742059707642,-130.79833984375,78.9794921875,76.35498046875
6.382642984390259,1578395594,1,0.6949543952941895,0.09269100427627563,0.8344742059707642,-152.099609375,100.76904296875,19.71435546875
6.397816181182861,1578395586,0,0.20448169112205505,-0.18646882474422455,0.9766415357589722,52.8564453125,123.84033203125,7.87353515625
6.397914171218872,1578395605,0,0.22425708174705505,-0.12665437161922455,0.9273251295089722,86.73095703125,82.51953125,-9.09423828125
6.417814016342163,1578395613,1,0.7445149421691895,-0.11849063634872437,0.5766617059707642,-152.16064453125,92.95654296875,-83.740234375
6.427573204040527,1578395624,0,0.31068286299705505,-0.05316804721951485,0.6204403638839722,141.17431640625,7.38525390625,-49.560546875
6.427599191665649,1578395643,0,-0.21348705887794495,0.28399014472961426,0.8697079420089722,167.8466796875,44.189453125,-91.85791015625
6.4426140785217285,1578395632,1,-1.0723795890808105,-0.6702484488487244,1.4145523309707642,-280.76171875,206.0546875,-29.296875
6.442700147628784,1578395651,1,0.01722002401947975,-0.14729923009872437,1.1843277215957642,-252.8076171875,135.7421875,-82.51953125
6.46343207359314,1578395662,0,0.28724536299705505,-0.20258210599422455,0.7420223951339722,155.029296875,15.56396484375,-64.39208984375
6.4727561473846436,1578395670,1,-0.19225263595581055,-0.34798282384872437,0.9045425653457642,-274.23095703125,151.67236328125,-32.40966796875
6.472809076309204,1578395689,1,0.20325517654418945,-0.35750430822372437,0.7717300653457642,-297.607421875,103.69873046875,37.04833984375
6.487579345703125,1578395681,0,0.26478442549705505,0.21709562838077545,0.9788388013839722,130.37109375,-3.662109375,-67.32177734375
6.4876532554626465,1578395700,0,0.35975512862205505,0.28276944160461426,1.4348934888839722,103.21044921875,-4.638671875,-38.75732421875
6.511541128158569,1578395708,1,0.31800127029418945,-0.7034515738487244,0.5466324090957642,-209.47265625,93.56689453125,55.17578125
6.517744302749634,1578395719,0,-0.07286205887794495,-0.03705476596951485,1.3482235670089722,39.6728515625,52.30712890625,16.9677734375
6.532504081726074,1578395743,1,1.1388020515441895,-0.9326996207237244,0.05249179154634476,68.05419921875,93.3837890625,79.28466796875
6.547749280929565,1578395738,0,0.011854734271764755,-0.24799226224422455,1.3675106763839722,8.11767578125,49.072265625,44.43359375
6.547825336456299,1578395757,0,-0.12779369950294495,-0.22699616849422455,1.1433895826339722,34.912109375,64.208984375,85.3271484375
6.566441059112549,1578395763,1,0.29847002029418945,-0.9900726675987244,0.42578279972076416,188.232421875,203.4912109375,147.4609375
6.57758903503418,1578395776,0,-0.044053468853235245,-0.025336015969514847,0.8267391920089722,82.70263671875,-11.16943359375,101.98974609375
6.592674255371094,1578395782,1,-0.39659833908081055,-0.42781680822372437,0.9355484247207642,279.23583984375,107.91015625,156.43310546875
6.592721223831177,1578395801,1,-0.28282880783081055,-0.008871491998434067,1.0439468622207642,299.072265625,-56.15234375,105.04150390625
6.614485025405884,1578395795,0,0.42884692549705505,0.41729092597961426,0.36653414368629456,119.2626953125,-71.4111328125,58.16650390625
6.622722148895264,1578395820,1,0.20227861404418945,0.48893123865127563,1.1550308465957642,280.94482421875,-200.8056640625,118.1640625
6.622802972793579,1578395839,1,0.47376298904418945,0.5729156136512756,1.6171890497207642,183.349609375,-94.482421875,65.5517578125
6.63775897026062,1578395831,0,0.6109758019447327,0.8826229572296143,1.0569638013839722,-6.40869140625,147.88818359375,-39.55078125
6.637836217880249,1578395850,0,0.5975480675697327,0.47344326972961426,0.9905575513839722,-52.06298828125,109.19189453125,-53.1005859375
6.661537170410156,1578395858,1,-0.15465497970581055,-0.007650788873434067,1.5266128778457642,176.33056640625,22.5830078125,-30.8837890625
6.667445182800293,1578395869,0,0.28529223799705505,0.14678312838077545,1.0391415357589722,-36.0107421875,136.90185546875,-108.154296875
6.68426513671875,1578395877,1,-0.25841474533081055,-0.24495548009872437,1.3483902215957642,215.6982421875,-28.86962890625,-22.5830078125
6.6843461990356445,1578395896,1,-0.10973310470581055,0.05753475800156593,1.2473160028457642,274.169921875,-0.54931640625,75.1953125
6.707551002502441,1578395888,0,0.21815356612205505,0.04668546840548515,0.9710263013839722,24.84130859375,58.2275390625,-103.515625
6.711777210235596,1578395907,0,0.19788989424705505,-0.06757234036922455,1.0398739576339722,92.10205078125,59.02099609375,-112.4267578125
6.716921091079712,1578395915,1,0.12000322341918945,0.11393123865127563,1.1140152215957642,257.99560546875,-55.11474609375,91.97998046875
6.729612112045288,1578395926,0,0.0035539530217647552,0.19658781588077545,1.0393856763839722,136.77978515625,70.37353515625,-120.7275390625
6.744449138641357,1578395934,1,0.12683916091918945,0.29923397302627563,1.0935074090957642,234.31396484375,-27.83203125,76.72119140625
6.744456052780151,1578395953,1,0.12073564529418945,0.10440975427627563,1.0847183465957642,184.63134765625,-38.75732421875,94.482421875
6.76555323600769,1578395945,0,-0.23326244950294495,0.26299405097961426,0.9085263013839722,153.86962890625,83.06884765625,-107.48291015625
6.765559196472168,1578395964,0,0.09242114424705505,0.34111905097961426,1.0154598951339722,157.3486328125,26.18408203125,-58.9599609375
6.774497032165527,1578395972,1,0.18445634841918945,0.13565975427627563,0.8906265497207642,111.9384765625,-50.10986328125,119.873046875
6.789244174957275,1578395983,0,-0.06431713700294495,0.43462491035461426,1.1043270826339722,150.20751953125,29.296875,-43.701171875
6.789344072341919,1578396002,0,-0.07920971512794495,0.5862362384796143,1.1148251295089722,108.5205078125,-1.28173828125,0.8544921875
6.813708066940308,1578396008,1,0.28430986404418945,0.18912655115127563,0.7275406122207642,50.35400390625,-65.5517578125,34.3017578125
6.8189780712127686,1578396021,0,-0.15025463700294495,0.6836483478546143,1.0576962232589722,41.93115234375,0.0,42.05322265625
6.834376096725464,1578396027,1,0.33606767654418945,0.12662655115127563,0.8500992059707642,28.74755859375,-66.89453125,14.70947265625
6.834391117095947,1578396046,1,0.28846025466918945,0.13932186365127563,0.8364273309707642,14.46533203125,-49.31640625,34.97314453125
6.84926700592041,1578396040,0,-0.004014406353235245,0.6135799884796143,0.9822567701339722,-16.845703125,-5.18798828125,59.08203125
6.84934401512146,1578396059,0,-0.11314526200294495,0.45195889472961426,1.0374325513839722,-51.45263671875,26.67236328125,53.8330078125
6.86611008644104,1578396065,1,0.28455400466918945,0.41398006677627563,0.8293472528457642,19.6533203125,-33.14208984375,-8.1787109375
6.892279148101807,1578396084,1,0.47644853591918945,0.27311092615127563,0.9309097528457642,14.70947265625,42.1142578125,-80.26123046875
6.892961025238037,1578396103,1,0.23889970779418945,0.26944881677627563,0.8193374872207642,0.3662109375,71.35009765625,-130.7373046875
6.912875175476074,1578396095,0,-0.22252026200294495,0.30327725410461426,0.8694638013839722,-46.2646484375,-0.54931640625,61.58447265625
6.912880182266235,1578396114,0,-0.16441479325294495,0.5022518634796143,0.8155087232589722,-4.69970703125,-17.15087890625,41.93115234375
6.924196243286133,1578396122,1,0.6009602546691895,0.48819881677627563,0.6882339715957642,-21.1181640625,68.54248046875,-110.7177734375
6.939312219619751,1578396133,0,-0.07798901200294495,0.42412686347961426,0.9436825513839722,23.4375,-38.330078125,3.60107421875
6.939330101013184,1578396152,0,-0.006944093853235245,0.34233975410461426,0.9859188795089722,36.62109375,-43.8232421875,5.126953125
6.963579177856445,1578396141,1,0.38953447341918945,0.41886287927627563,0.8764663934707642,-13.5498046875,65.24658203125,-132.38525390625
6.963582992553711,1578396160,1,0.11267900466918945,0.24283748865127563,1.0273452997207642,17.15087890625,37.4755859375,-133.48388671875
6.967997074127197,1578396171,0,0.036512937396764755,0.38213467597961426,1.0161923170089722,52.6123046875,-22.64404296875,12.3291015625
6.984106063842773,1578396179,1,0.14051103591918945,0.5123687386512756,0.9563003778457642,19.8974609375,-36.31591796875,-103.1494140625
6.984209299087524,1578396198,1,0.32703447341918945,0.5546050667762756,0.9213882684707642,21.05712890625,-58.349609375,-18.12744140625
7.001411199569702,1578396190,0,0.11976489424705505,0.5156795978546143,0.9561337232589722,59.5703125,-9.21630859375,13.18359375
7.0014190673828125,1578396209,0,0.12904223799705505,0.5320370197296143,0.9856747388839722,53.03955078125,18.6767578125,-12.14599609375
7.01851224899292,1578396217,1,0.32141923904418945,0.5734038949012756,0.9187027215957642,64.5751953125,-17.27294921875,45.34912109375
7.0295491218566895,1578396228,0,0.08802661299705505,0.5273983478546143,0.9727352857589722,42.1142578125,32.8369140625,-18.49365234375
7.0443572998046875,1578396236,1,0.17005205154418945,0.5560699105262756,0.7143570184707642,224.2431640625,-20.5078125,86.97509765625
7.065964221954346,1578396247,0,-0.015489015728235245,0.37603116035461426,0.7659481763839722,42.96875,10.1318359375,4.57763671875
7.065970182418823,1578396266,0,0.17640551924705505,0.42290616035461426,0.7964657545089722,63.96484375,7.32421875,15.5029296875
7.072865009307861,1578396271,1,0.25867509841918945,0.6498199105262756,0.8232437372207642,152.83203125,44.43359375,-47.9736328125
7.087452173233032,1578396285,0,0.07874926924705505,0.6067440509796143,0.8731259107589722,45.34912109375,15.68603515625,11.3525390625
7.112053155899048,1578396291,1,0.07312822341918945,0.6964507699012756,0.8168960809707642,127.685546875,27.89306640625,-58.41064453125
7.112057209014893,1578396310,1,0.21472978591918945,0.7169585824012756,0.6777359247207642,90.8203125,27.2216796875,-42.78564453125
7.117724180221558,1578396304,0,0.15736255049705505,0.5737850666046143,0.8086727857589722,31.3720703125,7.75146484375,14.95361328125
7.117755174636841,1578396323,0,0.15125903487205505,0.5642635822296143,0.8020809888839722,26.18408203125,19.04296875,14.892578125
7.132792234420776,1578396329,1,0.31702470779418945,0.6210113167762756,0.6660171747207642,76.0498046875,52.734375,-21.484375
7.132873058319092,1578396348,1,0.10437822341918945,0.5729156136512756,0.7241226434707642,72.021484375,53.466796875,-25.93994140625
7.147566080093384,1578396358,0,0.09632739424705505,0.5742733478546143,0.8365048170089722,5.92041015625,5.0048828125,-3.84521484375
7.16513204574585,1578396367,1,0.02454424276947975,0.6124663949012756,0.7055679559707642,62.3779296875,38.26904296875,-45.10498046875
7.1775062084198,1578396378,0,0.14808520674705505,0.5200741291046143,0.8418759107589722,-6.8359375,19.4091796875,4.7607421875
7.192726135253906,1578396386,1,0.15784502029418945,0.6559234261512756,0.6975113153457642,31.73828125,27.2216796875,-55.908203125
7.1927971839904785,1578396405,1,0.07410478591918945,0.6742339730262756,0.6269546747207642,7.14111328125,42.90771484375,-41.19873046875
7.2134552001953125,1578396397,0,0.15833911299705505,0.5415585041046143,0.7879208326339722,-6.591796875,13.5498046875,16.7236328125
7.2134599685668945,1578396416,0,0.12562426924705505,0.5581600666046143,0.8426083326339722,-0.79345703125,7.75146484375,13.5498046875
7.222464084625244,1578396424,1,0.13172197341918945,0.6044097542762756,0.6787124872207642,-7.9345703125,40.4052734375,-22.52197265625
7.23753809928894,1578396435,0,0.08680590987205505,0.5615780353546143,0.8616513013839722,3.60107421875,2.8076171875,11.962890625
7.262045383453369,1578396443,1,-0.45421552658081055,0.8011870980262756,0.7136245965957642,-14.83154296875,-16.90673828125,-52.18505859375
7.262049198150635,1578396462,1,0.43958330154418945,0.5023589730262756,0.7600113153457642,-19.04296875,-33.02001953125,-71.47216796875
7.267688989639282,1578396454,0,0.07484301924705505,0.5442440509796143,0.8440731763839722,5.2490234375,-5.79833984375,10.19287109375
7.267747163772583,1578396473,0,0.11707934737205505,0.5784237384796143,0.8408993482589722,10.986328125,-8.72802734375,5.2490234375
7.28266716003418,1578396481,1,0.03406572714447975,0.5787749886512756,0.7814956903457642,-1.64794921875,-25.69580078125,-51.81884765625
7.297519207000732,1578396492,0,0.25916919112205505,0.5938045978546143,0.8470028638839722,6.34765625,6.591796875,3.173828125
7.297583103179932,1578396511,0,0.16371020674705505,0.5466854572296143,0.8950985670089722,0.8544921875,21.91162109375,7.9345703125
7.317850112915039,1578396500,1,-0.011100288480520248,0.6024566292762756,0.7534195184707642,0.91552734375,-83.0078125,-28.74755859375
7.327858209609985,1578396530,0,0.045057859271764755,0.5933163166046143,0.8789852857589722,6.591796875,35.888671875,6.103515625
7.342688083648682,1578396535,1,0.25257158279418945,0.6520171761512756,0.6953140497207642,8.30078125,-63.53759765625,-19.287109375
7.342770338058472,1578396555,1,0.11170244216918945,0.5824370980262756,0.8625503778457642,39.9169921875,-51.94091796875,-25.32958984375
7.365539073944092,1578396549,0,0.041395749896764755,0.5889217853546143,0.9124325513839722,15.07568359375,23.5595703125,5.2490234375
7.365543365478516,1578396568,0,0.15687426924705505,0.6138241291046143,0.9043759107589722,20.01953125,27.4658203125,-0.244140625
7.372812032699585,1578396574,1,0.15979814529418945,0.6913238167762756,0.8774429559707642,41.44287109375,-85.8154296875,-58.16650390625
7.389944076538086,1578396587,0,0.13758715987205505,0.5896542072296143,0.8719052076339722,20.56884765625,37.2314453125,-7.14111328125
7.412914991378784,1578396593,1,0.27747392654418945,0.7613921761512756,0.7194839715957642,8.85009765625,-95.3369140625,-58.65478515625
7.412922143936157,1578396612,1,0.37830400466918945,0.8824859261512756,0.6115738153457642,-22.4609375,-78.857421875,-17.822265625
7.4190661907196045,1578396623,0,0.004774656146764755,0.6148006916046143,0.8084286451339722,19.34814453125,13.5498046875,-4.08935546875
7.434100151062012,1578396631,1,0.27625322341918945,0.7386870980262756,0.6342788934707642,-35.5224609375,-34.7900390625,22.216796875
7.460299015045166,1578396642,0,0.09950122237205505,0.5962460041046143,0.8594540357589722,16.29638671875,20.69091796875,-3.11279296875
7.4603071212768555,1578396661,0,0.043348874896764755,0.6096737384796143,0.8538388013839722,8.48388671875,38.14697265625,-5.859375
7.466192245483398,1578396650,1,0.26380205154418945,0.5865874886512756,0.6564956903457642,-25.08544921875,-12.5732421875,8.30078125
7.466198205947876,1578396669,1,0.22864580154418945,0.5641265511512756,0.6179214715957642,-3.60107421875,-6.89697265625,-22.64404296875
7.478374242782593,1578396680,0,0.052626218646764755,0.5964901447296143,0.8181942701339722,-0.3662109375,47.4853515625,-7.8125
7.494432210922241,1578396688,1,0.28626298904418945,0.6439605355262756,0.6948257684707642,2.99072265625,-7.32421875,-39.55078125
7.4945290088653564,1578396707,1,0.05725908651947975,0.6561675667762756,0.6555191278457642,7.01904296875,1.0986328125,-25.81787109375
7.515951156616211,1578396699,0,0.042860593646764755,0.5794003009796143,0.7857235670089722,3.23486328125,47.30224609375,0.67138671875
7.515956163406372,1578396718,0,0.0037980936467647552,0.5852596759796143,0.7820614576339722,18.798828125,42.78564453125,7.568359375
7.524413108825684,1578396726,1,0.15052080154418945,0.7445464730262756,0.6110855340957642,21.42333984375,7.14111328125,3.2958984375
7.539035320281982,1578396737,0,0.056044187396764755,0.6111385822296143,0.7879208326339722,28.564453125,29.96826171875,9.6435546875
7.562308311462402,1578396745,1,0.18128252029418945,0.6874175667762756,0.6110855340957642,26.79443359375,10.986328125,31.79931640625
7.562313079833984,1578396764,1,0.27625322341918945,0.6720367074012756,0.6159683465957642,30.94482421875,13.61083984375,24.84130859375
7.569284200668335,1578396756,0,0.032118406146764755,0.7009823322296143,0.8277157545089722,24.658203125,24.2919921875,6.28662109375
7.569319248199463,1578396775,0,0.004042234271764755,0.6736385822296143,0.7996395826339722,25.20751953125,10.07080078125,0.6103515625
7.59710431098938,1578396794,0,-0.006699953228235245,0.5989315509796143,0.8391903638839722,41.8701171875,-5.4931640625,-2.25830078125
7.598912000656128,1578396813,0,-0.0005964376032352448,0.6255428791046143,0.8213680982589722,57.43408203125,-23.37646484375,2.44140625
7.61699104309082,1578396799,1,0.20105791091918945,0.6923003792762756,0.7319351434707642,50.78125,39.12353515625,-26.4892578125
7.616995096206665,1578396819,1,0.20105791091918945,0.7604156136512756,0.6494156122207642,53.7109375,35.70556640625,-35.64453125
7.629603147506714,1578396832,0,-0.010362062603235245,0.6914608478546143,0.7906063795089722,66.71142578125,-39.55078125,-9.8876953125
7.64433217048645,1578396838,1,0.16541337966918945,0.7770171761512756,0.6413589715957642,46.0205078125,24.84130859375,-20.93505859375
7.6444151401519775,1578396857,1,0.23011064529418945,0.7338042855262756,0.5932632684707642,36.07177734375,18.1884765625,-16.357421875
7.66665506362915,1578396851,0,0.052382078021764755,0.7398006916046143,0.7888973951339722,56.7626953125,-67.81005859375,-22.4609375
7.67447304725647,1578396876,1,0.19983720779418945,0.6781402230262756,0.6259781122207642,48.095703125,35.7666015625,-18.85986328125
7.687756061553955,1578396887,0,0.27552661299705505,0.6172420978546143,0.7163876295089722,50.35400390625,-103.69873046875,-19.53125
7.7127931118011475,1578396895,1,0.23011064529418945,0.6769195199012756,0.5600601434707642,90.14892578125,59.26513671875,-49.25537109375
7.712799072265625,1578396914,1,0.13953447341918945,0.7386870980262756,0.5351577997207642,107.72705078125,56.0302734375,-60.4248046875
7.719191074371338,1578396906,0,0.44813403487205505,0.6189510822296143,0.6724423170089722,80.4443359375,-62.1337890625,7.26318359375
7.7192792892456055,1578396925,0,0.27967700362205505,0.6770565509796143,0.6927059888839722,112.36572265625,19.287109375,7.87353515625
7.733995199203491,1578396933,1,0.11023759841918945,0.7999663949012756,0.5012222528457642,97.900390625,44.49462890625,-55.908203125
7.7494001388549805,1578396944,0,0.21766528487205505,0.7229549884796143,0.6553524732589722,121.52099609375,40.4052734375,3.173828125
7.74941611289978,1578396963,0,0.15565356612205505,0.7791073322296143,0.5452450513839722,128.35693359375,53.16162109375,11.41357421875
7.767143249511719,1578396952,1,0.08850908279418945,0.8480620980262756,0.47070467472076416,87.2802734375,35.09521484375,-45.654296875
7.767148017883301,1578396971,1,0.09265947341918945,0.8810210824012756,0.44702303409576416,83.6181640625,34.912109375,-31.31103515625
7.7790563106536865,1578396982,0,0.14735278487205505,0.8147518634796143,0.5227841138839722,127.74658203125,45.83740234375,18.61572265625
7.792741298675537,1578396990,1,0.08802080154418945,0.8414703011512756,0.43530428409576416,86.181640625,39.4287109375,-23.193359375
7.792755126953125,1578397009,1,0.12317705154418945,0.8639312386512756,0.42212069034576416,87.2802734375,41.1376953125,-31.3720703125
7.816082239151001,1578397001,0,0.22816333174705505,0.9148495197296143,0.5037411451339722,127.5634765625,54.01611328125,30.94482421875
7.8160881996154785,1578397020,0,0.23524340987205505,0.9048397541046143,0.5230282545089722,108.33740234375,65.12451171875,23.86474609375
7.82403302192688,1578397028,1,0.03992510214447975,0.9598785042762756,0.47485506534576416,75.62255859375,45.654296875,-38.26904296875
7.839256048202515,1578397039,0,0.21009692549705505,0.9055721759796143,0.5225399732589722,90.14892578125,73.1201171875,17.15087890625
7.862813234329224,1578397063,1,0.02820635214447975,0.9586578011512756,0.43359529972076416,56.15234375,35.58349609375,3.41796875
7.869685173034668,1578397058,0,0.17738208174705505,0.8694393634796143,0.47786226868629456,81.1767578125,73.91357421875,15.19775390625
7.869690179824829,1578397077,0,0.18226489424705505,0.8953182697296143,0.39485445618629456,65.91796875,74.40185546875,3.0517578125
7.884033203125,1578397083,1,0.06922197341918945,0.8795562386512756,0.32373201847076416,40.71044921875,36.2548828125,6.77490234375
7.911055088043213,1578397096,0,0.09608325362205505,0.8867733478546143,0.36458101868629456,45.47119140625,73.42529296875,-2.01416015625
7.917598009109497,1578397102,1,0.08704423904418945,0.8824859261512756,0.30517733097076416,32.3486328125,51.26953125,-7.38525390625
7.917603254318237,1578397121,1,0.04456377401947975,0.8993316292762756,0.35058748722076416,30.2734375,62.5,-26.42822265625
7.92870831489563,1578397115,0,0.09559497237205505,0.8892147541046143,0.36531344056129456,33.3251953125,67.07763671875,2.86865234375
7.944407224655151,1578397140,1,-0.02721356973052025,0.9513335824012756,0.37426912784576416,20.81298828125,54.26025390625,-31.79931640625
7.944474220275879,1578397159,1,-0.08238935470581055,0.9689117074012756,0.37426912784576416,10.3759765625,46.20361328125,-25.45166015625
7.966876268386841,1578397150,0,0.039198484271764755,0.9248592853546143,0.41023531556129456,26.18408203125,65.61279296875,9.70458984375
7.966881036758423,1578397170,0,0.031141843646764755,0.9509823322296143,0.41389742493629456,9.46044921875,66.71142578125,12.3291015625
7.974497079849243,1578397178,1,-0.11876630783081055,0.9755035042762756,0.35302889347076416,-4.5166015625,40.46630859375,-8.85009765625
7.989173173904419,1578397189,0,0.019667234271764755,0.9670956134796143,0.43879976868629456,-4.69970703125,63.29345703125,18.85986328125
8.0138680934906,1578397197,1,-0.11827802658081055,0.9278960824012756,0.35302889347076416,-12.51220703125,42.66357421875,5.55419921875
8.013874292373657,1578397216,1,-0.10607099533081055,0.8690581917762756,0.35424959659576416,-20.56884765625,42.54150390625,10.1318359375
8.019240140914917,1578397208,0,0.042860593646764755,0.9778378009796143,0.47566500306129456,-13.18359375,60.546875,23.98681640625
8.019267082214355,1578397227,0,0.049208249896764755,0.9717342853546143,0.49592867493629456,-15.93017578125,60.1806640625,26.7333984375
8.034200191497803,1578397235,1,-0.12023115158081055,0.8610015511512756,0.35986483097076416,-22.39990234375,43.76220703125,5.126953125
8.049152135848999,1578397246,0,0.049940671771764755,0.9822323322296143,0.44026461243629456,-25.69580078125,65.85693359375,20.56884765625
8.06575322151184,1578397254,1,-0.15758466720581055,0.8807769417762756,0.34253084659576416,-22.03369140625,44.0673828125,2.86865234375
8.065757989883423,1578397273,1,-0.19615888595581055,0.9098296761512756,0.30810701847076416,-25.390625,43.64013671875,11.65771484375
8.077607154846191,1578397265,0,0.052870359271764755,1.0122616291046143,0.37092867493629456,-44.43359375,67.626953125,4.8828125
8.077646255493164,1578397284,0,0.021376218646764755,0.9753963947296143,0.30256929993629456,-80.2001953125,59.99755859375,-11.474609375
8.0926673412323,1578397292,1,-0.18395185470581055,0.9090972542762756,0.28100740909576416,-38.57421875,48.64501953125,16.357421875
8.114398002624512,1578397303,0,-0.032334718853235245,0.9153378009796143,0.29524508118629456,-108.88671875,49.4384765625,-13.00048828125
8.114403247833252,1578397322,0,0.06605395674705505,0.8298885822296143,0.40779390931129456,-146.66748046875,66.7724609375,2.3193359375
8.122567176818848,1578397328,1,-0.27867841720581055,0.9120269417762756,0.28320467472076416,-62.1337890625,73.54736328125,12.20703125
8.137830257415771,1578397341,0,-0.060410890728235245,0.9268124103546143,0.38582125306129456,-168.3349609375,65.49072265625,39.73388671875
8.161872148513794,1578397347,1,-0.37438154220581055,0.9532867074012756,0.35327303409576416,-63.29345703125,82.09228515625,3.0517578125
8.161878108978271,1578397366,1,-0.43590497970581055,0.9872222542762756,0.37011873722076416,-67.93212890625,78.0029296875,15.07568359375
8.169177293777466,1578397360,0,-0.27476635575294495,0.8408749103546143,0.5821102857589722,-185.546875,66.10107421875,21.91162109375
8.169185161590576,1578397379,0,-0.17295971512794495,0.7805721759796143,0.6817196607589722,-191.7724609375,26.67236328125,4.39453125
8.18270206451416,1578397385,1,-0.38683271408081055,0.9549956917762756,0.38549959659576416,-77.94189453125,70.98388671875,35.7666015625
8.215719223022461,1578397404,1,-0.31700849533081055,0.8873687386512756,0.45507967472076416,-97.412109375,76.35498046875,41.6259765625
8.215724229812622,1578397423,1,-0.29894208908081055,0.8631988167762756,0.5932632684707642,-110.90087890625,75.50048828125,38.75732421875
8.227888345718384,1578397415,0,-0.16197338700294495,0.6128475666046143,0.7857235670089722,-176.8798828125,31.25,-14.70947265625
8.227940082550049,1578397434,0,-0.33409252762794495,0.46318936347961426,1.0540341138839722,-147.4609375,-6.04248046875,-0.6103515625
8.242781400680542,1578397442,1,-0.25255537033081055,0.8129058480262756,0.6896988153457642,-121.27685546875,64.14794921875,41.93115234375
8.26621413230896,1578397453,0,-0.11949291825294495,0.41582608222961426,1.1385067701339722,-83.55712890625,-39.794921875,44.49462890625
8.266220092773438,1578397472,0,0.08534106612205505,0.5132381916046143,1.1250790357589722,-18.85986328125,-23.193359375,61.82861328125
8.272865056991577,1578397461,1,-0.14195966720581055,0.7076812386512756,0.7644058465957642,-116.76025390625,42.17529296875,48.76708984375
8.272878170013428,1578397480,1,-0.06334638595581055,0.6210113167762756,0.8166519403457642,-94.66552734375,22.0947265625,43.701171875
8.287535190582275,1578397491,0,0.08851489424705505,0.5064022541046143,1.0952938795089722,20.69091796875,-9.3994140625,46.9970703125
8.312735080718994,1578397499,1,-0.03942060098052025,0.6122222542762756,0.8244644403457642,-63.65966796875,13.12255859375,35.09521484375
8.312740087509155,1578397518,1,0.02356768026947975,0.6158843636512756,0.8071304559707642,-46.5087890625,10.19287109375,32.1044921875
8.317657232284546,1578397510,0,0.11732348799705505,0.29204678535461426,1.0347470045089722,42.1142578125,-10.68115234375,24.84130859375
8.317693948745728,1578397529,0,0.023573484271764755,0.38945889472961426,0.9053524732589722,45.2880859375,-34.7900390625,10.8642578125
8.332707166671753,1578397537,1,0.14344072341918945,0.5502105355262756,0.7419449090957642,-22.27783203125,11.04736328125,20.5078125
8.349167108535767,1578397548,0,0.015516843646764755,0.7070858478546143,0.8289364576339722,37.04833984375,-47.42431640625,4.69970703125
8.36583137512207,1578397556,1,0.20301103591918945,0.48429256677627563,0.7043472528457642,1.28173828125,12.3291015625,-15.5029296875
8.379493236541748,1578397567,0,0.06483325362205505,0.6836483478546143,0.9024227857589722,13.7939453125,-39.36767578125,-32.5927734375
8.37954831123352,1578397586,0,0.15540942549705505,0.5955135822296143,0.8279598951339722,-2.13623046875,-24.84130859375,-63.53759765625
8.39406704902649,1578397591,1,0.13318681716918945,0.7113433480262756,0.6684585809707642,10.92529296875,-12.26806640625,-46.0205078125
8.414308309555054,1578397605,0,0.12684497237205505,0.5154354572296143,0.7849911451339722,1.77001953125,-26.2451171875,-80.56640625
8.424255132675171,1578397611,1,0.05847978964447975,0.7980132699012756,0.6967788934707642,-7.8125,-33.99658203125,-13.671875
8.424286127090454,1578397630,1,0.10901689529418945,0.7306304574012756,0.6743179559707642,-25.45166015625,-59.75341796875,14.6484375
8.43935513496399,1578397624,0,0.08534106612205505,0.48076748847961426,0.7588680982589722,9.765625,-28.4423828125,-72.69287109375
8.43944239616394,1578397643,0,0.048964109271764755,0.5732967853546143,0.7012509107589722,8.11767578125,-34.72900390625,-49.01123046875
8.462164163589478,1578397649,1,0.18494462966918945,0.5636382699012756,0.6408706903457642,-21.78955078125,-73.486328125,18.9208984375
8.462169170379639,1578397668,1,0.14124345779418945,0.5289703011512756,0.6794449090957642,-8.48388671875,-80.26123046875,-0.6103515625
8.469074964523315,1578397678,0,0.14198169112205505,0.47490811347961426,0.8470028638839722,-7.8125,-32.04345703125,0.06103515625
8.484111309051514,1578397687,1,0.14344072341918945,0.6566558480262756,0.6435562372207642,-2.25830078125,-76.84326171875,-22.15576171875
8.509841203689575,1578397698,0,0.15345630049705505,0.6133358478546143,0.7959774732589722,-11.65771484375,-18.5546875,-5.79833984375
8.515395164489746,1578397706,1,0.10730791091918945,0.7269683480262756,0.6503921747207642,-0.91552734375,-60.9130859375,-27.52685546875
8.515399932861328,1578397725,1,0.01697588339447975,0.7049956917762756,0.6694351434707642,-14.404296875,-54.443359375,-20.01953125
8.529896020889282,1578397717,0,0.15614184737205505,0.5798885822296143,0.7967098951339722,-24.71923828125,-13.97705078125,-23.13232421875
8.529982089996338,1578397736,0,0.17713794112205505,0.5606014728546143,0.8162411451339722,-33.26416015625,-18.06640625,-33.87451171875
8.544764995574951,1578397744,1,0.0018391646444797516,0.6886382699012756,0.7246109247207642,-29.11376953125,-62.98828125,-9.6435546875
8.566243171691895,1578397755,0,0.10413989424705505,0.5703670978546143,0.8094052076339722,-42.48046875,-18.12744140625,-33.38623046875
8.57425832748413,1578397763,1,-0.006705757230520248,0.6759429574012756,0.7478042840957642,-37.65869140625,-78.857421875,-9.33837890625
8.57433819770813,1578397782,1,0.008186820894479752,0.7020660042762756,0.7329117059707642,-42.1142578125,-94.29931640625,-7.99560546875
8.58924913406372,1578397774,0,0.07655200362205505,0.5042049884796143,0.7791317701339722,-42.54150390625,-26.30615234375,-15.93017578125
8.589295148849487,1578397793,0,0.13636645674705505,0.5652401447296143,0.7845028638839722,-37.53662109375,-34.423828125,-8.4228515625
8.61450719833374,1578397801,1,0.03235674276947975,0.6359038949012756,0.7060562372207642,-47.54638671875,-109.31396484375,-5.31005859375
8.619375228881836,1578397812,0,0.15052661299705505,0.5925838947296143,0.8201473951339722,-36.07177734375,-41.80908203125,-18.98193359375
8.61944031715393,1578397831,0,0.16346606612205505,0.5586483478546143,0.8394345045089722,-44.189453125,-41.8701171875,-33.8134765625
8.634045124053955,1578397820,1,0.014046195894479752,0.6568999886512756,0.6950699090957642,-53.1005859375,-107.177734375,2.3193359375
8.661341190338135,1578397850,0,0.22669848799705505,0.48296475410461426,0.8304013013839722,-44.43359375,-30.76171875,-38.57421875
8.667058229446411,1578397855,1,0.09143877029418945,0.5848785042762756,0.7636734247207642,-50.6591796875,-92.95654296875,8.6669921875
8.667064189910889,1578397875,1,0.09998369216918945,0.5729156136512756,0.7771011590957642,-48.9501953125,-88.2568359375,-2.9296875
8.679169178009033,1578397869,0,0.17079028487205505,0.48540616035461426,0.7928036451339722,-40.6494140625,-16.90673828125,-43.212890625
8.679239273071289,1578397888,0,0.10975512862205505,0.5569393634796143,0.7945126295089722,-37.841796875,-11.8408203125,-38.51318359375
8.694098234176636,1578397894,1,0.14588212966918945,0.5978179574012756,0.7983413934707642,-50.1708984375,-83.80126953125,-9.46044921875
8.715357303619385,1578397907,0,-0.017930421978235245,0.6653378009796143,0.8350399732589722,-47.607421875,-23.0712890625,-27.099609375
8.724467039108276,1578397913,1,0.18421220779418945,0.5885406136512756,0.7954117059707642,-51.08642578125,-68.2373046875,-17.4560546875
8.72454309463501,1578397932,1,0.16077470779418945,0.5631499886512756,0.8359390497207642,-43.76220703125,-51.26953125,-27.40478515625
8.739116191864014,1578397943,0,0.11781176924705505,0.5129940509796143,0.8987606763839722,-41.9921875,-20.01953125,-30.76171875
8.762713193893433,1578397951,1,0.17859697341918945,0.6005035042762756,0.8828140497207642,-27.03857421875,-33.02001953125,-32.04345703125
8.769121170043945,1578397962,0,0.034315671771764755,0.37236905097961426,0.9722470045089722,-38.63525390625,-12.20703125,-50.23193359375
8.769195079803467,1578397981,0,-0.017198000103235245,0.28594326972961426,1.0388973951339722,-33.935546875,-20.20263671875,-49.8046875
8.784213066101074,1578397970,1,0.17005205154418945,0.6039214730262756,0.9067398309707642,-16.6015625,-15.380859375,-40.22216796875
8.784269094467163,1578397989,1,0.15052080154418945,0.5975738167762756,0.8645035028457642,-16.54052734375,-14.22119140625,-45.71533203125
8.81155514717102,1578398000,0,-0.058457765728235245,0.38701748847961426,1.0349911451339722,-28.13720703125,-19.4091796875,-37.4755859375
8.81685209274292,1578398008,1,0.14759111404418945,0.5887847542762756,0.8427749872207642,-19.287109375,-10.43701171875,-47.8515625
8.816858291625977,1578398027,1,0.13929033279418945,0.6044097542762756,0.8273941278457642,-16.17431640625,-7.62939453125,-49.560546875
8.829413175582886,1578398019,0,-0.042100343853235245,0.49468350410461426,0.9944638013839722,-25.634765625,-17.08984375,-8.056640625
8.829421043395996,1578398038,0,-0.06724682450294495,0.48711514472961426,0.9834774732589722,-25.5126953125,-6.103515625,7.080078125
8.84445333480835,1578398046,1,0.12683916091918945,0.6236968636512756,0.7849136590957642,-12.14599609375,-0.732421875,-44.677734375
8.865699291229248,1578398057,0,-0.10753002762794495,0.5208065509796143,0.9346493482589722,-24.10888671875,-1.28173828125,12.02392578125
8.874358177185059,1578398065,1,0.13562822341918945,0.6166167855262756,0.7622085809707642,-15.0146484375,6.28662109375,-41.44287109375
8.874436140060425,1578398084,1,0.15564775466918945,0.6349273324012756,0.7446304559707642,-22.216796875,16.845703125,-34.48486328125
8.889204978942871,1578398076,0,-0.09825268387794495,0.5493710041046143,0.9002255201339722,-21.728515625,-1.15966796875,19.04296875
8.889276266098022,1578398095,0,-0.07432690262794495,0.6045467853546143,0.9029110670089722,-25.7568359375,-6.89697265625,21.6064453125
8.916954278945923,1578398114,0,-0.050889406353235245,0.6126034259796143,0.8882626295089722,-33.203125,-10.31494140625,19.59228515625
8.917737007141113,1578398133,0,-0.009873781353235245,0.5955135822296143,0.8824032545089722,-36.2548828125,-11.90185546875,14.22119140625
8.934105157852173,1578398120,1,0.12976884841918945,0.6315093636512756,0.7731949090957642,-36.43798828125,43.39599609375,-28.62548828125
8.934177160263062,1578398139,1,0.09656572341918945,0.5882964730262756,0.8010269403457642,-32.28759765625,50.537109375,-22.15576171875
8.949027061462402,1578398152,0,0.08729419112205505,0.5193417072296143,0.8950985670089722,-32.65380859375,-11.1083984375,12.87841796875
8.966723203659058,1578398158,1,0.10437822341918945,0.6114898324012756,0.8293472528457642,-20.6298828125,50.78125,-23.74267578125
8.96702527999878,1578398177,1,0.10486650466918945,0.6041656136512756,0.8413101434707642,-14.0380859375,51.57470703125,-30.33447265625
8.979105234146118,1578398171,0,0.13123950362205505,0.5247128009796143,0.9065731763839722,-26.7333984375,-0.1220703125,18.73779296875
8.994081020355225,1578398196,1,0.06897783279418945,0.6376128792762756,0.8681656122207642,-5.2490234375,53.5888671875,-29.296875
9.014896154403687,1578398207,0,0.14686450362205505,0.5742733478546143,0.9358700513839722,-6.04248046875,23.681640625,28.4423828125
9.024192094802856,1578398215,1,0.05921221151947975,0.6739898324012756,0.8859878778457642,-3.23486328125,61.8896484375,-23.13232421875
9.024243116378784,1578398234,1,0.06775712966918945,0.6810699105262756,0.8798843622207642,-7.62939453125,66.58935546875,-14.16015625
9.039443969726562,1578398226,0,0.14466723799705505,0.5806210041046143,0.9522274732589722,-2.13623046875,27.4658203125,20.69091796875
9.039507150650024,1578398245,0,0.16126880049705505,0.5330135822296143,0.9868954420089722,1.64794921875,24.59716796875,25.08544921875
9.06195616722107,1578398253,1,0.06507158279418945,0.6485992074012756,0.8745132684707642,-13.48876953125,74.52392578125,-16.90673828125
9.06942105293274,1578398264,0,0.19251880049705505,0.5269100666046143,1.0335263013839722,8.30078125,23.8037109375,42.17529296875
9.069437026977539,1578398283,0,0.23597583174705505,0.5701229572296143,1.1004208326339722,9.3994140625,29.35791015625,48.095703125
9.084277153015137,1578398272,1,0.014778617769479752,0.6351714730262756,0.9250503778457642,-20.5078125,78.857421875,-26.2451171875
9.084290266036987,1578398291,1,-0.05968427285552025,0.6717925667762756,0.9484878778457642,-19.71435546875,67.626953125,-12.39013671875
