sync_time,timestamp_ms,device_id,ax,ay,az,gx,gy,gz
0.003882884979248047,-147529501,0,-0.21550093591213226,0.2855963408946991,1.0394079685211182,2.13623046875,-0.1220703125,7.9345703125
0.018073081970214844,-147529506,1,0.10769756883382797,-0.09956207126379013,1.0558192729949951,-16.90673828125,12.5732421875,-3.0517578125
0.018185853958129883,-147529487,1,0.11648663133382797,-0.09980621188879013,1.0370204448699951,-14.892578125,6.53076171875,-3.23486328125
0.04389810562133789,-147529482,0,-0.20329390466213226,0.2916998565196991,1.0254919528961182,4.94384765625,-3.72314453125,8.7890625
0.04390382766723633,-147529463,0,-0.19572554528713226,0.2838873565196991,1.0120642185211182,4.57763671875,-7.75146484375,10.25390625
0.04816293716430664,-147529468,1,0.12405499070882797,-0.10395660251379013,1.0409266948699951,-14.2822265625,3.11279296875,-2.62451171875
0.04823493957519531,-147529449,1,0.12844952940940857,-0.11445464938879013,1.0294520854949951,-12.0849609375,2.01416015625,-4.21142578125
0.0628058910369873,-147529444,0,-0.19108687341213226,0.2699713408946991,1.0223181247711182,6.8359375,-8.544921875,11.474609375
0.07825493812561035,-147529430,1,0.12088116258382797,-0.13081207871437073,1.0370204448699951,-10.07080078125,-1.3427734375,-6.591796875
0.09682989120483398,-147529425,0,-0.19328413903713226,0.2506842315196991,1.0279333591461182,7.99560546875,-12.5732421875,10.55908203125
0.09683704376220703,-147529406,0,-0.18888960778713226,0.2277350276708603,1.0206091403961182,9.8876953125,-16.05224609375,10.31494140625
0.1080179214477539,-147529411,1,0.12356670945882797,-0.13642731308937073,1.0160243511199951,-8.056640625,-3.96728515625,-9.033203125
0.10814309120178223,-147529392,1,0.12014874070882797,-0.13056793808937073,1.0213954448699951,-7.9345703125,-5.9814453125,-11.29150390625
0.12285399436950684,-147529387,0,-0.19596968591213226,0.2299322932958603,1.0157263278961182,12.939453125,-17.76123046875,9.27734375
0.14575886726379395,-147529373,1,0.12234600633382797,-0.13252106308937073,1.0353114604949951,-7.99560546875,-5.7373046875,-10.68115234375
0.15306901931762695,-147529368,0,-0.18962202966213226,0.2575201690196991,1.0213415622711182,10.986328125,-17.39501953125,10.3759765625
0.15315818786621094,-147529349,0,-0.20085249841213226,0.2445807307958603,1.0623571872711182,7.32421875,-19.775390625,12.02392578125
0.1682720184326172,-147529337,1,0.13186749815940857,-0.15009918808937073,1.0682704448699951,-8.60595703125,-9.82666015625,-9.1552734375
0.1936497688293457,-147529313,0,-0.18303023278713226,0.2199225276708603,1.0772497653961182,10.986328125,-25.7568359375,12.6953125
0.20017504692077637,-147529318,1,0.13186749815940857,-0.16230621933937073,1.0624110698699951,-8.11767578125,-12.5732421875,-11.962890625
0.20018291473388672,-147529299,1,0.13137921690940857,-0.15473785996437073,1.0602138042449951,-5.79833984375,-10.92529296875,-15.625
0.21329498291015625,-147529294,0,-0.18937788903713226,0.2179694026708603,1.0416052341461182,13.73291015625,-26.7333984375,8.85009765625
0.22791004180908203,-147529280,1,0.11575420945882797,-0.14106598496437073,1.0587489604949951,-4.21142578125,-11.3525390625,-16.9677734375
0.2508809566497803,-147529275,0,-0.20207320153713226,0.2445807307958603,1.0484411716461182,15.80810546875,-25.45166015625,9.1552734375
0.2508888244628906,-147529256,0,-0.20964156091213226,0.2492194026708603,1.0479528903961182,15.93017578125,-25.146484375,12.26806640625
0.25800395011901855,-147529261,1,0.10818585008382797,-0.13764801621437073,1.0533778667449951,-1.52587890625,-12.26806640625,-14.892578125
0.2581040859222412,-147529242,1,0.10550030320882797,-0.12959137558937073,1.0484950542449951,-1.89208984375,-15.44189453125,-12.5732421875
0.27300190925598145,-147529237,0,-0.20793257653713226,0.2333502620458603,1.0516149997711182,16.9677734375,-25.20751953125,15.380859375
0.29673194885253906,-147529223,1,0.12478741258382797,-0.12422027438879013,1.0262782573699951,-2.685546875,-18.798828125,-10.68115234375
0.3030219078063965,-147529218,0,-0.18840132653713226,0.2372565120458603,1.0301306247711182,18.12744140625,-26.7333984375,17.27294921875
0.3031318187713623,-147529199,0,-0.17741499841213226,0.2396979182958603,1.0001013278961182,20.44677734375,-27.52685546875,17.9443359375
0.3207521438598633,-147529204,1,0.14138898253440857,-0.12177886813879013,1.0267665386199951,-2.0751953125,-18.1884765625,-9.033203125
0.32076215744018555,-147529185,1,0.16458234190940857,-0.12104644626379013,1.0167567729949951,3.23486328125,-14.34326171875,-8.9111328125
0.34316492080688477,-147529180,0,-0.15080367028713226,0.2299322932958603,0.9761756062507629,20.56884765625,-22.3388671875,17.7001953125
0.34403204917907715,-147529161,0,-0.14225874841213226,0.2316412776708603,0.9920447468757629,21.78955078125,-17.88330078125,17.7001953125
0.34788990020751953,-147529166,1,0.17752179503440857,-0.11933746188879013,1.0140712261199951,5.0048828125,-8.544921875,-10.80322265625
0.3630399703979492,-147529142,0,-0.11076460778713226,0.2025885432958603,1.0213415622711182,23.3154296875,-11.65771484375,12.02392578125
0.3781449794769287,-147529147,1,0.19192609190940857,-0.11836089938879013,1.0050380229949951,4.45556640625,-3.84521484375,-13.36669921875
0.37818098068237305,-147529128,1,0.20144757628440857,-0.11884918063879013,1.0253016948699951,1.5869140625,-2.50244140625,-23.37646484375
0.3980247974395752,-147529123,0,-0.10856734216213226,0.2082037776708603,1.0425817966461182,25.57373046875,-13.3056640625,-0.54931640625
0.3980851173400879,-147529104,0,-0.11271773278713226,0.2980475127696991,1.0506384372711182,26.3671875,-17.88330078125,-2.8076171875
0.4081079959869385,-147529109,1,0.20803937315940857,-0.10981597751379013,1.0294520854949951,4.94384765625,-6.04248046875,-28.13720703125
0.4229748249053955,-147529085,0,-0.08781538903713226,0.3136725127696991,1.0606482028961182,30.1513671875,-21.8505859375,2.01416015625
0.44783782958984375,-147529073,1,0.27810773253440857,-0.06953277438879013,1.0550868511199951,4.45556640625,-11.71875,-23.98681640625
0.4547879695892334,-147529049,0,-0.03263961151242256,0.3021979033946991,1.0413610935211182,29.4189453125,-27.587890625,6.28662109375
0.4681539535522461,-147529054,1,0.30032452940940857,-0.07856597751379013,1.0204188823699951,6.04248046875,-12.26806640625,-22.27783203125
0.4682738780975342,-147529035,1,0.34842023253440857,-0.09956207126379013,0.9637781977653503,5.4931640625,-7.62939453125,-29.11376953125
0.4956378936767578,-147529030,0,0.02863968536257744,0.2082037776708603,0.9793494343757629,31.6162109375,-25.5126953125,-2.13623046875
0.49564480781555176,-147529011,0,0.11384476721286774,0.10639713704586029,0.8682654500007629,32.65380859375,-12.939453125,-26.67236328125
0.501115083694458,-147529016,1,0.44217023253440857,-0.10688629001379013,0.9098231196403503,3.47900390625,11.04736328125,-45.10498046875
0.5150048732757568,-147528992,0,0.12458695471286774,0.06220768019556999,0.7952674031257629,29.47998046875,16.54052734375,-67.81005859375
0.5297579765319824,-147528997,1,0.48977765440940857,-0.13838043808937073,0.9095789790153503,2.44140625,57.4951171875,-77.1484375
0.5299019813537598,-147528978,1,0.39187726378440857,0.05180511623620987,0.9488856196403503,13.5498046875,78.0029296875,-93.017578125
0.5496189594268799,-147528973,0,0.18659867346286774,0.2499518245458603,1.1646521091461182,30.70068359375,6.591796875,-77.392578125
0.5496277809143066,-147528954,0,-0.14982710778713226,0.8568854331970215,0.8001502156257629,25.32958984375,2.01416015625,-45.8984375
0.5579509735107422,-147528959,1,0.19290265440940857,0.17143401503562927,1.1012294292449951,12.3291015625,61.21826171875,-66.89453125
0.5580549240112305,-147528940,1,0.32595929503440857,-0.14082184433937073,1.1896083354949951,32.77587890625,65.85693359375,-66.71142578125
0.5732548236846924,-147528935,0,0.13239945471286774,0.3087897002696991,0.9971717000007629,4.45556640625,-18.12744140625,-14.6484375
0.596027135848999,-147528921,1,-0.012175478041172028,0.14604339003562927,0.9291102290153503,10.7421875,141.41845703125,-39.794921875
0.6031169891357422,-147528916,0,-0.24479781091213226,0.8178229331970215,1.1880896091461182,12.451171875,-9.6435546875,-46.32568359375
0.6032040119171143,-147528897,0,-0.23161421716213226,0.2572760283946991,1.2659704685211182,-12.5732421875,8.6669921875,-48.76708984375
0.6201059818267822,-147528902,1,0.09402569383382797,0.03056488186120987,1.1739833354949951,-3.0517578125,108.58154296875,-73.2421875
0.6201138496398926,-147528883,1,0.13919171690940857,-0.07197418063879013,1.0895106792449951,-13.916015625,116.76025390625,-71.22802734375
0.6442079544067383,-147528878,0,-0.005784142762422562,0.10517643392086029,0.9688513875007629,-15.9912109375,-34.11865234375,-63.65966796875
0.6492269039154053,-147528864,1,0.27566632628440857,-0.07807769626379013,0.9547449946403503,-30.94482421875,107.421875,-86.48681640625
0.6645901203155518,-147528859,0,0.05671585723757744,0.2746100127696991,1.2232458591461182,-5.0048828125,-4.5166015625,-97.22900390625
0.6645989418029785,-147528840,0,0.08210648596286774,0.2711920440196991,1.1565954685211182,4.150390625,-37.90283203125,-110.9619140625
0.678257942199707,-147528845,1,0.29251202940940857,0.15678557753562927,0.8775965571403503,-32.77587890625,154.541015625,-92.4072265625
0.6979379653930664,-147528821,0,0.18147172033786774,0.4374518096446991,1.2396032810211182,3.173828125,-122.1923828125,-111.2060546875
0.7111310958862305,-147528809,1,-0.5585622191429138,-0.21772614121437073,0.7467371821403503,-84.28955078125,78.55224609375,-158.935546875
0.7111420631408691,-147528790,1,-0.14742937684059143,0.13578948378562927,1.2745692729949951,-139.7705078125,107.48291015625,-215.88134765625
0.7230789661407471,-147528785,0,0.18562211096286774,0.2226080745458603,1.4730017185211182,-72.509765625,-113.70849609375,-152.77099609375
0.7446861267089844,-147528771,1,-0.5851735472679138,-0.2887710630893707,1.4920985698699951,-110.2294921875,146.54541015625,-104.4921875
0.7538831233978271,-147528766,0,0.16999711096286774,0.1984381526708603,1.3614294528961182,-62.01171875,-56.82373046875,-98.9990234375
0.7538931369781494,-147528747,0,0.10261429846286774,0.1430182307958603,1.1697790622711182,-62.1337890625,-4.94384765625,-56.70166015625
0.7680680751800537,-147528752,1,-0.20040789246559143,0.09013519436120987,1.1898524761199951,-67.0166015625,-20.81298828125,14.46533203125
0.768151044845581,-147528733,1,0.019318662583827972,-0.0014175400137901306,1.2115809917449951,-80.38330078125,-100.341796875,29.6630859375
0.7933931350708008,-147528728,0,0.06696976721286774,0.1579108089208603,1.1138708591461182,-71.47216796875,20.01953125,-58.59375
0.8014960289001465,-147528714,1,0.08255108445882797,-0.12324371188879013,1.0553309917449951,-74.8291015625,-92.59033203125,28.99169921875
0.8132221698760986,-147528709,0,0.16828812658786774,0.1332526057958603,0.9070838093757629,-63.720703125,16.357421875,-54.38232421875
0.8132741451263428,-147528690,0,0.29865920543670654,0.4911627471446991,0.9510291218757629,-16.78466796875,-29.23583984375,-49.62158203125
0.8279318809509277,-147528695,1,0.016633115708827972,-0.20112457871437073,0.8251063227653503,-52.42919921875,-61.4013671875,4.150390625
0.8280470371246338,-147528676,1,0.07449444383382797,0.20390471816062927,0.9283778071403503,9.46044921875,-36.19384765625,10.498046875
0.8487019538879395,-147528671,0,0.16804398596286774,0.2575201690196991,0.9769080281257629,-19.47021484375,-41.748046875,-57.7392578125
0.8487091064453125,-147528652,0,0.25056350231170654,0.2912115752696991,1.0787146091461182,-38.4521484375,-47.66845703125,-37.41455078125
0.8597710132598877,-147528657,1,0.17312726378440857,0.04765472561120987,0.8856531977653503,32.89794921875,-62.3779296875,13.18359375
0.8746500015258789,-147528633,0,0.25227248668670654,0.2680182158946991,1.0904333591461182,-68.603515625,-4.94384765625,-12.0849609375
0.89957594871521,-147528638,1,0.29568585753440857,-0.10444488376379013,1.0929286479949951,7.87353515625,-106.87255859375,18.73779296875
0.8995840549468994,-147528619,1,0.35745343565940857,-0.18037262558937073,0.9652430415153503,-36.2548828125,-153.076171875,-4.94384765625
0.903404951095581,-147528614,0,0.13825882971286774,0.1959967464208603,0.9412634968757629,-71.4111328125,34.36279296875,-3.662109375
0.903411865234375,-147528595,0,0.09602250158786774,0.1466803401708603,0.8243201375007629,-43.8232421875,26.3671875,-2.0751953125
0.9195370674133301,-147528600,1,0.16946515440940857,-0.2606948912143707,0.9850184321403503,-31.18896484375,-163.87939453125,7.6904296875
0.9196012020111084,-147528581,1,0.31009015440940857,-0.18232575058937073,1.0143153667449951,-2.9296875,-164.24560546875,52.18505859375
0.9469759464263916,-147528576,0,0.07136429846286774,0.1300787776708603,0.7830603718757629,-12.63427734375,18.49365234375,-13.48876953125
0.962791919708252,-147528557,0,0.0005635134875774384,0.1742682307958603,0.8592322468757629,13.73291015625,8.85009765625,-28.86962890625
0.9795939922332764,-147528545,1,0.5793772339820862,-0.3292984068393707,0.8907801508903503,29.11376953125,-95.76416015625,85.87646484375
0.9797050952911377,-147528526,1,0.6116037964820862,-0.3676284849643707,0.8753992915153503,19.8974609375,-37.29248046875,56.884765625
0.9969329833984375,-147528521,0,0.04353226348757744,0.2475104182958603,0.9136756062507629,33.3251953125,16.9677734375,-73.8525390625
0.9969398975372314,-147528502,0,0.04304398223757744,0.2169928401708603,0.9649451375007629,28.3203125,23.4375,-86.85302734375
1.0076758861541748,-147528507,1,0.5422678589820862,-0.3581070005893707,0.9422938227653503,15.80810546875,-2.8076171875,16.357421875
1.0247159004211426,-147528483,0,-0.07048140466213226,0.1996588557958603,1.0084021091461182,17.08984375,31.982421875,-100.76904296875
1.046807050704956,-147528488,1,0.5144358277320862,-0.3869155943393707,1.0013759136199951,29.9072265625,2.01416015625,-21.30126953125
1.0468149185180664,-147528469,1,0.48318585753440857,-0.20356598496437073,0.9188563227653503,46.5087890625,22.39990234375,-41.3818359375
1.0546019077301025,-147528464,0,-0.08732710778713226,0.11616276204586029,1.0162146091461182,9.09423828125,38.6962890625,-96.6796875
1.0547089576721191,-147528445,0,-0.10637007653713226,0.10712955892086029,1.0145056247711182,17.2119140625,47.42431640625,-79.345703125
1.069565773010254,-147528450,1,0.38894757628440857,-0.0006851181387901306,0.7972742915153503,32.53173828125,26.30615234375,-48.33984375
1.0696628093719482,-147528431,1,0.6011057496070862,0.15849456191062927,0.8404871821403503,23.01025390625,12.3291015625,-42.724609375
1.0957529544830322,-147528426,0,-0.11637984216213226,0.1322760432958603,0.9439490437507629,35.70556640625,43.5791015625,-55.48095703125
1.1000869274139404,-147528412,1,0.5703440308570862,0.2620101869106293,0.8629481196403503,11.90185546875,18.06640625,19.95849609375
1.1149139404296875,-147528407,0,-0.15495406091213226,0.1752447932958603,0.9036658406257629,48.2177734375,34.85107421875,-47.9736328125
1.1150579452514648,-147528388,0,-0.16935835778713226,0.2064947932958603,0.9507849812507629,51.33056640625,20.8740234375,-37.4755859375
1.1297779083251953,-147528393,1,0.43289288878440857,0.18632659316062927,0.9281336665153503,-4.45556640625,25.20751953125,48.7060546875
1.129892110824585,-147528374,1,0.24148663878440857,-0.4550308287143707,0.7250086665153503,8.4228515625,24.169921875,51.33056640625
1.1504549980163574,-147528369,0,-0.22013960778713226,0.2140631526708603,1.0352575778961182,48.33984375,2.25830078125,11.77978515625
1.1504628658294678,-147528350,0,-0.23674117028713226,0.2963385283946991,1.0330603122711182,50.048828125,18.61572265625,44.61669921875
1.1596999168395996,-147528355,1,0.46536359190940857,-0.05854644626379013,0.9317957758903503,77.20947265625,4.638671875,14.46533203125
1.1746830940246582,-147528331,0,-0.23259077966213226,0.2675299346446991,1.0584509372711182,48.15673828125,27.16064453125,46.7529296875
1.1996221542358398,-147528336,1,0.46487531065940857,0.24467620253562927,0.9735438227653503,97.2900390625,50.59814453125,-29.78515625
1.2005491256713867,-147528317,1,0.48489484190940857,0.2834945619106293,0.9632899165153503,74.951171875,39.97802734375,-38.75732421875
1.203233003616333,-147528312,0,-0.09367476403713226,0.2975592315196991,1.0826208591461182,46.20361328125,22.705078125,68.90869140625
1.2032418251037598,-147528293,0,-0.08708296716213226,0.3771490752696991,1.0477087497711182,49.072265625,28.564453125,76.23291015625
1.218101978302002,-147528281,1,0.30447492003440857,0.3923812806606293,1.0982997417449951,67.93212890625,12.14599609375,-5.31005859375
1.2535560131072998,-147528262,1,0.38137921690940857,0.3743148744106293,1.0160243511199951,50.9033203125,-17.15087890625,20.01953125
1.26395583152771,-147528257,0,-0.14128218591213226,0.3271002471446991,1.1041052341461182,57.6171875,29.72412109375,46.630859375
1.264059066772461,-147528238,0,-0.18815718591213226,0.3329596221446991,1.0843298435211182,54.3212890625,41.259765625,49.49951171875
1.2781128883361816,-147528243,1,0.5937815308570862,0.24345549941062927,0.8573328852653503,55.6640625,-14.95361328125,33.14208984375
1.2781360149383545,-147528224,1,0.6118479371070862,0.2512679994106293,0.8705164790153503,62.31689453125,16.9677734375,36.4990234375
1.2987959384918213,-147528219,0,-0.17375288903713226,0.3971686065196991,0.9573767781257629,64.51416015625,44.921875,60.48583984375
1.2988028526306152,-147528200,0,-0.19011031091213226,0.5080084800720215,0.9717810750007629,67.138671875,36.9873046875,50.23193359375
1.3077118396759033,-147528205,1,0.6047678589820862,0.14921721816062927,0.8463465571403503,47.79052734375,31.982421875,40.34423828125
1.323024034500122,-147528181,0,-0.20671187341213226,0.5329108238220215,0.8851111531257629,60.6689453125,34.24072265625,30.6396484375
1.3459749221801758,-147528186,1,0.5603342652320862,0.3267074525356293,0.9064051508903503,54.62646484375,46.630859375,90.02685546875
1.3459818363189697,-147528167,1,0.6916819214820862,0.4014144837856293,0.9549891352653503,43.701171875,27.03857421875,90.63720703125
1.3529751300811768,-147528162,0,-0.17887984216213226,0.5504889488220215,0.8816931843757629,46.630859375,43.5791015625,17.822265625
1.353097915649414,-147528143,0,-0.15300093591213226,0.5441412925720215,0.8763220906257629,17.51708984375,48.40087890625,-6.7138671875
1.3682589530944824,-147528148,1,0.7258616089820862,0.3020492494106293,0.8741785883903503,30.3955078125,45.166015625,64.02587890625
1.393968105316162,-147528124,0,-0.16008101403713226,0.5316901206970215,0.8563025593757629,-13.18359375,57.18994140625,-18.37158203125
1.3993148803710938,-147528129,1,0.6076975464820862,0.2649398744106293,0.8165614008903503,38.57421875,73.8525390625,57.7392578125
1.3993229866027832,-147528110,1,0.5554514527320862,0.4370590150356293,0.7674891352653503,37.7197265625,104.00390625,65.36865234375
1.4129889011383057,-147528105,0,-0.22136031091213226,0.4674811065196991,0.8287146687507629,-47.05810546875,61.34033203125,-21.484375
1.4131100177764893,-147528086,0,-0.25383102893829346,0.4411139190196991,0.7725623250007629,-56.82373046875,54.443359375,-10.1318359375
1.4280498027801514,-147528091,1,0.48489484190940857,0.5327621698379517,0.7967860102653503,30.8837890625,120.91064453125,61.279296875
1.428135871887207,-147528072,1,0.36819562315940857,0.6013656854629517,0.8353602290153503,12.87841796875,103.3935546875,52.91748046875
1.4512591361999512,-147528067,0,-0.27604782581329346,0.4428229033946991,0.8043006062507629,-56.09130859375,29.84619140625,-2.685546875
1.4580469131469727,-147528053,1,0.27151593565940857,0.5872055292129517,0.8556239008903503,-9.27734375,73.79150390625,11.962890625
1.4730191230773926,-147528048,0,-0.31877243518829346,0.4850592315196991,0.9209998250007629,-55.23681640625,10.3759765625,-18.98193359375
1.4730920791625977,-147528029,0,-0.26115524768829346,0.4169439971446991,1.0030310153961182,-83.984375,14.7705078125,-23.25439453125
1.4997820854187012,-147528017,1,0.35354718565940857,0.4343734681606293,0.8837000727653503,-40.34423828125,52.978515625,-19.6533203125
1.5029261112213135,-147527993,0,-0.35539352893829346,0.3478522002696991,0.9744666218757629,-58.2275390625,10.6201171875,14.83154296875
1.5181281566619873,-147527998,1,0.43753156065940857,0.4397445619106293,0.8939539790153503,-36.31591796875,36.62109375,15.68603515625
1.533647060394287,-147527974,0,-0.35759079456329346,0.4110846221446991,0.9385779500007629,-0.1220703125,-15.0146484375,41.50390625
1.5555298328399658,-147527979,1,0.48465070128440857,0.3347640931606293,0.8978602290153503,-42.41943359375,35.09521484375,4.21142578125
1.5555388927459717,-147527960,1,0.45144757628440857,0.2588363587856293,0.9237391352653503,-36.19384765625,26.611328125,-6.53076171875
1.5646278858184814,-147527955,0,-0.25285446643829346,0.4943365752696991,0.9246619343757629,34.11865234375,-22.94921875,58.10546875
1.5647118091583252,-147527936,0,-0.20939742028713226,0.5224127769470215,0.9307654500007629,32.28759765625,-10.009765625,50.72021484375
1.5796117782592773,-147527941,1,0.29373273253440857,0.17265471816062927,0.9593836665153503,-29.052734375,-14.70947265625,-17.63916015625
1.5797288417816162,-147527922,1,0.41629132628440857,0.12724456191062927,0.8321864008903503,-4.21142578125,-24.4140625,-24.10888671875
1.5993568897247314,-147527917,0,-0.17399702966213226,0.4357428252696991,0.8848670125007629,30.57861328125,-14.09912109375,37.90283203125
1.6093077659606934,-147527903,1,0.48269757628440857,0.13505706191062927,0.8309656977653503,19.775390625,11.71875,-28.25927734375
1.6236469745635986,-147527898,0,-0.14079390466213226,0.3566412627696991,0.8965857625007629,36.7431640625,-29.72412109375,36.68212890625
1.6237878799438477,-147527879,0,-0.04875289276242256,0.3432135283946991,0.9983924031257629,34.0576171875,-46.44775390625,22.39990234375
1.6460659503936768,-147527884,1,0.43582257628440857,0.13237151503562927,0.8963953852653503,23.01025390625,28.74755859375,-18.310546875
1.64607572555542,-147527865,1,0.45584210753440857,0.05912933498620987,0.9618250727653503,14.58740234375,31.92138671875,-11.71875
1.6545348167419434,-147527860,0,-0.03434859588742256,0.2743658721446991,1.0777380466461182,19.53125,-30.09033203125,-10.8642578125
1.6546449661254883,-147527841,0,-0.03776656463742256,0.1857428401708603,1.0787146091461182,14.58740234375,-16.6015625,-16.54052734375
1.6694979667663574,-147527846,1,0.48782452940940857,0.06450042873620987,0.9745203852653503,12.14599609375,20.32470703125,-24.47509765625
1.6935100555419922,-147527822,0,-0.05192672088742256,0.1339850276708603,0.9783728718757629,21.91162109375,-6.34765625,-8.4228515625
1.703495979309082,-147527827,1,0.44876202940940857,0.10966644436120987,0.9493739008903503,27.77099609375,6.28662109375,-43.701171875
1.7035057544708252,-147527808,1,0.48928937315940857,0.12748870253562927,0.8729578852653503,35.94970703125,-13.12255859375,-71.6552734375
1.7131738662719727,-147527803,0,0.009840857237577438,0.1474127620458603,0.9073279500007629,41.015625,-13.97705078125,7.62939453125
1.7132620811462402,-147527784,0,0.06696976721286774,0.2145514339208603,0.9209998250007629,45.95947265625,-27.28271484375,8.85009765625
1.7275378704071045,-147527789,1,0.44070538878440857,0.14164885878562927,0.8050867915153503,31.6162109375,-16.9677734375,-103.21044921875
1.747572898864746,-147527765,0,0.08943070471286774,0.2223639339208603,0.9114783406257629,36.80419921875,-17.88330078125,2.62451171875
1.7579829692840576,-147527753,1,0.28714093565940857,0.15019378066062927,0.6861903071403503,68.115234375,3.0517578125,-87.95166015625
1.7730658054351807,-147527729,0,0.04084671661257744,0.1603522151708603,0.7864783406257629,20.751953125,44.49462890625,-13.97705078125
1.7962329387664795,-147527734,1,0.33694562315940857,0.2830062806606293,0.6329676508903503,81.60400390625,20.5078125,-56.15234375
1.7962417602539062,-147527715,1,0.38845929503440857,0.2981429994106293,0.6256434321403503,97.47314453125,-21.17919921875,-37.41455078125
1.8028631210327148,-147527710,0,-0.006516564637422562,0.05000064894556999,0.6854041218757629,43.88427734375,12.14599609375,-3.0517578125
1.8029239177703857,-147527691,0,0.09358109533786774,0.12177799642086029,0.6639197468757629,62.6220703125,-26.42822265625,5.37109375
1.8180358409881592,-147527696,1,0.37503156065940857,0.20243987441062927,0.5995203852653503,103.3935546875,-31.67724609375,-11.04736328125
1.8477489948272705,-147527672,0,0.16657914221286774,0.1811041682958603,0.6439002156257629,60.05859375,-26.06201171875,-3.35693359375
1.8519511222839355,-147527677,1,0.31839093565940857,0.2729965150356293,0.6837489008903503,54.19921875,12.8173828125,-47.42431640625
1.8519620895385742,-147527658,1,0.26028546690940857,0.4597640931606293,0.6429774165153503,9.09423828125,9.1552734375,-40.1611328125
1.8630518913269043,-147527653,0,0.19807328283786774,0.1747565120458603,0.6309607625007629,34.1796875,-18.310546875,-25.45166015625
1.8631799221038818,-147527634,0,0.16999711096286774,0.1281256526708603,0.6138709187507629,-4.08935546875,-18.06640625,-38.02490234375
1.8803141117095947,-147527639,1,0.32644757628440857,0.4004379212856293,0.5675379633903503,-11.5966796875,5.9814453125,-36.4990234375
1.8803260326385498,-147527620,1,0.42923077940940857,0.3435531556606293,0.5240809321403503,-19.22607421875,8.36181640625,-41.07666015625
1.8989319801330566,-147527615,0,0.14387406408786774,0.06489323079586029,0.6229041218757629,-18.98193359375,-26.85546875,-33.69140625
1.907608985900879,-147527601,1,0.42605695128440857,0.24809417128562927,0.5524012446403503,-21.484375,17.27294921875,-59.14306640625
1.9230120182037354,-147527596,0,0.15901078283786774,0.03657291457056999,0.6292517781257629,-16.4794921875,-38.51318359375,-25.2685546875
1.9231269359588623,-147527577,0,0.20759476721286774,0.06196353957056999,0.6390174031257629,-16.41845703125,-39.55078125,-26.611328125
1.9457941055297852,-147527582,1,0.39749249815940857,0.2969222962856293,0.6107508540153503,-24.0478515625,33.0810546875,-86.73095703125
1.94580078125,-147527563,1,0.37771710753440857,0.3855453431606293,0.6337000727653503,-49.13330078125,19.47021484375,-94.29931640625
1.9529578685760498,-147527558,0,0.27570998668670654,0.10883854329586029,0.6556189656257629,-28.38134765625,-33.87451171875,-37.90283203125
1.9530620574951172,-147527539,0,0.25398147106170654,0.07246159017086029,0.7308142781257629,-52.24609375,-39.00146484375,-62.3779296875
1.9679749011993408,-147527544,1,0.41067609190940857,0.2942367494106293,0.6544520258903503,-70.73974609375,-2.0751953125,-76.7822265625
1.9966461658477783,-147527520,0,0.23786820471286774,0.06416080892086029,0.7488806843757629,-76.11083984375,-46.38671875,-68.05419921875
2.001194953918457,-147527525,1,0.43289288878440857,0.3391586244106293,0.6983973383903503,-85.5712890625,-7.080078125,-70.86181640625
2.0138070583343506,-147527501,0,0.24250687658786774,-0.03251888230443001,0.7876990437507629,-92.7734375,-62.31689453125,-68.115234375
2.027935028076172,-147527489,1,0.44387921690940857,0.21660003066062927,0.6727625727653503,-126.5869140625,-25.45166015625,-117.61474609375
2.028033971786499,-147527470,1,0.42898663878440857,0.15141448378562927,0.6722742915153503,-120.42236328125,-30.94482421875,-125.18310546875
2.049467086791992,-147527465,0,0.38703811168670654,-0.05424739792943001,0.8799842000007629,-91.85791015625,-108.642578125,-87.09716796875
2.0580220222473145,-147527451,1,0.44241437315940857,0.12993010878562927,0.8075281977653503,-121.58203125,-38.51318359375,-121.76513671875
2.0732779502868652,-147527446,0,0.45295608043670654,-0.1401848942041397,1.0406286716461182,-102.1728515625,-160.5224609375,-129.21142578125
2.073357105255127,-147527427,0,0.43659865856170654,-0.2175774723291397,1.2649939060211182,-141.66259765625,-176.513671875,-148.01025390625
2.0962769985198975,-147527432,1,0.5090647339820862,0.14970549941062927,0.9276453852653503,-134.46044921875,-50.537109375,-132.4462890625
2.096284866333008,-147527413,1,0.5200510621070862,0.16996917128562927,0.9938074946403503,-141.29638671875,-48.9501953125,-145.32470703125
2.1046578884124756,-147527408,0,0.37483108043670654,-0.1819329410791397,1.3738806247711182,-171.7529296875,-159.97314453125,-131.40869140625
2.104665994644165,-147527389,0,0.37409865856170654,-0.06840755045413971,1.3753454685211182,-184.814453125,-136.16943359375,-101.25732421875
2.1181821823120117,-147527394,1,0.47293195128440857,0.17485198378562927,0.9918543696403503,-123.35205078125,-27.64892578125,-143.1884765625
2.1449179649353027,-147527370,0,0.47077834606170654,0.04536197707056999,1.3196814060211182,-167.41943359375,-146.3623046875,-104.91943359375
2.150674819946289,-147527375,1,0.5088205933570862,0.24199065566062927,0.9911219477653503,-109.68017578125,-8.23974609375,-146.66748046875
2.1506831645965576,-147527356,1,0.43460187315940857,0.21611174941062927,1.1180751323699951,-107.11669921875,6.77490234375,-154.1748046875
2.1630377769470215,-147527351,0,0.5684345960617065,0.012647133320569992,1.3665564060211182,-147.94921875,-188.5986328125,-138.671875
2.1631557941436768,-147527332,0,0.6116474866867065,-0.006151694804430008,1.4659216403961182,-143.24951171875,-207.82470703125,-155.70068359375
2.1815428733825684,-147527337,1,0.39236554503440857,0.2603012025356293,1.2621181011199951,-107.7880859375,15.13671875,-165.8935546875
2.1984801292419434,-147527313,0,0.6797627210617065,0.08247135579586029,1.6402380466461182,-129.39453125,-200.8056640625,-157.77587890625
2.207839012145996,-147527318,1,0.30301007628440857,0.3982406556606293,1.4691493511199951,-93.32275390625,10.498046875,-184.08203125
2.20792293548584,-147527299,1,0.25149640440940857,0.4507308900356293,1.5511806011199951,-56.09130859375,-4.45556640625,-170.71533203125
2.224260091781616,-147527294,0,0.7093037366867065,0.2667975127696991,1.6585485935211182,-129.94384765625,-181.0302734375,-126.220703125
2.2242701053619385,-147527275,0,0.7312763929367065,0.3559088408946991,1.7996618747711182,-151.3671875,-153.13720703125,-146.484375
2.2465710639953613,-147527280,1,0.18533429503440857,0.4534164369106293,1.5582606792449951,-28.6865234375,-21.54541015625,-149.0478515625
2.2465779781341553,-147527261,1,0.10940655320882797,0.4849105775356293,1.6192958354949951,-18.49365234375,-34.912109375,-130.615234375
2.2531471252441406,-147527256,0,0.6109150648117065,0.4064459502696991,1.8853552341461182,-172.8515625,-146.728515625,-179.74853515625
2.2931840419769287,-147527237,0,0.5117939710617065,0.3937506377696991,2.005472421646118,-182.4951171875,-158.63037109375,-186.82861328125
2.2978081703186035,-147527225,1,-0.010954774916172028,0.4202133119106293,1.6236903667449951,1.03759765625,-34.5458984375,-119.9951171875
2.2978949546813965,-147527206,1,-0.09567157179117203,0.4275375306606293,1.5536220073699951,34.36279296875,-27.34375,-123.35205078125
2.312901020050049,-147527201,0,0.5452412366867065,0.5050787925720215,2.553079843521118,-118.10302734375,-202.0263671875,-177.79541015625
2.3130080699920654,-147527182,0,0.5742939710617065,0.4018072783946991,2.949075937271118,-97.83935546875,-188.53759765625,-210.51025390625
2.338502883911133,-147527187,1,-0.23434343934059143,0.4448715150356293,1.5133388042449951,68.54248046875,-21.66748046875,-125.9765625
2.3466849327087402,-147527163,0,0.5474385023117065,0.1806158870458603,3.243997812271118,-94.482421875,-145.93505859375,-244.93408203125
2.3594980239868164,-147527168,1,-0.40914812684059143,0.5469223260879517,1.4317958354949951,81.35986328125,-27.40478515625,-127.13623046875
2.359576940536499,-147527149,1,-0.44503679871559143,0.6052719354629517,1.3121669292449951,87.34130859375,-31.982421875,-118.34716796875
2.3746931552886963,-147527144,0,0.47541701793670654,-0.2258782535791397,3.542825937271118,-64.94140625,-92.4072265625,-261.474609375
2.3747730255126953,-147527125,0,0.39607131481170654,-0.6602044105529785,3.677103281021118,5.67626953125,-36.7431640625,-239.56298828125
2.3958919048309326,-147527130,1,-0.39449968934059143,0.5535141229629517,1.1188075542449951,87.46337890625,-25.81787109375,-101.86767578125
2.395905017852783,-147527111,1,-0.42306414246559143,0.4734359681606293,1.0077235698699951,88.92822265625,-13.97705078125,-97.22900390625
2.404958963394165,-147527106,0,0.43733108043670654,-0.9514641761779785,3.524271249771118,88.92822265625,34.1796875,-207.21435546875
2.4197380542755127,-147527092,1,-0.5014333128929138,0.4651351869106293,0.8981043696403503,90.39306640625,-1.3427734375,-101.37939453125
2.4456958770751953,-147527087,0,0.6260517835617065,-1.1377434730529785,3.275491952896118,138.97705078125,99.12109375,-192.93212890625
2.4457039833068848,-147527068,0,0.7613056898117065,-1.2676262855529785,2.928079843521118,174.37744140625,177.42919921875,-178.40576171875
2.451256036758423,-147527073,1,-0.5597829222679138,0.5876938104629517,0.7823817133903503,82.51953125,13.00048828125,-97.16796875
2.451262950897217,-147527054,1,-0.5356130003929138,0.7195297479629517,0.6798426508903503,80.9326171875,30.09033203125,-69.39697265625
2.4645590782165527,-147527049,0,0.9409931898117065,-1.5437493324279785,2.625345468521118,200.62255859375,222.22900390625,-179.26025390625
2.4646739959716797,-147527030,0,1.1363056898117065,-1.7693352699279785,2.318704843521118,242.61474609375,256.40869140625,-171.630859375
2.4794390201568604,-147527035,1,-0.44894304871559143,0.6853500604629517,0.5616785883903503,65.3076171875,56.09130859375,-12.20703125
2.5006799697875977,-147527011,0,1.3391865491867065,-1.9001946449279785,2.081644296646118,267.9443359375,278.01513671875,-160.09521484375
2.5093140602111816,-147527016,1,-0.33712664246559143,0.6829086542129517,0.5497156977653503,34.36279296875,68.05419921875,34.5458984375
2.5094141960144043,-147526997,1,-0.31661882996559143,0.7275863885879517,0.6080653071403503,0.06103515625,57.55615234375,59.50927734375
2.525171995162964,-147526992,0,1.6458271741867065,-2.0098137855529785,1.8189489841461182,285.94970703125,303.77197265625,-142.08984375
2.5251808166503906,-147526973,0,2.072340965270996,-2.1645989418029785,1.6194860935211182,315.0634765625,331.97021484375,-114.74609375
2.545444965362549,-147526961,1,-0.35494890809059143,0.7983871698379517,0.7086512446403503,-43.3349609375,26.42822265625,141.7236328125
2.5689010620117188,-147526942,1,-0.20089617371559143,0.5879379510879517,0.6463953852653503,-46.7529296875,-9.033203125,225.830078125
2.5924580097198486,-147526937,0,2.040846824645996,-1.9170403480529785,1.1407263278961182,423.76708984375,388.916015625,-34.423828125
2.592465877532959,-147526918,0,1.9602802991867065,-1.9890618324279785,0.8965857625007629,475.341796875,367.85888671875,-17.15087890625
2.597968816757202,-147526923,1,0.013215146958827972,0.3772445619106293,0.6153895258903503,-45.34912109375,-55.2978515625,280.94482421875
2.59808611869812,-147526904,1,0.22781476378440857,0.3271957337856293,0.5619227290153503,-44.43359375,-69.15283203125,275.146484375
2.612844944000244,-147526899,0,1.8494404554367065,-1.8623528480529785,0.7725623250007629,493.59130859375,324.76806640625,-20.1416015625
2.612966775894165,-147526880,0,1.8438252210617065,-1.6953606605529785,0.6353552937507629,466.30859375,314.39208984375,-10.3759765625
2.628038167953491,-147526885,1,0.30496320128440857,0.19535979628562927,0.5875574946403503,-28.99169921875,-44.0673828125,257.87353515625
2.6496119499206543,-147526861,0,1.7664326429367065,-1.5720696449279785,0.41318732500076294,412.29248046875,347.47314453125,8.1787109375
2.659914970397949,-147526866,1,0.40384015440940857,0.11674652248620987,0.5890223383903503,-8.056640625,-22.03369140625,232.5439453125
2.659923791885376,-147526847,1,0.43850812315940857,0.05546722561120987,0.5719324946403503,12.51220703125,6.77490234375,189.88037109375
2.6730737686157227,-147526842,0,1.6804951429367065,-1.5122551918029785,0.25596076250076294,377.99072265625,372.0703125,31.06689453125
2.6731598377227783,-147526823,0,1.6031025648117065,-1.5078606605529785,0.15415412187576294,338.37890625,370.66650390625,46.81396484375
2.6966209411621094,-147526828,1,0.5129709839820862,-0.005323790013790131,0.5733973383903503,31.1279296875,17.822265625,150.93994140625
2.7055790424346924,-147526804,0,1.5586689710617065,-1.5422844886779785,0.14756232500076294,313.53759765625,353.1494140625,42.48046875
2.7179157733917236,-147526809,1,0.6055002808570862,-0.04463043063879013,0.6070887446403503,32.89794921875,5.31005859375,120.7275390625
2.718001127243042,-147526790,1,0.6333323121070862,-0.00923004001379013,0.6896082758903503,36.07177734375,-10.07080078125,97.47314453125
2.744093894958496,-147526785,0,1.5110615491867065,-1.6523919105529785,0.06626349687576294,309.87548828125,318.4814453125,56.5185546875
2.744102954864502,-147526766,0,1.4524677991867065,-1.6636223793029785,0.08506232500076294,307.9833984375,286.56005859375,81.6650390625
2.750666856765747,-147526771,1,0.6003733277320862,0.15043792128562927,0.7225672602653503,56.5185546875,-15.68603515625,77.880859375
2.750673770904541,-147526752,1,0.6152659058570862,0.22416839003562927,0.7201258540153503,81.48193359375,4.69970703125,77.81982421875
2.7632009983062744,-147526747,0,1.5867451429367065,-1.5452141761779785,0.09336310625076294,287.41455078125,260.498046875,138.671875
2.7779760360717773,-147526733,1,0.6377268433570862,0.24955901503562927,0.7755457758903503,90.576171875,29.35791015625,59.5703125
2.8007678985595703,-147526728,0,1.8711689710617065,-1.4407219886779785,0.02207404375076294,277.64892578125,284.5458984375,196.71630859375
2.8007748126983643,-147526709,0,2.119948387145996,-1.4189934730529785,-0.04701775312423706,282.3486328125,310.6689453125,236.02294921875
2.807610034942627,-147526697,1,0.6816721558570862,0.14628753066062927,0.8338953852653503,111.572265625,51.513671875,41.44287109375
2.822627067565918,-147526673,0,2.322829246520996,-1.4504876136779785,-0.11928337812423706,296.875,312.8662109375,280.1513671875
2.847050905227661,-147526678,1,0.9582834839820862,0.15336760878562927,0.9911219477653503,144.71435546875,53.22265625,-15.56396484375
2.85310697555542,-147526654,0,2.310622215270996,-1.3916497230529785,-0.17030876874923706,312.80517578125,285.94970703125,290.6494140625
2.86789608001709,-147526659,1,0.5713205933570862,0.3088851869106293,0.9171473383903503,198.486328125,63.04931640625,-36.07177734375
2.8679919242858887,-147526640,1,0.21804913878440857,0.5942856073379517,0.5628992915153503,118.5302734375,56.7626953125,118.83544921875
2.901803970336914,-147526621,1,0.21438702940940857,0.4309554994106293,0.47207897901535034,31.25,41.44287109375,190.97900390625
2.9018118381500244,-147526602,1,0.17581281065940857,0.4407211244106293,0.47818249464035034,13.671875,62.43896484375,218.3837890625
2.9129879474639893,-147526635,0,2.265700340270996,-1.3831048011779785,-0.13539665937423706,343.20068359375,257.6904296875,271.1181640625
2.9130868911743164,-147526616,0,2.207106590270996,-1.4707512855529785,-0.15468376874923706,381.28662109375,247.4365234375,244.56787109375
2.914268970489502,-147526597,0,2.177321434020996,-1.5811028480529785,-0.17397087812423706,408.38623046875,231.26220703125,231.26220703125
2.9144580364227295,-147526578,0,2.199538230895996,-1.6704583168029785,-0.22255486249923706,414.1845703125,217.59033203125,219.3603515625
2.9281508922576904,-147526583,1,0.09158428758382797,0.4814926087856293,0.5638758540153503,26.123046875,84.89990234375,216.85791015625
2.948315143585205,-147526559,0,2.222731590270996,-1.6377434730529785,-0.26088494062423706,394.22607421875,196.35009765625,218.68896484375
2.962239980697632,-147526564,1,-0.015837587416172028,0.5955063104629517,0.6295496821403503,43.9453125,89.84375,239.1357421875
2.962249994277954,-147526545,1,-0.08492938429117203,0.6169906854629517,0.7416102290153503,52.79541015625,79.7119140625,323.18115234375
2.9730019569396973,-147526540,0,2.135817527770996,-1.4524407386779785,-0.34193962812423706,369.81201171875,161.43798828125,199.76806640625
2.9730799198150635,-147526521,0,2.055251121520996,-1.3140130043029785,-0.33705681562423706,347.0458984375,97.65625,165.771484375
2.996391773223877,-147526526,1,0.0027171000838279724,0.4658676087856293,0.9396082758903503,49.98779296875,64.453125,429.13818359375
3.0036818981170654,-147526502,0,2.157301902770996,-1.2649407386779785,-0.36830681562423706,325.50048828125,3.23486328125,119.68994140625
3.0179200172424316,-147526507,1,0.23782452940940857,0.21904143691062927,1.1693446636199951,41.93115234375,44.49462890625,477.1728515625
3.0180490016937256,-147526488,1,0.8659983277320862,-0.19892731308937073,1.1791102886199951,90.33203125,63.4765625,478.69873046875
3.0450069904327393,-147526483,0,2.423415184020996,-1.3560051918029785,-0.40712517499923706,308.89892578125,-48.64501953125,37.841796875
3.045016050338745,-147526464,0,2.498854637145996,-1.4531731605529785,-0.35536736249923706,270.5078125,-33.02001953125,-33.8134765625
3.050602912902832,-147526469,1,0.8716135621070862,-0.2750991880893707,1.4794032573699951,236.4501953125,177.30712890625,382.080078125
3.0627388954162598,-147526445,0,2.426589012145996,-1.4031243324279785,-0.48647087812423706,219.54345703125,-30.21240234375,-69.88525390625
3.077929973602295,-147526433,1,0.9421702027320862,0.22831878066062927,1.9764735698699951,213.7451171875,222.47314453125,447.021484375
3.1004979610443115,-147526409,0,2.305739402770996,-1.6101555824279785,-0.7574669718742371,165.71044921875,-130.2490234375,-184.6923828125
3.1077308654785156,-147526414,1,1.240265965461731,0.12773284316062927,2.255526304244995,191.22314453125,170.8984375,517.63916015625
3.1078200340270996,-147526395,1,1.509064793586731,-0.005323790013790131,2.502352476119995,262.6953125,164.9169921875,481.0791015625
3.122981071472168,-147526390,0,2.013747215270996,-1.9172844886779785,-1.0125939846038818,129.5166015625,-161.19384765625,-184.75341796875
3.1231091022491455,-147526371,0,1.2986592054367065,-2.2671380043029785,-1.2286584377288818,104.248046875,-229.8583984375,-92.4072265625
3.1495721340179443,-147526376,1,1.565461277961731,-0.19990387558937073,2.374178647994995,397.52197265625,246.39892578125,353.8818359375
3.1535890102386475,-147526352,0,0.8980244398117065,-1.6103997230529785,-1.2950646877288818,183.77685546875,-422.7294921875,32.470703125
3.167956829071045,-147526357,1,0.9978342652320862,-0.03999175876379013,2.204989194869995,430.60302734375,223.93798828125,276.55029296875
3.168044090270996,-147526338,1,0.9822092652320862,0.06718597561120987,1.7679774761199951,280.2734375,40.283203125,294.12841796875
3.1957790851593018,-147526333,0,0.8272236585617065,-1.3416008949279785,-1.2796838283538818,202.392578125,-565.12451171875,103.08837890625
3.195786952972412,-147526314,0,0.8323506116867065,-1.1541008949279785,-0.36464470624923706,108.88671875,-536.865234375,17.2119140625
3.2001049518585205,-147526319,1,0.49856671690940857,-0.07099761813879013,1.5419032573699951,181.57958984375,-66.58935546875,320.98388671875
3.2001121044158936,-147526300,1,0.16775617003440857,-0.5348647832870483,1.2777431011199951,180.48095703125,-45.10498046875,298.095703125
3.2131099700927734,-147526295,0,0.5606220960617065,-0.7383294105529785,-0.01894158124923706,-104.6142578125,-298.52294921875,-153.6865234375
3.2503299713134766,-147526276,0,0.17048539221286774,-0.7019524574279785,-0.39150017499923706,-150.20751953125,-258.48388671875,-200.13427734375
3.250339984893799,-147526257,0,0.36848342418670654,-0.8032708168029785,-0.14858025312423706,-183.77685546875,-351.01318359375,-170.41015625
3.2580809593200684,-147526281,1,0.05252178758382797,-1.1061538457870483,0.8109461665153503,283.02001953125,16.54052734375,226.86767578125
3.2582240104675293,-147526262,1,-0.025359071791172028,-0.9438003301620483,0.9532801508903503,353.08837890625,4.82177734375,151.7333984375
3.259307861328125,-147526243,1,0.08303936570882797,-0.7165054082870483,0.6441981196403503,354.00390625,1.953125,95.27587890625
3.2733800411224365,-147526238,0,0.7508076429367065,-0.5315423011779785,0.08310920000076294,-170.41015625,-433.04443359375,-217.28515625
3.273509979248047,-147526219,0,0.7608174085617065,-0.7634758949279785,0.42710334062576294,-227.60009765625,-398.5595703125,-239.990234375
3.2971150875091553,-147526224,1,-0.13888445496559143,-0.7108901739120483,0.5946375727653503,273.37646484375,2.685546875,114.501953125
3.3027849197387695,-147526200,0,0.47053420543670654,-0.6321282386779785,0.23252326250076294,-267.578125,-327.880859375,-191.7724609375
3.318603992462158,-147526205,1,-0.08907977491617203,-0.7704604864120483,0.7384364008903503,236.26708984375,50.29296875,53.28369140625
3.3441851139068604,-147526181,0,0.44514358043670654,-0.4736810028553009,0.14756232500076294,-247.49755859375,-310.36376953125,-137.939453125
3.349787950515747,-147526169,1,0.021027646958827972,-0.8864272832870483,0.8309656977653503,309.99755859375,29.78515625,-55.96923828125
3.3503427505493164,-147526150,1,-0.10861102491617203,-0.6498550176620483,0.5221278071403503,305.60302734375,14.5263671875,-106.0791015625
3.362996816635132,-147526145,0,0.46833693981170654,-0.5481438636779785,0.44516974687576294,-226.318359375,-249.20654296875,-118.83544921875
3.378009080886841,-147526131,1,-0.16671648621559143,-0.4938491880893707,0.5216395258903503,286.1328125,-13.85498046875,-149.90234375
3.401348114013672,-147526126,0,0.40315139293670654,-0.3813958466053009,0.5079138875007629,-193.66455078125,-199.21875,-41.19873046875
3.4013559818267822,-147526107,0,0.5047138929367065,-0.03813411667943001,0.5733435750007629,-209.716796875,-131.34765625,25.20751953125
3.4077937602996826,-147526112,1,-0.21359148621559143,-0.3625015318393707,0.5331141352653503,268.1884765625,-44.0673828125,-212.21923828125
3.407892942428589,-147526093,1,-0.30416765809059143,-0.24702301621437073,0.5350672602653503,288.0859375,-61.03515625,-298.27880859375
3.422863006591797,-147526088,0,0.44831740856170654,-0.03178646042943001,0.5396521687507629,-232.666015625,-82.8857421875,53.1005859375
3.4228971004486084,-147526069,0,0.5261982679367065,-0.03227474167943001,0.5044959187507629,-234.9853515625,-48.4619140625,83.06884765625
3.448542833328247,-147526074,1,-0.5197438597679138,0.06450042873620987,0.5016199946403503,289.794921875,-88.134765625,-325.68359375
3.4529740810394287,-147526050,0,0.36408889293670654,0.1928229182958603,0.5481970906257629,-211.36474609375,-3.47900390625,107.2998046875
3.4679160118103027,-147526055,1,-0.5932301878929138,0.17680510878562927,0.45352429151535034,242.12646484375,-134.6435546875,-303.22265625
3.4679977893829346,-147526036,1,-0.5632008910179138,0.23173674941062927,0.38345593214035034,213.5009765625,-186.767578125,-311.82861328125
3.4959957599639893,-147526031,0,0.5774677991867065,0.1439947932958603,0.40146857500076294,-196.2890625,82.21435546875,136.8408203125
3.496004104614258,-147526012,0,0.5791767835617065,0.11225651204586029,0.26719123125076294,-209.5947265625,135.19287109375,186.09619140625
3.5,-147526017,1,-0.6183766722679138,0.23491057753562927,0.18252819776535034,222.412109375,-215.39306640625,-353.515625
3.51460599899292,-147525993,0,0.6299580335617065,0.1264166682958603,0.28647834062576294,-210.0830078125,182.12890625,269.287109375
3.529466152191162,-147525998,1,-0.8371266722679138,0.3103500306606293,-0.17220813035964966,220.64208984375,-215.88134765625,-389.95361328125
3.529567003250122,-147525979,1,-1.007780909538269,0.2761703431606293,-0.48446398973464966,155.45654296875,-283.26416015625,-399.84130859375
3.548041820526123,-147525974,0,0.9004658460617065,0.2426276057958603,0.40317755937576294,-174.86572265625,201.11083984375,340.4541015625
3.548048734664917,-147525955,0,1.1563252210617065,0.3517584502696991,0.47251349687576294,-165.83251953125,255.126953125,377.50244140625
3.5593137741088867,-147525960,1,-1.161833643913269,0.14726409316062927,-0.7732823491096497,110.7177734375,-346.19140625,-438.96484375
3.5593740940093994,-147525941,1,-1.674284815788269,-0.12495269626379013,-1.1253330707550049,64.3310546875,-360.29052734375,-514.22119140625
3.5737557411193848,-147525936,0,1.1455830335617065,0.4240240752696991,0.46763068437576294,-165.4052734375,279.296875,368.2861328125
3.6019718647003174,-147525917,0,1.3006123304367065,0.4069342315196991,0.5965369343757629,-153.076171875,284.5458984375,374.08447265625
3.619683027267456,-147525905,1,-2.4364919662475586,-0.2741226255893707,-1.1531651020050049,-86.24267578125,-309.63134765625,-608.70361328125
3.619824171066284,-147525886,1,-2.8818044662475586,-0.3397964537143707,-0.9029210209846497,-130.31005859375,-310.85205078125,-648.86474609375
3.6452457904815674,-147525881,0,1.4937275648117065,0.6034674644470215,0.6268103718757629,6.28662109375,176.45263671875,412.353515625
3.645254135131836,-147525862,0,1.8384541273117065,1.0949225425720215,0.5704138875007629,93.994140625,116.02783203125,332.94677734375
3.6496939659118652,-147525867,1,-3.3073415756225586,-0.6142104864120483,-0.8157628178596497,-155.1513671875,-247.25341796875,-716.49169921875
3.664090156555176,-147525843,0,1.9844502210617065,1.1793951988220215,0.36826545000076294,120.91064453125,114.19677734375,228.1494140625
3.6795499324798584,-147525848,1,-3.6862478256225586,-0.7741225957870483,-0.35848742723464966,-207.70263671875,-194.2138671875,-738.95263671875
3.679630994796753,-147525829,1,-4.214079856872559,-0.5912612676620483,0.18301647901535034,-269.59228515625,-130.615234375,-725.03662109375
3.7000350952148438,-147525824,0,1.8963154554367065,0.8231940269470215,-0.07362908124923706,99.91455078125,105.65185546875,157.77587890625
3.700042963027954,-147525805,0,1.6973408460617065,0.7855963706970215,-0.16396111249923706,138.3056640625,80.4443359375,190.00244140625
3.7098560333251953,-147525810,1,-4.513152122497559,-0.08857574313879013,-0.11141711473464966,-220.88623046875,-1.708984375,-708.67919921875
3.709939956665039,-147525791,1,-4.110075950622559,0.2925277650356293,-0.11898547410964966,-240.78369140625,135.55908203125,-565.91796875
3.7229490280151367,-147525786,0,1.7959736585617065,1.1820807456970215,-0.47084587812423706,240.1123046875,16.357421875,132.080078125
3.7486629486083984,-147525772,1,-4.220183372497559,0.05668792873620987,0.6983973383903503,-255.55419921875,228.6376953125,-397.5830078125
3.7545158863067627,-147525767,0,1.6179951429367065,0.7599616050720215,-0.5509240031242371,295.10498046875,-50.23193359375,78.91845703125
3.7546260356903076,-147525748,0,1.3062275648117065,0.05610416457056999,-0.7364708781242371,280.3955078125,-77.81982421875,149.169921875
3.767732858657837,-147525753,1,-4.254118919372559,0.02006683498620987,1.2838466167449951,-233.21533203125,227.84423828125,-249.93896484375
3.7678589820861816,-147525734,1,-3.7970876693725586,0.09526214748620987,1.3968837261199951,-251.40380859375,143.49365234375,-130.31005859375
3.7975988388061523,-147525729,0,1.2188252210617065,0.3065924346446991,-0.38979119062423706,304.13818359375,-40.8935546875,210.9375
3.797606945037842,-147525710,0,0.8123310804367065,-0.013720054179430008,-0.49355095624923706,410.09521484375,-119.68994140625,219.23828125
3.8021790981292725,-147525715,1,-3.0302419662475586,0.4131332337856293,1.6798427104949951,-279.78515625,139.22119140625,-5.92041015625
3.815629005432129,-147525691,0,0.8140400648117065,-0.3218255341053009,-0.28261345624923706,487.6708984375,-154.72412109375,238.28125
3.8295319080352783,-147525696,1,-2.0993337631225586,-0.15449371933937073,2.232577085494995,-233.7646484375,199.64599609375,13.12255859375
3.8297300338745117,-147525677,1,-1.034880518913269,0.2913070619106293,2.660067319869995,-142.9443359375,290.22216796875,-87.21923828125
3.8502440452575684,-147525672,0,0.9287861585617065,0.2890143096446991,-0.18227165937423706,415.1611328125,12.0849609375,121.9482421875
3.850253105163574,-147525653,0,0.8438252210617065,0.3678717315196991,-0.19032829999923706,179.99267578125,173.33984375,-37.2314453125
3.8596060276031494,-147525641,1,-0.12277118116617203,1.0842758417129517,2.761873960494995,66.89453125,172.4853515625,-240.234375
3.895519971847534,-147525622,1,-0.008757509291172028,0.7292953729629517,2.038729429244995,128.0517578125,105.1025390625,-317.626953125
3.90456485748291,-147525617,0,0.7381123304367065,-0.10185481607913971,-0.08998650312423706,80.56640625,205.50537109375,-247.25341796875
3.904670000076294,-147525598,0,1.0957783460617065,-0.3716302216053009,-0.18202751874923706,62.3779296875,125.06103515625,-201.72119140625
3.9196720123291016,-147525603,1,-0.36007586121559143,0.3401351869106293,1.2220790386199951,108.642578125,166.6259765625,-328.9794921875
3.919801950454712,-147525584,1,-0.6628102660179138,0.2874008119106293,0.8395106196403503,50.10986328125,291.6259765625,-274.47509765625
3.946593999862671,-147525579,0,0.6077412366867065,-0.1711907535791397,-0.09389275312423706,-2.01416015625,68.66455078125,-175.84228515625
3.946600914001465,-147525560,0,1.5498799085617065,0.4879889190196991,0.8428748250007629,47.30224609375,46.2646484375,-245.361328125
3.951122999191284,-147525565,1,-0.5878590941429138,0.3191390931606293,1.2159755229949951,-41.3818359375,399.59716796875,-182.12890625
3.964775800704956,-147525541,0,1.6941670179367065,0.4953131377696991,0.42685920000076294,-40.1611328125,144.71435546875,-382.14111328125
3.9780259132385254,-147525546,1,-0.5082692503929138,0.18437346816062927,1.7547938823699951,-61.5234375,471.61865234375,-77.392578125
3.9780499935150146,-147525527,1,-0.37667742371559143,-0.06196441501379013,2.084872007369995,-39.73388671875,501.5869140625,12.14599609375
4.006689071655273,-147525508,1,-0.37081804871559143,-0.2860855162143707,2.031649351119995,-18.85986328125,503.173828125,76.171875
4.024993896484375,-147525522,0,1.6294697523117065,0.1488776057958603,0.37705451250076294,-73.73046875,179.19921875,-414.73388671875
4.025158166885376,-147525503,0,1.4275654554367065,-0.03691341355443001,0.23691779375076294,-53.5888671875,139.6484375,-386.53564453125
4.025173902511597,-147525484,0,1.4492939710617065,0.11982487142086029,0.32627326250076294,23.49853515625,43.76220703125,-310.791015625
4.047775030136108,-147525489,1,-0.28976336121559143,-0.6688979864120483,2.009188413619995,9.94873046875,535.64453125,128.60107421875
4.047782897949219,-147525470,1,-0.34664812684059143,-0.9401382207870483,2.116122007369995,11.8408203125,579.40673828125,162.59765625
4.054521083831787,-147525465,0,1.5139912366867065,0.1857428401708603,0.00034552812576293945,-32.65380859375,2.0751953125,-263.24462890625
4.054605007171631,-147525446,0,1.5877217054367065,0.1562018245458603,-0.08290642499923706,-64.75830078125,-30.21240234375,-257.01904296875
4.0693519115448,-147525451,1,-0.33932390809059143,-1.1229995489120483,2.465243101119995,12.26806640625,595.0927734375,191.89453125
4.069432020187378,-147525432,1,-0.25851336121559143,-1.2648452520370483,2.656161069869995,27.9541015625,534.7900390625,193.359375
4.094441890716553,-147525427,0,2.045485496520996,0.5465826988220215,-0.01064079999923706,-97.2900390625,-55.419921875,-349.42626953125
4.101008892059326,-147525413,1,-0.04513446241617203,-1.4909194707870483,2.566561460494995,64.697265625,436.03515625,151.67236328125
4.1144208908081055,-147525408,0,2.365309715270996,0.7404303550720215,0.20762091875076294,-153.74755859375,-10.1318359375,-535.33935546875
4.1145100593566895,-147525389,0,1.9783467054367065,0.4916510283946991,0.22495490312576294,-232.36083984375,68.29833984375,-653.25927734375
4.129286050796509,-147525377,1,-0.010222353041172028,-1.8717788457870483,2.039705991744995,150.7568359375,321.96044921875,-16.357421875
4.151162147521973,-147525353,0,1.4104756116867065,-0.022264976054430008,0.36680060625076294,-247.49755859375,55.48095703125,-659.5458984375
4.159540891647339,-147525358,1,-0.10226336866617203,-1.9345229864120483,1.8063075542449951,212.40234375,376.40380859375,-100.2197265625
4.174581050872803,-147525334,0,1.1638935804367065,-0.10893489420413971,0.5687049031257629,-262.39013671875,11.474609375,-692.0166015625
4.198303937911987,-147525339,1,-0.32418718934059143,-1.6254409551620483,2.012362241744995,208.49609375,381.8359375,-23.3154296875
4.198310852050781,-147525320,1,-0.30978289246559143,-1.8822768926620483,2.123446226119995,112.6708984375,293.0908203125,189.63623046875
4.204437971115112,-147525315,0,0.8367451429367065,-0.4167962372303009,0.9029334187507629,-259.70458984375,-31.6162109375,-707.8857421875
4.204525947570801,-147525296,0,0.5899189710617065,-0.3137688934803009,1.0767614841461182,-209.47265625,-121.27685546875,-664.55078125
4.219372034072876,-147525301,1,-0.29366961121559143,-2.212355136871338,1.9867274761199951,57.4951171875,262.5732421875,323.3642578125
4.219473838806152,-147525282,1,-0.29366961121559143,-2.506056308746338,1.7999598979949951,32.89794921875,300.35400390625,385.68115234375
4.245468854904175,-147525277,0,-2.173264503479004,-2.8276848793029785,-1.0860803127288818,-77.392578125,-399.5361328125,-608.58154296875
4.249791860580444,-147525263,1,-0.5519704222679138,-3.549757480621338,1.9891688823699951,98.0224609375,347.2900390625,374.08447265625
4.264385938644409,-147525258,0,1.3914326429367065,-1.7830071449279785,0.8880408406257629,284.24072265625,-886.1083984375,-404.11376953125
4.264526128768921,-147525239,0,0.44294631481170654,-0.2285638004541397,2.446146249771118,-114.6240234375,-595.947265625,-446.77734375
4.278461933135986,-147525244,1,-0.5688161253929138,-3.657667636871338,1.4525477886199951,52.91748046875,309.87548828125,363.525390625
4.278563022613525,-147525225,1,-0.025359071791172028,-3.331007480621338,1.2916591167449951,-20.32470703125,330.9326171875,282.71484375
4.2971718311309814,-147525220,0,-0.25334274768829346,-0.2263665348291397,2.868021249771118,-344.7265625,-88.7451171875,-370.60546875
4.297179937362671,-147525201,0,-0.26970016956329346,0.3229498565196991,2.124124765396118,-337.890625,122.1923828125,-338.7451171875
4.30915093421936,-147525206,1,0.24466046690940857,-2.599318027496338,1.2496669292449951,-19.47021484375,381.89697265625,164.12353515625
4.324304819107056,-147525182,0,-0.007737267762422562,0.2531256377696991,0.9412634968757629,-333.31298828125,97.59521484375,-361.87744140625
4.346771001815796,-147525187,1,0.13259992003440857,-1.8554214239120483,1.0194423198699951,-79.58984375,303.7109375,218.3837890625
4.346779108047485,-147525168,1,0.15091046690940857,-1.8244155645370483,0.5104090571403503,-165.46630859375,185.97412109375,403.62548828125
4.354444980621338,-147525163,0,0.32917678356170654,-0.2510247528553009,0.28013068437576294,-324.462890625,-37.41455078125,-459.47265625
4.3545379638671875,-147525144,0,0.015211950987577438,-0.5015130043029785,0.5149939656257629,-247.55859375,-108.33740234375,-452.0263671875
4.369085788726807,-147525149,1,0.25125226378440857,-2.147657871246338,0.10415905714035034,-249.57275390625,97.22900390625,498.291015625
4.39525294303894,-147525125,0,-0.014573205262422562,-0.4856438934803009,0.6595252156257629,-119.93408203125,-92.6513671875,-393.310546875
4.401476144790649,-147525113,1,0.42239484190940857,-2.106398105621338,-0.04208117723464966,-255.67626953125,85.14404296875,305.84716796875
4.41464900970459,-147525089,0,0.17317093908786774,-0.9416985511779785,0.40732795000076294,96.74072265625,-13.5498046875,-289.85595703125
4.433363914489746,-147525094,1,0.39627179503440857,-1.6066421270370483,0.03238171339035034,-221.49658203125,125.79345703125,178.40576171875
4.433377981185913,-147525075,1,0.25320538878440857,-1.2667983770370483,0.20181530714035034,-260.07080078125,106.689453125,185.1806640625
4.452854871749878,-147525070,0,0.38532912731170654,-0.8752923011779785,0.38096076250076294,120.78857421875,-79.52880859375,-224.12109375
4.452863931655884,-147525051,0,0.31989943981170654,-0.8528313636779785,0.8829138875007629,145.8740234375,-136.71875,-157.53173828125
4.459600925445557,-147525056,1,0.22537335753440857,-1.0441421270370483,0.49087780714035034,-307.06787109375,65.73486328125,184.87548828125
4.4773149490356445,-147525032,0,0.29426467418670654,-0.7148919105529785,0.8584998250007629,181.70166015625,-89.35546875,-89.41650390625
4.495035886764526,-147525037,1,-0.05734149366617203,-0.6471694707870483,0.7672449946403503,-307.18994140625,61.1572265625,183.41064453125
4.495043039321899,-147525018,1,-0.14572039246559143,-0.4523452818393707,1.0414149761199951,-301.513671875,83.3740234375,135.25390625
4.504958868026733,-147525013,0,0.26130568981170654,-0.6599602699279785,0.7396033406257629,220.5810546875,-68.603515625,-21.54541015625
4.505047082901001,-147524994,0,0.47639358043670654,-0.3428216278553009,0.5079138875007629,283.69140625,-109.130859375,12.75634765625
4.519398927688599,-147524999,1,-0.30319109559059143,-0.04121246188879013,1.1898524761199951,-249.69482421875,109.2529296875,89.17236328125
4.519459009170532,-147524980,1,-0.5151051878929138,0.3042465150356293,1.1273524761199951,-224.9755859375,122.25341796875,83.06884765625
4.5449090003967285,-147524975,0,0.5410908460617065,-0.2349114567041397,0.39512091875076294,327.0263671875,-170.95947265625,17.27294921875
4.5490639209747314,-147524961,1,-0.6217946410179138,0.19096526503562927,1.1068446636199951,-233.0322265625,110.83984375,77.5146484375
4.564711809158325,-147524956,0,0.6387470960617065,-0.1912102848291397,0.40146857500076294,386.962890625,-248.22998046875,16.29638671875
4.564800024032593,-147524937,0,0.7713154554367065,-0.1353020817041397,0.5052283406257629,427.490234375,-289.1845703125,37.353515625
4.579269170761108,-147524942,1,-0.6855153441429138,0.5002914667129517,1.0494716167449951,-220.3369140625,81.97021484375,139.6484375
4.579406976699829,-147524923,1,-0.7218922972679138,0.4858871400356293,0.8666102290153503,-242.1875,75.37841796875,155.94482421875
4.598947048187256,-147524918,0,0.9490498304367065,-0.012499351054430008,0.6587927937507629,405.33447265625,-272.03369140625,104.55322265625
4.59895396232605,-147524899,0,1.0474385023117065,0.1312994807958603,0.6905310750007629,380.0048828125,-217.4072265625,177.1240234375
4.6084630489349365,-147524904,1,-0.5900563597679138,0.4333969056606293,0.8251063227653503,-262.51220703125,90.33203125,155.94482421875
4.62445592880249,-147524880,0,1.1236103773117065,0.1608404964208603,0.6373084187507629,403.99169921875,-200.74462890625,228.6376953125
4.647688865661621,-147524885,1,-0.35763445496559143,0.2930160462856293,0.9376551508903503,-247.802734375,77.880859375,72.93701171875
4.6560938358306885,-147524861,0,1.3357685804367065,0.3639654815196991,0.5892127156257629,466.24755859375,-176.33056640625,254.638671875
4.669414758682251,-147524849,1,-0.49948015809059143,0.6304184198379517,0.9327723383903503,-254.08935546875,-9.82666015625,-18.1884765625
4.669493913650513,-147524830,1,-0.6120290160179138,0.7351547479629517,1.1332118511199951,-304.01611328125,-98.876953125,-51.57470703125
4.693499803543091,-147524825,0,1.7874287366867065,0.9633307456970215,0.6036170125007629,423.583984375,77.0263671875,273.98681640625
4.699335813522339,-147524811,1,-0.6894215941429138,0.9075180292129517,1.4457118511199951,-314.0869140625,-173.27880859375,-71.8994140625
4.7143988609313965,-147524806,0,1.9151142835617065,1.2033209800720215,0.43052130937576294,226.806640625,309.02099609375,295.41015625
4.71447491645813,-147524787,0,1.8208760023117065,1.3114752769470215,0.16562873125076294,-4.7607421875,457.03125,361.2060546875
4.729454040527344,-147524792,1,-0.7878102660179138,0.9980942010879517,1.6456630229949951,-234.80224609375,-183.77685546875,-102.5390625
4.729534864425659,-147524773,1,-1.167448878288269,0.9539047479629517,1.6009852886199951,-91.6748046875,-133.6669921875,-142.822265625
4.752594947814941,-147524768,0,1.7127217054367065,1.3961920738220215,-0.0035607218742370605,-133.72802734375,415.71044921875,411.92626953125
4.7526021003723145,-147524749,0,1.8448017835617065,1.6562018394470215,-0.31191033124923706,-117.1875,135.7421875,423.4619140625
4.75938606262207,-147524754,1,-1.184782862663269,1.0056625604629517,1.4901454448699951,-8.36181640625,-142.02880859375,-170.47119140625
4.776611089706421,-147524730,0,2.528639793395996,2.1176276206970215,-0.07411736249923706,-111.26708984375,-133.30078125,359.4970703125
4.7963738441467285,-147524735,1,-1.308562159538269,1.1326156854629517,1.4422938823699951,15.869140625,-191.2841796875,-172.42431640625
4.7963807582855225,-147524716,1,-1.498991847038269,1.1599594354629517,1.2867763042449951,20.44677734375,-276.7333984375,-141.17431640625
4.804579019546509,-147524711,0,2.892653465270996,2.5670905113220215,0.6221717000007629,-265.56396484375,-114.1357421875,216.24755859375
4.804673910140991,-147524692,0,2.855055809020996,3.0197272300720215,0.7913611531257629,-382.01904296875,-38.75732421875,37.59765625
4.819533109664917,-147524697,1,-1.812712550163269,1.1338363885879517,1.1034266948699951,29.11376953125,-329.345703125,-103.82080078125
4.845317125320435,-147524673,0,2.562575340270996,3.6269049644470215,0.9056189656257629,-443.54248046875,-45.95947265625,-312.07275390625
4.849358081817627,-147524678,1,-2.2231130599975586,1.5930649042129517,0.9542567133903503,60.36376953125,-335.205078125,-33.38623046875
4.849364995956421,-147524659,1,-2.2365407943725586,1.3228012323379517,0.42032116651535034,119.384765625,-303.8330078125,177.06298828125
4.863602876663208,-147524654,0,1.2893818616867065,0.6808600425720215,2.792581796646118,-542.236328125,35.400390625,-591.552734375
4.863698959350586,-147524635,0,-0.6844950914382935,-0.7104973793029785,3.383402109146118,-483.09326171875,204.77294921875,-588.5009765625
4.877628803253174,-147524640,1,-1.687468409538269,0.6558090448379517,0.18423718214035034,71.2890625,-251.5869140625,209.716796875
4.877705812454224,-147524621,1,-1.475310206413269,0.7104965448379517,-0.14486438035964966,51.57470703125,-166.3818359375,124.8779296875
4.897093057632446,-147524616,0,-1.5121318101882935,-1.1587395668029785,2.966654062271118,-354.67529296875,282.5927734375,-482.421875
4.921751976013184,-147524597,0,-1.7206279039382935,-1.8567376136779785,1.6522009372711182,-198.8525390625,173.40087890625,-369.9951171875
4.944095849990845,-147524585,1,-0.7821950316429138,0.2703109681606293,0.09244030714035034,10.8642578125,-195.068359375,194.15283203125
4.945073127746582,-147524566,1,-0.42233172059059143,-0.02436675876379013,0.07290905714035034,-18.9208984375,-190.61279296875,172.05810546875
4.95287013053894,-147524561,0,-0.7091532945632935,-2.6907219886779785,0.8982947468757629,-100.830078125,91.796875,-324.40185546875
4.952953100204468,-147524542,0,-0.5179911851882935,-2.6157708168029785,0.06455451250076294,-104.98046875,150.5126953125,-258.30078125
4.9679999351501465,-147524547,1,-0.12301532179117203,-0.14814606308937073,-0.08309680223464966,-12.451171875,-127.0751953125,104.3701171875
4.995146989822388,-147524523,0,-0.06193648651242256,-2.1213860511779785,-0.5860802531242371,-28.86962890625,111.14501953125,-174.98779296875
5.000576972961426,-147524528,1,-0.15499773621559143,-0.16767731308937073,-0.09603625535964966,-47.91259765625,-66.89453125,20.32470703125
5.00058388710022,-147524509,1,0.07180889695882797,-0.3241714537143707,-0.20296984910964966,-96.98486328125,-49.8046875,-57.55615234375
5.012716054916382,-147524504,0,0.45393264293670654,-1.8923821449279785,-0.46376579999923706,111.87744140625,38.26904296875,-138.12255859375
5.0128350257873535,-147524485,0,1.1834248304367065,-1.7097649574279785,-1.3338830471038818,229.67529296875,-60.4248046875,-157.958984375
5.027677774429321,-147524490,1,0.028596006333827972,-0.08076324313879013,-0.05575305223464966,-69.9462890625,-45.47119140625,-63.29345703125
5.027766942977905,-147524471,1,-0.014861024916172028,-0.5114272832870483,0.36490124464035034,-15.31982421875,-9.82666015625,-117.3095703125
5.0506391525268555,-147524466,0,0.9534443616867065,-1.5925774574279785,-0.5457970499992371,528.62548828125,-190.4296875,-125.0
5.057942867279053,-147524452,1,-0.025603212416172028,-0.19209137558937073,0.6827723383903503,2.5634765625,43.212890625,-73.91357421875
5.07275390625,-147524447,0,1.2407978773117065,-1.7805657386779785,-0.46693962812423706,710.75439453125,-233.7646484375,-112.79296875
5.07286810874939,-147524428,0,1.5708760023117065,-1.5476555824279785,-0.6131798624992371,819.091796875,-209.3505859375,-43.39599609375
5.095988988876343,-147524433,1,-0.5180348753929138,0.3669906556606293,1.1947352886199951,-50.35400390625,7.9345703125,3.96728515625
5.095996856689453,-147524414,1,-0.6640309691429138,0.6064926385879517,1.4750087261199951,-84.53369140625,-65.673828125,69.39697265625
5.102635860443115,-147524409,0,1.7896260023117065,-1.4285149574279785,-0.44740837812423706,780.6396484375,-90.4541015625,50.29296875
5.102762937545776,-147524390,0,2.083815574645996,-1.4624505043029785,-0.31191033124923706,753.84521484375,67.19970703125,183.53271484375
5.117675065994263,-147524395,1,-0.8039235472679138,0.8284164667129517,1.7318446636199951,-42.78564453125,-130.126953125,109.31396484375
5.143740892410278,-147524371,0,2.584059715270996,-1.5352044105529785,-0.45204704999923706,733.7646484375,184.814453125,242.00439453125
5.147618055343628,-147524376,1,-1.241911768913269,1.1045395135879517,1.4154384136199951,13.671875,-128.72314453125,166.748046875
5.14769721031189,-147524357,1,-1.507048487663269,1.2659164667129517,1.3026454448699951,3.96728515625,-85.38818359375,304.38232421875
5.1656060218811035,-147524352,0,2.952467918395996,-1.7378411293029785,-0.6539513468742371,732.60498046875,267.15087890625,280.517578125
5.165616035461426,-147524333,0,3.135329246520996,-1.7566399574279785,-0.8448693156242371,763.24462890625,261.90185546875,245.05615234375
5.177954912185669,-147524321,1,-0.9848317503929138,0.8630844354629517,1.5497157573699951,32.16552734375,-30.517578125,469.6044921875
5.207558870315552,-147524302,1,-0.8385915160179138,0.5820785760879517,1.5343348979949951,41.93115234375,-24.169921875,511.29150390625
5.222944974899292,-147524297,0,3.094313621520996,-1.7671380043029785,-0.8810021281242371,674.560546875,221.49658203125,112.9150390625
5.223065137863159,-147524278,0,2.922438621520996,-1.8767571449279785,-0.8612267374992371,574.8291015625,192.56591796875,95.703125
5.246455907821655,-147524283,1,-0.7162770628929138,0.5103012323379517,1.5389735698699951,61.82861328125,-23.0712890625,566.2841796875
5.246464014053345,-147524264,1,-0.7048024535179138,0.23173674941062927,1.7237880229949951,76.904296875,-12.8173828125,621.7041015625
5.254709959030151,-147524259,0,2.714430809020996,-1.9187493324279785,-0.9122521281242371,503.2958984375,149.5361328125,77.45361328125
5.254717826843262,-147524240,0,2.531325340270996,-1.8308587074279785,-1.0379846096038818,448.73046875,40.52734375,9.8876953125
5.269176006317139,-147524245,1,-0.6220387816429138,-0.06147613376379013,2.177645444869995,127.3193359375,9.82666015625,662.4755859375
5.294452905654907,-147524221,0,2.394118309020996,-2.0352044105529785,-1.0753381252288818,446.96044921875,-74.0966796875,-85.75439453125
5.301519155502319,-147524226,1,-0.33615007996559143,-0.12910309433937073,2.468172788619995,187.8662109375,24.7802734375,642.08984375
5.301527976989746,-147524207,1,-0.35885515809059143,-0.4608902037143707,2.531649351119995,258.97216796875,31.1279296875,635.43701171875
5.314332962036133,-147524202,0,2.122389793395996,-2.3379387855529785,-1.0389611721038818,451.5380859375,-152.2216796875,-133.056640625
5.3143510818481445,-147524183,0,1.7439717054367065,-2.5933098793029785,-1.1966760158538818,423.33984375,-168.45703125,-146.66748046875
5.329257011413574,-147524188,1,-0.35665789246559143,-0.6393569707870483,2.509432554244995,371.64306640625,85.8154296875,652.89306640625
5.32927393913269,-147524169,1,0.20413312315940857,-1.1679214239120483,2.030916929244995,400.7568359375,201.66015625,659.7900390625
5.353549957275391,-147524164,0,1.4365986585617065,-2.0999016761779785,-1.1417443752288818,357.97119140625,-172.54638671875,-153.564453125
5.3594207763671875,-147524150,1,0.38723859190940857,-0.9372085332870483,1.8741786479949951,256.89697265625,223.2666015625,595.947265625
5.374752998352051,-147524145,0,0.8919209241867065,-2.0330071449279785,-1.2484338283538818,259.09423828125,-257.01904296875,-134.94873046875
5.3748180866241455,-147524126,0,0.5957783460617065,-1.9395012855529785,-0.6832482218742371,155.45654296875,-278.3203125,-204.04052734375
5.39948582649231,-147524131,1,0.43972882628440857,-0.9875015020370483,1.7838466167449951,75.0732421875,87.46337890625,636.962890625
5.399494171142578,-147524112,1,0.27298077940940857,-1.1642593145370483,1.6324794292449951,-14.09912109375,8.544921875,561.46240234375
5.404297828674316,-147524107,0,0.8028095960617065,-1.3796868324279785,-0.19911736249923706,54.62646484375,-212.58544921875,-310.85205078125
5.4193079471588135,-147524093,1,-0.24655047059059143,-1.6146987676620483,1.8397548198699951,96.435546875,-63.17138671875,449.5849609375
5.446470737457275,-147524088,0,0.6865986585617065,-1.1221184730529785,-0.22939079999923706,-115.05126953125,-29.4189453125,-417.66357421875
5.4464781284332275,-147524069,0,0.28327834606170654,-1.3525872230529785,-0.48598259687423706,-216.30859375,62.5,-438.65966796875
5.450544118881226,-147524057,1,-0.29855242371559143,-1.2082046270370483,1.3714931011199951,322.8759765625,-156.3720703125,171.81396484375
5.464184999465942,-147524033,0,0.07990922033786774,-0.9580559730529785,-0.36073845624923706,-59.99755859375,-239.1357421875,-300.23193359375
5.4794089794158936,-147524038,1,-0.21090593934059143,-1.5180190801620483,1.1783778667449951,460.5712890625,-143.61572265625,62.255859375
5.479526042938232,-147524019,1,-0.33737078309059143,-1.4994643926620483,0.7064539790153503,579.77294921875,-105.28564453125,25.57373046875
5.499607086181641,-147524014,0,0.29011428356170654,-0.1472649723291397,0.03501349687576294,10.80322265625,-339.41650390625,-294.61669921875
5.508270978927612,-147524000,1,-0.24703875184059143,-1.4606460332870483,0.06704968214035034,657.89794921875,-59.38720703125,-42.3583984375
5.524377107620239,-147523995,0,0.5491474866867065,-0.1274895817041397,0.17392951250076294,16.845703125,-324.89013671875,-405.33447265625
5.52449893951416,-147523976,0,0.09968461096286774,-0.7192864418029785,0.03061896562576294,-60.36376953125,-280.517578125,-329.58984375
5.5471510887146,-147523981,1,0.008820615708827972,-1.2975600957870483,-0.21835070848464966,675.29296875,8.85009765625,-124.267578125
5.54715895652771,-147523962,1,0.10061749070882797,-0.5592788457870483,-0.06991320848464966,587.158203125,7.2021484375,-174.4384765625
5.559712886810303,-147523957,0,0.44123733043670654,-0.1384759098291397,0.15806037187576294,-113.22021484375,-286.7431640625,-218.07861328125
5.568455934524536,-147523943,1,0.34549054503440857,-0.7101577520370483,0.12124890089035034,481.99462890625,-18.73779296875,-239.31884765625
5.59470796585083,-147523938,0,0.5767353773117065,0.1476569026708603,0.19785529375076294,-138.0615234375,-281.3720703125,-224.79248046875
5.59471583366394,-147523919,0,0.49519240856170654,0.3126959502696991,0.16269904375076294,-162.9638671875,-254.45556640625,-232.23876953125
5.600775957107544,-147523924,1,0.19705304503440857,-0.4975112974643707,0.26382702589035034,395.93505859375,-89.9658203125,-341.552734375
5.600784063339233,-147523905,1,-0.24874773621559143,-0.2853530943393707,0.25015515089035034,367.49267578125,-132.6904296875,-418.76220703125
5.6127378940582275,-147523900,0,0.26789748668670654,0.08222721517086029,0.05747443437576294,-174.8046875,-251.77001953125,-177.18505859375
5.612857103347778,-147523881,0,0.40998733043670654,0.3241705596446991,-0.0011193156242370605,-167.6025390625,-272.216796875,-124.69482421875
5.629462003707886,-147523886,1,-0.9738454222679138,-0.10249175876379013,0.25430554151535034,361.99951171875,-128.96728515625,-454.89501953125
5.651028871536255,-147523862,0,0.26862990856170654,0.1317877620458603,0.23765021562576294,-200.98876953125,-231.26220703125,-60.24169921875
5.659204959869385,-147523867,1,-0.7658376097679138,0.20097503066062927,0.03286999464035034,334.228515625,-151.30615234375,-446.4111328125
5.659321069717407,-147523848,1,-0.7350758910179138,0.3564926087856293,-0.14803820848464966,293.02978515625,-215.63720703125,-445.556640625
5.674384832382202,-147523843,0,0.11140336096286774,0.07612369954586029,0.26841193437576294,-268.9208984375,-126.40380859375,13.85498046875
5.674422025680542,-147523824,0,-0.15934859216213226,-0.028368491679430008,0.26206427812576294,-306.396484375,-29.72412109375,98.93798828125
5.700668811798096,-147523829,1,-0.9103688597679138,0.2668929994106293,-0.5579503178596497,239.07470703125,-290.71044921875,-480.5908203125
5.704715013504028,-147523805,0,-0.14885054528713226,-0.03520442917943001,0.24717170000076294,-313.04931640625,21.97265625,192.32177734375
5.717947959899902,-147523793,1,-1.582732081413269,0.06254730373620987,-1.2242100238800049,124.267578125,-265.80810546875,-570.12939453125
5.746193885803223,-147523769,0,0.19709672033786774,0.07856510579586029,0.42002326250076294,-303.16162109375,70.86181640625,336.85302734375
5.750249862670898,-147523774,1,-1.871306300163269,0.01127777248620987,-1.3579990863800049,68.66455078125,-259.521484375,-578.125
5.7502570152282715,-147523755,1,-2.0497732162475586,-0.09809722751379013,-1.3628818988800049,15.93017578125,-253.2958984375,-585.51025390625
5.764302015304565,-147523750,0,0.35017287731170654,0.12470768392086029,0.6775916218757629,-262.8173828125,76.96533203125,399.2919921875
5.764388084411621,-147523731,0,0.5310810804367065,0.1903815120458603,0.7715857625007629,-193.54248046875,72.265625,458.0078125
5.779619932174683,-147523736,1,-2.2214040756225586,-0.2780288755893707,-1.3448154926300049,-6.65283203125,-228.08837890625,-627.50244140625
5.797857046127319,-147523712,0,0.7823017835617065,0.12299869954586029,0.8128455281257629,-139.2822265625,69.82421875,528.1982421875
5.8128650188446045,-147523717,1,-2.6698904037475586,-0.4179214537143707,-1.2828037738800049,-4.5166015625,-157.53173828125,-734.619140625
5.812875986099243,-147523698,1,-3.2414236068725586,-0.3888687193393707,-1.0845615863800049,-22.27783203125,-126.5869140625,-764.16015625
5.824588060379028,-147523693,0,1.0501240491867065,0.2331061214208603,0.9778845906257629,-115.478515625,92.8955078125,585.51025390625
5.824665069580078,-147523674,0,1.4617451429367065,0.4962897002696991,1.4100134372711182,-99.54833984375,135.31494140625,581.84814453125
5.8461408615112305,-147523679,1,-3.6667165756225586,-0.10395660251379013,-0.9468663334846497,-18.49365234375,-118.7744140625,-706.35986328125
5.8461480140686035,-147523660,1,-3.8512868881225586,0.02543792873620987,-1.0782139301300049,15.0146484375,-77.880859375,-613.70849609375
5.855065107345581,-147523655,0,1.6543720960617065,0.7941412925720215,1.7735388278961182,-67.138671875,195.12939453125,475.40283203125
5.869237899780273,-147523641,1,-3.7731618881225586,0.2522445619106293,-0.8750889897346497,98.93798828125,-18.00537109375,-442.5048828125
5.8955488204956055,-147523636,0,1.8030537366867065,1.0380377769470215,2.264749765396118,-73.54736328125,374.45068359375,337.7685546875
5.8955559730529785,-147523617,0,1.6382588148117065,0.7438483238220215,2.223245859146118,-104.55322265625,542.29736328125,249.51171875
5.900104999542236,-147523622,1,-3.7953786849975586,0.3042465150356293,-0.7452061772346497,111.81640625,-25.0244140625,-226.4404296875
5.900112867355347,-147523603,1,-3.2196950912475586,0.3699203431606293,-0.24838000535964966,-93.3837890625,-28.86962890625,-120.4833984375
5.9148828983306885,-147523598,0,1.2671650648117065,0.6303229331970215,2.105814218521118,-117.85888671875,657.71484375,211.60888671875
5.914963960647583,-147523579,0,0.6817158460617065,0.5829596519470215,1.7029821872711182,-103.21044921875,669.12841796875,168.64013671875
5.9294610023498535,-147523584,1,-2.5260915756225586,0.3335433900356293,0.7223231196403503,-132.99560546875,48.64501953125,-161.7431640625
5.951162099838257,-147523560,0,0.14070023596286774,0.3102545440196991,1.2493689060211182,-67.626953125,585.5712890625,133.1787109375
5.959248065948486,-147523565,1,-2.2504568099975586,1.0120102167129517,1.3805263042449951,-62.80517578125,132.8125,-331.298828125
5.974383115768433,-147523541,0,-0.28117477893829346,-0.1309075504541397,0.9615271687507629,28.4423828125,368.46923828125,171.32568359375
5.998463869094849,-147523529,1,-1.669646143913269,1.8918930292129517,1.5253016948699951,-23.13232421875,84.9609375,-294.37255859375
5.998471975326538,-147523510,1,-1.049040675163269,1.0903793573379517,1.5709559917449951,-1.40380859375,48.88916015625,-222.22900390625
6.0043580532073975,-147523505,0,0.35871779918670654,0.2130865901708603,0.7759802937507629,140.5029296875,103.33251953125,234.0087890625
6.019406080245972,-147523491,1,-0.5937184691429138,0.6313949823379517,1.4195888042449951,33.38623046875,76.171875,-277.4658203125
6.046258926391602,-147523486,0,0.48713576793670654,0.07710026204586029,0.6675818562507629,157.89794921875,82.275390625,200.25634765625
6.046267032623291,-147523467,0,0.44074904918670654,-0.04741146042943001,0.8492224812507629,186.5234375,32.3486328125,175.4150390625
6.0503089427948,-147523472,1,-0.46090593934059143,0.6899887323379517,1.3690516948699951,44.7998046875,102.9052734375,-336.0595703125
6.050317049026489,-147523453,1,-0.41769304871559143,0.5732895135879517,1.3924891948699951,13.7939453125,123.96240234375,-353.6376953125
6.0642759799957275,-147523448,0,0.7700947523117065,-0.1418938785791397,1.2100622653961182,250.91552734375,-15.31982421875,160.33935546875
6.064363956451416,-147523429,0,1.0867451429367065,-0.04081966355443001,1.5098669528961182,341.796875,-8.30078125,92.34619140625
6.079526901245117,-147523434,1,-0.5097340941429138,0.5181137323379517,1.3077723979949951,-5.9814453125,198.486328125,-307.7392578125
6.099429130554199,-147523410,0,1.2019795179367065,0.03852603957056999,1.5350134372711182,370.7275390625,100.64697265625,20.08056640625
6.109286069869995,-147523415,1,-0.40060320496559143,0.3472152650356293,1.4127528667449951,-42.54150390625,255.126953125,-268.6767578125
6.109358072280884,-147523396,1,-0.30880632996559143,0.24540862441062927,1.4635341167449951,-51.45263671875,327.2705078125,-242.7978515625
6.122896909713745,-147523391,0,1.0713642835617065,-0.1436028629541397,1.0335485935211182,402.099609375,132.568359375,-15.625
6.123028993606567,-147523372,0,1.0486592054367065,0.1259283870458603,0.8284705281257629,379.69970703125,79.58984375,-20.08056640625
6.148550033569336,-147523377,1,-0.16915789246559143,0.03959808498620987,1.5890223979949951,-52.91748046875,414.97802734375,-212.158203125
6.152754783630371,-147523353,0,1.1836689710617065,0.5297369956970215,0.6060584187507629,307.43408203125,89.111328125,-84.47265625
6.167803764343262,-147523358,1,-0.06979266554117203,-0.08100738376379013,1.7643153667449951,-65.5517578125,484.86328125,-179.62646484375
6.167940139770508,-147523339,1,0.014435850083827972,-0.13105621933937073,2.021639585494995,-85.38818359375,506.8359375,-118.65234375
6.196678876876831,-147523334,0,1.3592060804367065,0.9677252769470215,0.44468146562576294,136.5966796875,94.1162109375,-180.0537109375
6.196692943572998,-147523315,0,1.3147724866867065,0.9467291831970215,0.7198279500007629,74.15771484375,46.69189453125,-311.09619140625
6.201555967330933,-147523320,1,0.10891827195882797,-0.23701325058937073,2.144930601119995,-90.33203125,494.873046875,-62.6220703125
6.201563835144043,-147523301,1,0.23172101378440857,-0.6518081426620483,2.291903257369995,-82.33642578125,463.5009765625,-20.32470703125
6.213105201721191,-147523296,0,1.3438252210617065,0.8166022300720215,1.0062048435211182,84.3505859375,-14.404296875,-396.66748046875
6.24934196472168,-147523277,0,1.0769795179367065,0.6645026206970215,1.1773474216461182,81.35986328125,-50.048828125,-465.14892578125
6.257796049118042,-147523265,1,-0.08590594679117203,-0.9228042364120483,2.081942319869995,-40.95458984375,465.8203125,-22.27783203125
6.257917881011963,-147523246,1,-0.32443132996559143,-1.0087417364120483,2.286532163619995,-71.83837890625,474.853515625,70.3125
6.272806167602539,-147523241,0,0.7051533460617065,0.2985357940196991,1.1592810153961182,50.59814453125,-98.0224609375,-563.90380859375
6.272904872894287,-147523222,0,0.6118916273117065,-0.030321616679430008,1.1619665622711182,26.4892578125,-158.75244140625,-615.90576171875
6.294918775558472,-147523227,1,-0.32491961121559143,-1.2660659551620483,2.591952085494995,-82.33642578125,460.75439453125,199.21875
6.302517890930176,-147523203,0,0.5952900648117065,-0.2261223942041397,1.3384802341461182,11.29150390625,-213.9892578125,-655.57861328125
6.31770396232605,-147523208,1,-0.34005632996559143,-1.6747573614120483,2.752352476119995,-44.0673828125,443.9697265625,293.88427734375
6.317777872085571,-147523189,1,-0.29537859559059143,-1.9330581426620483,2.788485288619995,-12.0849609375,431.94580078125,336.669921875
6.346946954727173,-147523184,0,0.6775654554367065,-0.4473138153553009,1.6697790622711182,-7.32421875,-254.57763671875,-682.18994140625
6.346953868865967,-147523165,0,0.42732131481170654,-1.0278801918029785,1.4656774997711182,48.15673828125,-216.1865234375,-748.35205078125
6.350872039794922,-147523170,1,-0.30709734559059143,-2.256300449371338,2.639315366744995,16.6015625,413.14697265625,359.375
6.350878953933716,-147523151,1,-0.5163258910179138,-3.132765293121338,2.431063413619995,81.298828125,375.30517578125,419.921875
6.36313796043396,-147523146,0,0.7019795179367065,-1.6494622230529785,0.6834509968757629,96.19140625,-233.82568359375,-857.421875
6.393662929534912,-147523132,1,-0.40963640809059143,-3.376173496246338,1.7982509136199951,70.068359375,317.7490234375,432.4951171875
6.398643970489502,-147523127,0,0.17341507971286774,-2.5610833168029785,0.7691443562507629,9.33837890625,-339.4775390625,-783.26416015625
6.398651838302612,-147523108,0,-0.33122360706329346,-2.3062005043029785,1.7569372653961182,-107.5439453125,-444.88525390625,-523.74267578125
6.40904688835144,-147523113,1,-0.026091493666172028,-3.162794589996338,1.6097743511199951,35.64453125,375.30517578125,325.01220703125
6.409162998199463,-147523094,1,0.22976788878440857,-2.360792636871338,1.6639735698699951,12.75634765625,401.55029296875,188.96484375
6.424215078353882,-147523089,0,-0.37663376331329346,-1.6055169105529785,2.388284921646118,-188.3544921875,-264.16015625,-401.79443359375
6.424294948577881,-147523070,0,-0.48014938831329346,-1.4314446449279785,1.5015661716461182,-217.6513671875,-4.39453125,-354.736328125
6.446493864059448,-147523075,1,-0.14840593934059143,-1.3690932989120483,1.3678309917449951,-7.6904296875,335.9375,234.86328125
6.454329967498779,-147523051,0,0.21345414221286774,-1.3713860511779785,0.5557654500007629,-197.20458984375,38.51318359375,-349.54833984375
6.469425201416016,-147523056,1,-0.34274187684059143,-1.3876479864120483,0.8517176508903503,-75.13427734375,233.7646484375,429.50439453125
6.469559907913208,-147523037,1,-0.25021257996559143,-1.9179214239120483,0.43692272901535034,-127.8076171875,200.0732421875,515.7470703125
6.494215965270996,-147523032,0,0.27180373668670654,-1.0056633949279785,0.25425177812576294,-35.64453125,5.7373046875,-368.95751953125
6.4942240715026855,-147523013,0,0.5105732679367065,-0.8926262855529785,0.27817755937576294,113.8916015625,-44.98291015625,-395.263671875
6.49927020072937,-147523001,1,0.25076398253440857,-2.484327793121338,0.32046765089035034,-149.2919921875,210.87646484375,303.40576171875
6.527419090270996,-147522982,1,0.25222882628440857,-1.8324722051620483,-0.05941516160964966,-148.98681640625,199.52392578125,194.82421875
6.549534797668457,-147522977,0,0.41975295543670654,-0.7898430824279785,0.14023810625076294,231.50634765625,23.49853515625,-342.28515625
6.5495898723602295,-147522958,0,0.39704787731170654,-0.8909173011779785,0.27671271562576294,287.53662109375,-13.671875,-280.1513671875
6.5591819286346436,-147522963,1,0.012482725083827972,-1.3576186895370483,-0.15633898973464966,-204.52880859375,156.67724609375,212.70751953125
6.559253931045532,-147522944,1,-0.19698992371559143,-1.2035659551620483,0.05801647901535034,-278.99169921875,133.85009765625,240.3564453125
6.574267864227295,-147522939,0,0.45295608043670654,-0.7397942543029785,0.38730841875076294,312.43896484375,-51.33056640625,-230.40771484375
6.57433295249939,-147522920,0,0.35041701793670654,-0.5251946449279785,0.6172888875007629,346.5576171875,-64.39208984375,-168.39599609375
6.5975799560546875,-147522925,1,-0.26022234559059143,-0.9328140020370483,0.27554577589035034,-278.80859375,178.5888671875,212.646484375
6.604294061660767,-147522901,0,0.33528029918670654,-0.3879876434803009,0.7103064656257629,425.4150390625,-74.15771484375,-111.02294921875
6.619253873825073,-147522906,1,-0.5343922972679138,-0.5475600957870483,0.6498133540153503,-259.8876953125,248.10791015625,152.40478515625
6.619312047958374,-147522887,1,-0.5570973753929138,-0.07514800876379013,0.7035242915153503,-257.01904296875,262.0849609375,159.66796875
6.648175001144409,-147522882,0,0.40437209606170654,-0.2437005192041397,0.6646521687507629,505.43212890625,-97.7783203125,-61.21826171875
6.648184061050415,-147522863,0,0.49714553356170654,-0.08818294107913971,0.5245154500007629,564.14794921875,-121.64306640625,3.2958984375
6.654829025268555,-147522868,1,-0.6318044066429138,0.2539535462856293,0.7179285883903503,-305.908203125,237.60986328125,214.4775390625
6.654839038848877,-147522849,1,-0.7275075316429138,0.3848129212856293,0.7569910883903503,-348.44970703125,220.52001953125,248.22998046875
6.664224863052368,-147522844,0,0.6848896741867065,0.08906315267086029,0.40171271562576294,535.5224609375,-118.0419921875,69.7021484375
6.681030750274658,-147522830,1,-0.47823992371559143,0.24125823378562927,0.7191492915153503,-354.1259765625,203.67431640625,234.86328125
6.699980974197388,-147522825,0,0.8047627210617065,0.3263678252696991,0.35044318437576294,462.21923828125,-117.73681640625,149.71923828125
6.69999098777771,-147522806,0,0.9800556898117065,0.5121588706970215,0.38706427812576294,413.6962890625,-98.876953125,213.623046875
6.70914101600647,-147522811,1,-0.28243914246559143,0.03618011623620987,0.7850672602653503,-309.87548828125,221.49658203125,112.48779296875
6.709222793579102,-147522792,1,-0.16378679871559143,0.18608245253562927,0.8675867915153503,-258.36181640625,233.0322265625,-24.658203125
6.723068952560425,-147522787,0,1.2351826429367065,0.7138190269470215,0.46909552812576294,388.61083984375,-20.8740234375,284.60693359375
6.7476890087127686,-147522773,1,-0.29171648621559143,0.3711410462856293,0.9181239008903503,-284.423828125,218.07861328125,-110.90087890625
6.754228830337524,-147522768,0,1.5379170179367065,0.8634772300720215,0.5689490437507629,332.09228515625,147.76611328125,336.12060546875
6.754333972930908,-147522749,0,1.7637470960617065,0.9582037925720215,0.5840857625007629,265.0146484375,321.71630859375,379.33349609375
6.769495964050293,-147522737,1,-0.7170094847679138,0.9722152948379517,1.6832606792449951,-346.3134765625,18.98193359375,-253.23486328125
6.79514479637146,-147522713,0,1.4688252210617065,1.4079108238220215,0.04697638750076294,104.55322265625,354.79736328125,505.06591796875
6.799652099609375,-147522718,1,-0.8356618285179138,1.2893539667129517,1.9022548198699951,-312.31689453125,-153.99169921875,-218.56689453125
6.799659013748169,-147522699,1,-1.121306300163269,0.9668442010879517,1.5721766948699951,-192.19970703125,-213.134765625,-174.37744140625
6.814424991607666,-147522694,0,1.7349385023117065,1.3703131675720215,0.26645880937576294,-70.068359375,263.48876953125,601.9287109375
6.8291261196136475,-147522680,1,-1.133269190788269,0.6670395135879517,1.3094813823699951,-106.689453125,-204.4677734375,-223.93798828125
6.846873998641968,-147522675,0,2.263014793395996,1.5009284019470215,0.5916541218757629,-151.611328125,193.42041015625,641.9677734375
6.846882104873657,-147522656,0,2.714430809020996,1.8146491050720215,0.36582404375076294,-161.7431640625,38.57421875,600.2197265625
6.859216928482056,-147522661,1,-1.209441065788269,0.8977524042129517,1.3168056011199951,-74.15771484375,-204.65087890625,-248.046875
6.859357833862305,-147522642,1,-1.326628565788269,1.0081039667129517,1.2748134136199951,-51.81884765625,-254.21142578125,-217.95654296875
6.874360084533691,-147522637,0,2.975905418395996,1.9923834800720215,0.26694709062576294,-189.697265625,-180.5419921875,525.0244140625
6.897739887237549,-147522623,1,-1.431609034538269,0.9541488885879517,1.1009852886199951,-31.92138671875,-324.5849609375,-168.0908203125
6.904327869415283,-147522618,0,2.864333152770996,1.8126959800720215,0.6404822468757629,-230.16357421875,-312.19482421875,478.21044921875
6.904422760009766,-147522599,0,2.756911277770996,1.5900397300720215,1.1443884372711182,-213.7451171875,-432.92236328125,436.58447265625
6.919204950332642,-147522604,1,-1.424040675163269,0.8154770135879517,0.8763758540153503,-36.07177734375,-345.88623046875,-145.08056640625
6.919275999069214,-147522585,1,-1.844694972038269,1.1201645135879517,0.7814051508903503,0.79345703125,-352.4169921875,-111.51123046875
6.945764064788818,-147522580,0,2.771071434020996,1.4660162925720215,1.6846716403961182,-193.2373046875,-472.5341796875,435.85205078125
6.945770978927612,-147522561,0,2.936842918395996,1.4679694175720215,1.9876501560211182,-166.44287109375,-507.38525390625,429.3212890625
6.951239824295044,-147522566,1,-2.0500173568725586,1.1423813104629517,0.43545788526535034,23.0712890625,-342.34619140625,-23.98681640625
6.964211940765381,-147522542,0,3.179518699645996,1.6579108238220215,2.357279062271118,-104.30908203125,-544.00634765625,364.1357421875
6.978333950042725,-147522547,1,-1.718962550163269,0.8655258417129517,0.22476452589035034,-27.587890625,-295.95947265625,63.3544921875
6.978432893753052,-147522528,1,-1.113982081413269,0.5486313104629517,0.23868054151535034,-38.6962890625,-244.68994140625,87.95166015625
7.002054929733276,-147522523,0,2.842116355895996,1.6911139488220215,2.833353281021118,-48.88916015625,-477.783203125,209.228515625
7.002063035964966,-147522504,0,1.7349385023117065,0.6366705894470215,3.117777109146118,17.9443359375,-341.24755859375,66.89453125
7.009403944015503,-147522509,1,-0.9560231566429138,0.18144378066062927,0.8866297602653503,48.095703125,-178.89404296875,23.3154296875
7.0241539478302,-147522485,0,0.5613545179367065,0.3354010283946991,2.993021249771118,77.45361328125,-270.3857421875,67.5048828125
7.048289060592651,-147522473,1,-0.6066579222679138,0.4163070619106293,0.7018153071403503,132.080078125,-61.1572265625,-100.4638671875
7.054403066635132,-147522449,0,0.05061234161257744,0.1911139339208603,1.9703161716461182,202.63671875,-339.599609375,191.34521484375
7.069278955459595,-147522454,1,-0.48702898621559143,0.2600570619106293,0.7110926508903503,150.81787109375,-45.34912109375,-137.39013671875
7.069401979446411,-147522435,1,-0.6278981566429138,0.5203109979629517,0.7306239008903503,120.4833984375,-29.96826171875,-26.30615234375
7.095101833343506,-147522430,0,-0.15178023278713226,0.06757877767086029,2.051859140396118,193.66455078125,-363.83056640625,168.02978515625
7.095110177993774,-147522411,0,-0.14494429528713226,0.0009283833205699921,2.142923593521118,174.560546875,-349.18212890625,141.7236328125
7.0992889404296875,-147522416,1,-0.7665700316429138,0.4260726869106293,0.6759364008903503,65.24658203125,-64.39208984375,58.837890625
7.11469578742981,-147522392,0,-0.06242476776242256,-0.08500911295413971,2.052835702896118,158.26416015625,-318.2373046875,82.8857421875
7.129220008850098,-147522397,1,-0.8061208128929138,0.4143539369106293,0.5030848383903503,42.6025390625,-62.56103515625,108.0322265625
7.129288911819458,-147522378,1,-0.6657399535179138,0.3352523744106293,0.6295496821403503,61.34033203125,-35.15625,116.76025390625
7.147955894470215,-147522373,0,-0.11247359216213226,-0.4062981903553009,1.8785192966461182,157.1044921875,-326.11083984375,52.30712890625
7.147963762283325,-147522354,0,-0.07853804528713226,-0.8108391761779785,1.6941931247711182,149.90234375,-387.8173828125,57.12890625
7.159124851226807,-147522359,1,-0.7958669066429138,0.4739242494106293,0.5836512446403503,81.1767578125,-15.9912109375,145.56884765625
7.1591877937316895,-147522340,1,-0.8793630003929138,0.5288559198379517,0.7367274165153503,108.2763671875,-1.77001953125,182.6171875
7.174338102340698,-147522335,0,0.10310257971286774,-0.9280266761779785,1.5982458591461182,110.29052734375,-454.89501953125,68.05419921875
7.19737696647644,-147522321,1,-1.076140284538269,0.6250473260879517,0.8170496821403503,129.7607421875,17.39501953125,211.669921875
7.204132080078125,-147522316,0,0.32795608043670654,-1.0020012855529785,1.5838415622711182,59.9365234375,-511.71875,49.98779296875
7.204229116439819,-147522297,0,0.48371779918670654,-1.0901360511779785,1.6495153903961182,28.13720703125,-538.818359375,14.16015625
7.21918797492981,-147522302,1,-1.208220362663269,0.7903305292129517,0.7950770258903503,129.57763671875,19.287109375,244.56787109375
7.219305992126465,-147522283,1,-1.272917628288269,0.8738266229629517,0.6976649165153503,115.966796875,20.32470703125,298.828125
7.244333028793335,-147522278,0,0.6187275648117065,-1.3232903480529785,1.7830603122711182,-8.36181640625,-547.607421875,-38.4521484375
7.244340896606445,-147522259,0,0.6428974866867065,-1.5706048011779785,1.8123571872711182,-11.53564453125,-552.42919921875,-79.7119140625
7.250186920166016,-147522264,1,-1.291228175163269,0.9714828729629517,0.6908289790153503,113.525390625,63.04931640625,382.2021484375
7.264274835586548,-147522240,0,0.7010029554367065,-1.7458977699279785,1.6780798435211182,-1.3427734375,-561.1572265625,-93.6279296875
7.279160022735596,-147522245,1,-1.202360987663269,0.7739731073379517,0.7272059321403503,113.8916015625,122.00927734375,472.7783203125
7.302368879318237,-147522221,0,0.8316181898117065,-2.1274895668029785,1.7828161716461182,-21.1181640625,-562.8662109375,-121.64306640625
7.309072732925415,-147522209,1,-0.6432790160179138,0.09892425686120987,0.8175379633903503,135.92529296875,287.7197265625,476.1962890625
7.3092200756073,-147522190,1,-0.48971453309059143,-0.10615386813879013,0.6820399165153503,177.24609375,430.84716796875,391.54052734375
7.327969074249268,-147522185,0,0.9265888929367065,-3.1296868324279785,1.9388220310211182,-50.78125,-424.560546875,-95.703125
7.347355842590332,-147522171,1,-0.28658953309059143,-0.3126968443393707,0.7606531977653503,186.58447265625,537.2314453125,307.18994140625
7.3526880741119385,-147522166,0,0.6814717054367065,-2.8755364418029785,1.3526403903961182,-25.69580078125,-297.54638671875,-87.46337890625
7.352768898010254,-147522147,0,0.40266311168670654,-2.4607415199279785,1.2064001560211182,15.0146484375,-267.76123046875,-219.482421875
7.370850086212158,-147522152,1,-0.22994890809059143,-0.4865249693393707,0.9127528071403503,107.421875,558.4716796875,198.42529296875
7.370861053466797,-147522133,1,-0.015837587416172028,-0.3505386412143707,0.8170496821403503,-83.92333984375,401.06201171875,114.56298828125
7.395846843719482,-147522128,0,0.18781937658786774,-2.4788079261779785,1.4412634372711182,39.794921875,-250.42724609375,-359.19189453125
7.395854949951172,-147522109,0,-0.16349898278713226,-3.0034661293029785,1.4595739841461182,72.75390625,-174.31640625,-465.33203125
7.400301933288574,-147522114,1,-0.13375750184059143,-0.05268707126379013,1.0604579448699951,-256.8359375,298.095703125,105.224609375
7.414308071136475,-147522090,0,-0.29240524768829346,-3.1296868324279785,0.9588416218757629,130.55419921875,-88.2568359375,-476.07421875
7.429125070571899,-147522095,1,-0.5419606566429138,0.5291000604629517,1.5519130229949951,-282.89794921875,327.08740234375,125.06103515625
7.429192781448364,-147522076,1,-0.5446462035179138,0.7734848260879517,1.8612391948699951,-141.66259765625,484.31396484375,246.2158203125
7.446244955062866,-147522071,0,-0.29240524768829346,-2.9055657386779785,0.29184943437576294,165.83251953125,-74.8291015625,-457.70263671875
7.44625186920166,-147522052,0,-0.28215134143829346,-2.6787590980529785,-0.14150017499923706,143.37158203125,-106.87255859375,-425.96435546875
7.457710027694702,-147522057,1,-0.43990984559059143,0.5476547479629517,2.536043882369995,-105.65185546875,497.0703125,272.3388671875
7.474207878112793,-147522033,0,-0.35954391956329346,-2.4426751136779785,-0.34950798749923706,84.5947265625,-183.10546875,-386.41357421875
7.495006799697876,-147522038,1,-0.6471852660179138,1.0376449823379517,2.278231382369995,-255.79833984375,269.47021484375,376.03759765625
7.495014905929565,-147522019,1,-0.9289235472679138,0.7698227167129517,1.7870204448699951,-396.54541015625,88.43994140625,633.056640625
7.504176139831543,-147522014,0,-0.18498335778713226,-2.1248040199279785,-0.07338494062423706,47.05810546875,-250.3662109375,-359.80224609375
7.504278898239136,-147521995,0,0.25593459606170654,-1.8398919105529785,0.48691779375076294,-14.7705078125,-234.375,-348.57177734375
7.518369913101196,-147522000,1,-0.46163836121559143,-0.2846206724643707,1.6131923198699951,-339.41650390625,142.9443359375,840.576171875
7.518463850021362,-147521981,1,-1.275114893913269,-0.6681655645370483,2.383944272994995,5.18798828125,395.32470703125,763.427734375
7.541923999786377,-147521976,0,0.5833271741867065,-1.3679680824279785,0.5430701375007629,-53.466796875,-187.98828125,-340.087890625
7.5617358684539795,-147521957,0,0.9407490491867065,-0.8660149574279785,0.25962287187576294,-87.0361328125,-185.11962890625,-377.62451171875
7.579092025756836,-147521945,1,-0.15890398621559143,-0.3698257505893707,2.756747007369995,205.87158203125,152.7099609375,585.38818359375
7.579129934310913,-147521926,1,-0.40939226746559143,-0.5761245489120483,2.552889585494995,245.2392578125,-0.244140625,459.9609375
7.599263906478882,-147521921,0,1.0054463148117065,-1.1509270668029785,0.43223029375076294,-141.54052734375,-221.13037109375,-424.98779296875
7.599270820617676,-147521902,0,0.5679463148117065,-1.1084465980529785,0.6143592000007629,-143.1884765625,-160.888671875,-301.7578125
7.609236001968384,-147521907,1,-0.49606218934059143,-0.5102065801620483,2.419344663619995,339.05029296875,-0.732421875,349.4873046875
7.626601934432983,-147521883,0,0.5130146741867065,-0.4797845184803009,0.37241584062576294,-112.60986328125,-134.3994140625,-215.75927734375
7.645840167999268,-147521888,1,-0.45211687684059143,-0.3100112974643707,2.219881772994995,435.48583984375,11.8408203125,250.06103515625
7.646599769592285,-147521869,1,-0.26998797059059143,-0.3180679380893707,1.9007899761199951,468.44482421875,-14.404296875,183.53271484375
7.654300928115845,-147521864,0,0.41291701793670654,0.04267643019556999,0.14829474687576294,-106.3232421875,-118.71337890625,-203.79638671875
7.6544108390808105,-147521845,0,0.37922561168670654,0.2743658721446991,-0.07094353437423706,-147.64404296875,-84.3505859375,-288.6962890625
7.667419910430908,-147521850,1,-0.14816179871559143,-0.18574371933937073,1.4156825542449951,472.10693359375,-41.748046875,97.5341796875
7.667466878890991,-147521831,1,-0.15719500184059143,-0.02924957126379013,1.0831630229949951,457.763671875,-54.3212890625,34.97314453125
7.693984031677246,-147521826,0,-0.0013896115124225616,-0.2175774723291397,-0.30360954999923706,-189.3310546875,-34.36279296875,-376.5869140625
7.699400901794434,-147521812,1,-0.13668718934059143,0.10917816311120987,0.7440516352653503,435.36376953125,-60.85205078125,-33.02001953125
7.717060089111328,-147521807,0,-0.38639938831329346,-0.4853997528553009,-0.38271111249923706,-179.87060546875,-68.66455078125,-348.14453125
7.717071056365967,-147521788,0,-0.48478806018829346,-0.2471184879541397,-0.48085564374923706,-94.42138671875,-193.4814453125,-284.5458984375
7.7293360233306885,-147521793,1,-0.15865984559059143,0.09892425686120987,0.5733973383903503,398.01025390625,-48.64501953125,-79.345703125
7.729457855224609,-147521774,1,-0.13546648621559143,0.10600433498620987,0.43741101026535034,353.1494140625,-39.0625,-113.525390625
7.747906923294067,-147521769,0,-0.27433884143829346,0.08149479329586029,-0.5755822062492371,-69.39697265625,-281.1279296875,-307.6171875
7.747913837432861,-147521750,0,-0.04826461151242256,0.07856510579586029,-0.5374962687492371,-114.80712890625,-330.62744140625,-415.1611328125
7.760622024536133,-147521755,1,-0.10226336866617203,0.10502777248620987,0.33169811964035034,311.09619140625,-31.982421875,-135.498046875
7.774399995803833,-147521731,0,0.08674515783786774,-0.2158684879541397,-0.36806267499923706,-170.2880859375,-362.3046875,-501.64794921875
7.796743869781494,-147521736,1,-0.04049579054117203,0.11821136623620987,0.21890515089035034,254.8828125,-25.87890625,-162.53662109375
7.796751976013184,-147521717,1,-0.09396258741617203,0.10356292873620987,0.12491101026535034,200.8056640625,-23.86474609375,-184.6923828125
7.804227113723755,-147521712,0,-0.08366499841213226,-0.8665032386779785,0.03061896562576294,-235.3515625,-367.73681640625,-508.60595703125
7.804340839385986,-147521693,0,-0.9252177476882935,-1.0254387855529785,0.20737677812576294,-266.29638671875,-318.42041015625,-366.943359375
7.819318056106567,-147521681,1,-0.11935321241617203,0.07939300686120987,-0.009854614734649658,143.6767578125,44.0673828125,-231.26220703125
7.851410865783691,-147521662,1,-0.10690204054117203,0.15458831191062927,0.029696166515350342,129.5166015625,81.787109375,-255.43212890625
7.863409042358398,-147521657,0,-0.8004618883132935,-0.9287590980529785,0.5167029500007629,-370.42236328125,-276.30615234375,-42.54150390625
7.863491058349609,-147521638,0,-0.24870406091213226,-1.1069817543029785,0.8272498250007629,-494.0185546875,-252.62451171875,41.748046875
7.8790998458862305,-147521643,1,-0.03707782179117203,0.21415862441062927,0.09390515089035034,106.5673828125,88.43994140625,-260.68115234375
7.879193067550659,-147521624,1,-0.07467547804117203,0.23417815566062927,0.19888561964035034,87.95166015625,85.205078125,-263.0615234375
7.907003164291382,-147521605,1,-0.07076922804117203,0.2976547181606293,0.20645397901535034,61.8896484375,62.92724609375,-265.56396484375
7.924241781234741,-147521619,0,-0.10490523278713226,-1.2974114418029785,1.1482946872711182,-547.607421875,-227.72216796875,67.93212890625
7.924417018890381,-147521600,0,-0.015061486512422562,-1.5364251136779785,1.4598181247711182,-503.5400390625,-228.57666015625,106.87255859375
7.9244349002838135,-147521581,0,0.37824904918670654,-1.6506829261779785,1.7393591403961182,-384.033203125,-249.51171875,181.396484375
7.949337005615234,-147521586,1,-0.12448016554117203,0.3770004212856293,0.15786999464035034,7.8125,37.78076171875,-247.98583984375
7.949344873428345,-147521567,1,-0.06857196241617203,0.4587875306606293,0.35025280714035034,-63.78173828125,-15.56396484375,-219.1162109375
7.9542670249938965,-147521562,0,0.8313740491867065,-1.9228997230529785,2.041361093521118,-336.7919921875,-282.04345703125,210.75439453125
7.954364776611328,-147521543,0,1.0921162366867065,-2.4973626136779785,2.589945077896118,-315.673828125,-290.71044921875,277.587890625
7.967644929885864,-147521548,1,0.07205303758382797,0.4453597962856293,0.34244030714035034,-100.830078125,-57.9833984375,-208.1298828125
7.967665195465088,-147521529,1,0.014679990708827972,0.5461899042129517,0.10757702589035034,-111.572265625,-64.14794921875,-205.62744140625
7.995123863220215,-147521524,0,1.4314717054367065,-2.7903313636779785,2.828470468521118,-241.0888671875,-267.08984375,463.31787109375
7.9994189739227295,-147521510,1,-0.5456227660179138,0.8376938104629517,-0.14999133348464966,-121.9482421875,-64.94140625,-174.86572265625
8.027047872543335,-147521491,1,-0.6652516722679138,1.0701156854629517,-0.23495227098464966,-173.828125,-84.5947265625,-86.48681640625
8.027856826782227,-147521472,1,-0.5951833128929138,1.0493637323379517,-0.26791125535964966,-221.13037109375,-118.22509765625,-64.75830078125
8.049808025360107,-147521505,0,2.578444480895996,-3.0962395668029785,3.132181406021118,-241.455078125,-246.76513671875,658.447265625
8.049883842468262,-147521486,0,3.629714012145996,-3.2593255043029785,3.493997812271118,-206.97021484375,-235.9619140625,749.57275390625
8.049890041351318,-147521467,0,4.774489402770996,-2.9885735511779785,3.692728281021118,-121.2158203125,-144.47021484375,809.08203125
8.049895763397217,-147521448,0,5.324538230895996,-2.7742180824279785,3.918802499771118,-73.66943359375,-1.708984375,817.32177734375
8.05932092666626,-147521453,1,-0.6401051878929138,1.3811508417129517,-0.13705188035964966,-255.7373046875,-139.83154296875,-87.40234375
8.072967767715454,-147521429,0,5.185866355895996,-2.8962883949279785,3.847025156021118,61.8896484375,129.57763671875,761.41357421875
8.098326921463013,-147521417,1,-1.204558253288269,1.3577133417129517,0.05899304151535034,-190.36865234375,-41.50390625,-106.5673828125
8.10407018661499,-147521393,0,5.124342918395996,-3.1868157386779785,2.920023202896118,316.650390625,332.6416015625,831.298828125
8.119683027267456,-147521398,1,-1.135954737663269,0.9980942010879517,-0.10824328660964966,-206.84814453125,6.591796875,-127.50244140625
8.119761943817139,-147521379,1,-2.4059743881225586,0.8472152948379517,-1.5149815082550049,-253.96728515625,22.52197265625,-160.5224609375
8.14665174484253,-147521374,0,5.319411277770996,-2.8550286293029785,2.514261484146118,318.115234375,495.849609375,892.02880859375
8.151473045349121,-147521360,1,-3.2445974349975586,-0.4435562193393707,-1.7288486957550049,-510.80322265625,69.2138671875,69.82421875
8.16460394859314,-147521355,0,5.595290184020996,-2.8044915199279785,2.330667734146118,298.583984375,555.35888671875,872.1923828125
8.16473388671875,-147521336,0,5.067702293395996,-2.4639153480529785,1.7264196872711182,345.27587890625,530.517578125,825.37841796875
8.177610874176025,-147521341,1,-2.0588064193725586,0.04350433498620987,-0.20394641160964966,-469.970703125,139.58740234375,92.46826171875
8.177693843841553,-147521322,1,-1.566618800163269,0.3999496400356293,0.08389538526535034,-420.41015625,256.65283203125,52.734375
8.201812982559204,-147521317,0,4.329421043395996,-1.7561516761779785,0.8589881062507629,392.08984375,439.3310546875,793.88427734375
8.208826065063477,-147521303,1,-1.462370753288269,-0.03315582126379013,0.16470593214035034,-413.39111328125,380.7373046875,53.22265625
8.224211931228638,-147521298,0,3.655837059020996,-1.0674309730529785,0.46787482500076294,377.5634765625,364.44091796875,703.18603515625
8.2242910861969,-147521279,0,2.867018699645996,-0.5090813636779785,0.32285529375076294,313.8427734375,315.00244140625,533.447265625
8.248568058013916,-147521284,1,-1.745818018913269,0.3162094056606293,0.15689343214035034,-419.12841796875,446.77734375,97.7783203125
8.248575925827026,-147521265,1,-1.942107081413269,0.13969573378562927,0.41568249464035034,-472.47314453125,415.6494140625,244.62890625
8.254134893417358,-147521260,0,2.230544090270996,-0.2019524723291397,0.06772834062576294,243.59130859375,304.931640625,406.92138671875
8.254212141036987,-147521241,0,1.8560322523117065,-0.08061458170413971,-0.19496697187423706,184.2041015625,289.306640625,334.65576171875
8.269503831863403,-147521246,1,-1.768034815788269,-0.3778823912143707,0.7901942133903503,-484.375,301.94091796875,302.3681640625
8.301523923873901,-147521222,0,1.5198506116867065,0.10224674642086029,-0.5670372843742371,141.78466796875,252.197265625,239.013671875
8.305128812789917,-147521227,1,-1.621550440788269,0.2893539369106293,0.9837977290153503,-406.25,263.85498046875,339.41650390625
8.306581020355225,-147521208,1,-1.427458643913269,0.4380355775356293,0.9747645258903503,-294.12841796875,305.6640625,362.73193359375
8.314213991165161,-147521203,0,1.0442646741867065,0.3068365752696991,-0.7511193156242371,114.31884765625,156.55517578125,145.751953125
8.31428599357605,-147521184,0,0.6905049085617065,0.3366217315196991,-0.5428673624992371,109.9853515625,65.49072265625,51.513671875
8.329186916351318,-147521189,1,-1.426237940788269,0.3799301087856293,0.8827235102653503,-226.62353515625,324.5849609375,405.82275390625
8.351189851760864,-147521165,0,0.36750686168670654,0.2521490752696991,-0.16200798749923706,87.21923828125,32.04345703125,13.61083984375
8.359225988388062,-147521153,1,-1.010222315788269,-0.06342925876379013,0.6366297602653503,-87.95166015625,291.259765625,482.7880859375
8.37424612045288,-147521129,0,-0.07682906091213226,0.1693854182958603,0.20566779375076294,33.8134765625,33.02001953125,181.70166015625
8.395385980606079,-147521134,1,-0.5627126097679138,0.10576019436120987,0.38199108839035034,23.74267578125,381.4697265625,392.88330078125
8.395394086837769,-147521115,1,-0.6437672972679138,0.0022445693612098694,0.36001843214035034,-28.1982421875,370.1171875,299.62158203125
8.408711910247803,-147521110,0,-0.09904585778713226,0.3119635283946991,0.13901740312576294,2.74658203125,84.47265625,261.41357421875
8.408721923828125,-147521091,0,0.12336625158786774,0.5448737144470215,0.11362677812576294,-41.44287109375,19.1650390625,313.720703125
8.419301986694336,-147521096,1,-0.46920672059059143,0.2886215150356293,-0.05624133348464966,14.5263671875,401.06201171875,266.11328125
8.443643808364868,-147521072,0,0.40046584606170654,0.6330084800720215,0.28013068437576294,-60.9130859375,-26.30615234375,326.59912109375
8.45182204246521,-147521077,1,-0.6003102660179138,0.20805510878562927,-0.14754992723464966,-91.49169921875,362.73193359375,242.24853515625
8.45182991027832,-147521058,1,-0.29757586121559143,0.20878753066062927,-0.31869250535964966,-181.5185546875,320.49560546875,222.412109375
8.464287996292114,-147521053,0,0.6924580335617065,0.7582526206970215,0.38071662187576294,-127.5634765625,26.06201171875,353.82080078125
8.464372873306274,-147521034,0,0.8916767835617065,0.7902350425720215,0.6204627156257629,-242.919921875,140.0146484375,376.64794921875
8.478449821472168,-147521039,1,-0.20919695496559143,0.2710433900356293,-0.10653430223464966,-215.4541015625,322.021484375,161.07177734375
8.478466033935547,-147521020,1,-0.20651140809059143,0.2644515931606293,0.10879772901535034,-250.6103515625,298.828125,118.1640625
8.501105785369873,-147521015,0,1.0425556898117065,0.9027838706970215,0.8838904500007629,-349.609375,174.74365234375,355.1025390625
8.508946895599365,-147521001,1,-0.22750750184059143,0.22734221816062927,0.24112194776535034,-275.20751953125,286.07177734375,87.46337890625
8.524179935455322,-147520996,0,1.1243427991867065,1.0685553550720215,1.4219763278961182,-452.45361328125,124.755859375,219.970703125
8.524255990982056,-147520977,0,1.0230244398117065,0.6618170738220215,1.7042028903961182,-513.61083984375,123.59619140625,87.0361328125
8.548646926879883,-147520982,1,-0.12106219679117203,0.11015472561120987,0.45669811964035034,-358.94775390625,254.638671875,55.11474609375
8.548654079437256,-147520963,1,-0.12545672059059143,-0.17451325058937073,1.0494716167449951,-500.42724609375,186.09619140625,0.244140625
8.553292036056519,-147520958,0,0.6717060804367065,0.1317877620458603,1.9966833591461182,-515.0146484375,174.072265625,-21.97265625
8.553382873535156,-147520939,0,0.24030961096286774,-0.1460442692041397,1.7535192966461182,-491.2109375,206.84814453125,-92.8955078125
8.569182872772217,-147520944,1,-0.29757586121559143,-0.4813980162143707,1.8370692729949951,-665.95458984375,55.6640625,-92.1630859375
8.583172082901001,-147520920,0,0.0012959353625774384,-0.5478997230529785,1.6251013278961182,-471.74072265625,155.029296875,-173.40087890625
8.601777076721191,-147520925,1,-0.27657976746559143,-0.8153823614120483,2.948641538619995,-744.873046875,-74.951171875,-180.908203125
8.614273071289062,-147520901,0,0.20588578283786774,-1.4348626136779785,2.171488046646118,-356.26220703125,70.12939453125,-261.04736328125
8.629385948181152,-147520889,1,-1.173796534538269,-0.21381989121437073,3.309481382369995,-282.28759765625,-173.03466796875,-208.251953125
8.629441022872925,-147520870,1,-1.256071925163269,-0.01484527438879013,2.164461851119995,27.9541015625,-28.62548828125,-121.88720703125
8.647902965545654,-147520865,0,0.31550490856170654,-1.8679680824279785,1.8816931247711182,-77.63671875,132.38525390625,-181.7626953125
8.659247159957886,-147520851,1,-0.9540700316429138,0.24247893691062927,1.8524501323699951,105.16357421875,-15.7470703125,-85.5712890625
8.674040079116821,-147520846,0,0.42072951793670654,-1.6201653480529785,1.3079626560211182,98.93798828125,197.32666015625,-47.66845703125
8.674179077148438,-147520827,0,0.6321552991867065,-1.1606926918029785,0.7803748250007629,236.26708984375,200.37841796875,59.6923828125
8.695150136947632,-147520832,1,-0.7880544066429138,0.4531722962856293,1.9986903667449951,123.779296875,-127.01416015625,-8.36181640625
8.695157051086426,-147520813,1,-0.6537770628929138,-0.3278335630893707,1.1676356792449951,46.875,-168.5791015625,123.59619140625
8.703310012817383,-147520808,0,0.6016377210617065,-0.9536614418029785,0.48838263750076294,339.29443359375,183.65478515625,134.09423828125
8.703390836715698,-147520789,0,0.8162373304367065,-0.4099602997303009,-0.5760704874992371,414.306640625,126.3427734375,209.8388671875
8.719255924224854,-147520794,1,0.15628156065940857,-0.6310561895370483,1.0118739604949951,187.1337890625,-220.5810546875,144.95849609375
8.745386838912964,-147520770,0,0.7783955335617065,-0.2891106903553009,-0.43251579999923706,454.58984375,62.68310546875,264.70947265625
8.750487089157104,-147520775,1,0.05056866258382797,-0.19380035996437073,0.40738171339035034,319.51904296875,-144.95849609375,91.61376953125
8.750494003295898,-147520756,1,0.16897687315940857,-0.15742340683937073,-0.18099719285964966,353.271484375,-25.93994140625,104.79736328125
8.764455795288086,-147520751,0,0.7676533460617065,0.03242252394556999,-0.5721642374992371,463.37890625,-11.90185546875,285.7666015625
8.764571905136108,-147520732,0,0.6197041273117065,0.2589850127696991,-0.5904747843742371,454.4677734375,-54.01611328125,289.4287109375
8.792641878128052,-147520737,1,0.15774640440940857,0.01371917873620987,-0.33456164598464966,389.16015625,75.98876953125,118.46923828125
8.79800009727478,-147520713,0,0.47859084606170654,0.08662174642086029,-0.26552361249923706,454.04052734375,-69.88525390625,306.396484375
8.809221982955933,-147520718,1,0.5237131714820862,-0.6334975957870483,-0.7373936772346497,427.42919921875,245.30029296875,23.5595703125
8.809340953826904,-147520699,1,1.582551121711731,-1.2924331426620483,-0.24081164598464966,404.60205078125,334.8388671875,-69.76318359375
8.824199914932251,-147520694,0,1.4341572523117065,1.9599127769470215,-2.130513906478882,142.02880859375,-95.458984375,129.5166015625
8.82425594329834,-147520675,0,0.5044697523117065,1.4862799644470215,-1.0562951564788818,16.845703125,-83.6181640625,207.45849609375
8.847779035568237,-147520680,1,0.7680979371070862,-0.2772964537143707,-0.22323352098464966,408.02001953125,435.72998046875,-30.21240234375
8.847785949707031,-147520661,1,0.9929514527320862,-0.4760269224643707,-0.29061633348464966,262.87841796875,450.37841796875,35.2783203125
8.854225873947144,-147520656,0,1.2566670179367065,2.0827155113220215,-1.8104455471038818,22.15576171875,-211.48681640625,143.73779296875
8.893777847290039,-147520637,0,1.5127705335617065,1.9567389488220215,-0.6729943156242371,126.89208984375,-477.23388671875,103.21044921875
8.900393009185791,-147520625,1,0.5071116089820862,-0.6837905645370483,0.5480067133903503,14.95361328125,449.03564453125,94.42138671875
8.900400161743164,-147520606,1,0.6079416871070862,-0.6457046270370483,1.0951259136199951,-76.416015625,398.3154296875,126.3427734375
8.913453102111816,-147520601,0,1.7283467054367065,2.1662116050720215,0.7435095906257629,-136.474609375,-112.1826171875,118.10302734375
8.913540124893188,-147520582,0,1.3184345960617065,1.6691412925720215,0.8250525593757629,-263.3056640625,45.22705078125,35.58349609375
8.928576946258545,-147520587,1,0.39822492003440857,-1.0363296270370483,1.5948817729949951,-221.923828125,330.38330078125,152.52685546875
8.949120044708252,-147520563,0,0.8980244398117065,1.2150397300720215,0.7847693562507629,-171.7529296875,-58.59375,-40.4052734375
8.957393884658813,-147520568,1,0.34036359190940857,-1.6039565801620483,2.192782163619995,-336.42578125,292.41943359375,174.74365234375
8.957526922225952,-147520549,1,0.25589093565940857,-2.062452793121338,3.196688413619995,-395.99609375,278.076171875,163.63525390625
8.972424983978271,-147520544,0,0.8025654554367065,1.0578131675720215,0.9009802937507629,22.5830078125,-297.607421875,-91.85791015625
8.972516059875488,-147520525,0,0.9829853773117065,1.0695319175720215,1.1146032810211182,103.82080078125,-328.9794921875,-82.21435546875
8.996176719665527,-147520530,1,0.31375226378440857,-2.244581699371338,3.944735288619995,-403.38134765625,245.361328125,84.9609375
8.996540784835815,-147520511,1,0.30325421690940857,-1.8878921270370483,4.551424503326416,-321.4111328125,106.8115234375,-71.77734375
