sync_time,timestamp_ms,device_id,ax,ay,az,gx,gy,gz
0.005644083023071289,-1270029685,0,-0.7950061559677124,-0.6343754529953003,0.049366094172000885,-5.55419921875,20.8740234375,17.15087890625
0.02053689956665039,-1270029685,1,-0.9012309312820435,-0.3603612184524536,0.28466489911079407,2.8076171875,11.90185546875,20.69091796875
0.02065300941467285,-1270029666,1,-0.9551860094070435,-0.2876073122024536,0.31835630536079407,12.0849609375,23.62060546875,21.54541015625
0.0422968864440918,-1270029666,0,-0.8753284215927124,-0.6172856092453003,0.007129766047000885,-6.53076171875,38.26904296875,18.1884765625
0.04230499267578125,-1270029647,0,-0.8970569372177124,-0.6158207654953003,-0.060253046452999115,-13.24462890625,49.072265625,22.39990234375
0.05042004585266113,-1270029647,1,-1.0359965562820435,-0.2214452177286148,0.33300474286079407,11.962890625,23.0712890625,31.1279296875
0.06489992141723633,-1270029611,0,-0.9060901403427124,-0.6519535779953003,-0.06830968707799911,-29.35791015625,15.80810546875,21.30126953125
0.09062409400939941,-1270029628,1,-1.0858012437820435,-0.2395116239786148,0.34545591473579407,-5.2490234375,11.16943359375,40.1611328125
0.09063386917114258,-1270029609,1,-1.0621196031570435,-0.3039647340774536,0.31567075848579407,-21.17919921875,0.30517578125,36.376953125
0.10821890830993652,-1270029590,1,-1.0462504625320435,-0.3198338747024536,0.32177427411079407,-28.13720703125,-6.2255859375,29.35791015625
0.10892295837402344,-1270029571,1,-1.0208598375320435,-0.3947850465774536,0.29540708661079407,-32.1044921875,-9.033203125,27.16064453125
0.12425804138183594,-1270029592,0,-0.9004749059677124,-0.6500004529953003,-0.043407343327999115,-35.09521484375,-2.38037109375,14.09912109375
0.12427997589111328,-1270029573,0,-0.8760608434677124,-0.6846684217453003,-0.027294062077999115,-37.4755859375,-8.36181640625,12.20703125
0.12441802024841309,-1270029554,0,-0.8455432653427124,-0.7293461561203003,0.006641484797000885,-37.9638671875,-0.91552734375,17.333984375
0.15360093116760254,-1270029535,0,-0.8118518590927124,-0.7601078748703003,0.005664922297000885,-36.43798828125,18.00537109375,31.31103515625
0.1704881191253662,-1270029535,1,-1.0010844469070435,-0.4477635622024536,0.22680355608463287,-1.5869140625,0.91552734375,46.93603515625
0.17058682441711426,-1270029516,1,-0.9976664781570435,-0.3630467653274536,0.26488950848579407,7.01904296875,11.04736328125,60.24169921875
0.19281411170959473,-1270029516,0,-0.8511584997177124,-0.7381352186203003,-0.001415155827999115,-35.94970703125,32.1044921875,39.00146484375
0.19282197952270508,-1270029497,0,-0.9253772497177124,-0.6890629529953003,-0.032665155827999115,-41.68701171875,43.76220703125,35.82763671875
0.20039892196655273,-1270029497,1,-1.0640727281570435,-0.2729588747024536,0.32275083661079407,-4.0283203125,23.49853515625,58.837890625
0.21414494514465332,-1270029478,0,-1.0220569372177124,-0.6663578748703003,-0.11371984332799911,-54.8095703125,48.7060546875,26.3671875
0.22889494895935059,-1270029478,1,-1.2210551500320435,-0.2385350614786148,0.32543638348579407,-19.22607421875,32.1044921875,49.13330078125
0.22897100448608398,-1270029459,1,-1.2818461656570435,-0.2575780153274536,0.36303403973579407,-24.5361328125,27.587890625,46.38671875
0.2463240623474121,-1270029459,0,-1.0804065465927124,-0.6810063123703003,-0.1781729757785797,-64.697265625,49.62158203125,28.1982421875
0.24633193016052246,-1270029440,0,-1.0901721715927124,-0.7278813123703003,-0.1510733664035797,-64.75830078125,45.166015625,35.46142578125
0.25904297828674316,-1270029440,1,-1.2864848375320435,-0.3215428590774536,0.36303403973579407,-26.18408203125,16.17431640625,50.6591796875
0.25913190841674805,-1270029421,1,-1.1998149156570435,-0.3476659059524536,0.35497739911079407,-19.04296875,2.9296875,55.48095703125
0.27628493309020996,-1270029421,0,-1.0271838903427124,-0.6888188123703003,-0.1371573507785797,-56.82373046875,37.59765625,48.095703125
0.2762928009033203,-1270029402,0,-0.9861682653427124,-0.6080082654953003,-0.10273351520299911,-44.189453125,30.21240234375,48.27880859375
0.29460883140563965,-1270029402,1,-1.0416117906570435,-0.3149510622024536,0.35570982098579407,-9.6435546875,-3.60107421875,57.861328125
0.30553698539733887,-1270029383,0,-0.9651721715927124,-0.5413578748703003,-0.044628046452999115,-37.17041015625,34.72900390625,36.2548828125
0.3204619884490967,-1270029383,1,-0.9522563219070435,-0.2771092653274536,0.34374693036079407,-7.38525390625,7.14111328125,53.466796875
0.3205440044403076,-1270029364,1,-0.9471293687820435,-0.2514744997024536,0.31957700848579407,-9.21630859375,26.7333984375,54.99267578125
0.3410220146179199,-1270029347,0,-0.9195178747177124,-0.5823734998703003,-0.06977453082799911,-58.4716796875,82.58056640625,40.95458984375
0.3504319190979004,-1270029345,1,-0.9908305406570435,-0.2524510622024536,0.31713560223579407,-2.9296875,33.87451171875,67.81005859375
0.3640477657318115,-1270029328,0,-0.9117053747177124,-0.5704106092453003,-0.11738195270299911,-76.0498046875,115.966796875,67.07763671875
0.38945794105529785,-1270029326,1,-0.9998637437820435,-0.2153417021036148,0.32055357098579407,11.90185546875,36.56005859375,98.2666015625
0.3894658088684082,-1270029307,1,-0.9920512437820435,-0.1555272489786148,0.29906919598579407,10.25390625,50.29296875,111.4501953125
0.39476513862609863,-1270029309,0,-0.9158557653427124,-0.4732426106929779,-0.1830557882785797,-82.51953125,127.5634765625,72.69287109375
0.3948659896850586,-1270029290,0,-0.9305042028427124,-0.4820316731929779,-0.2077139914035797,-84.89990234375,129.5166015625,49.62158203125
0.4107069969177246,-1270029271,1,-1.0621196031570435,-0.1889745146036148,0.27734068036079407,-12.939453125,64.51416015625,115.8447265625
0.42540693283081055,-1270029271,0,-0.8802112340927124,-0.5220707654953003,-0.2638663351535797,-87.09716796875,114.8681640625,39.306640625
0.42550086975097656,-1270029252,0,-0.9056018590927124,-0.4998539388179779,-0.3288077414035797,-94.90966796875,106.8115234375,44.00634765625
0.44235801696777344,-1270029252,1,-1.1036235094070435,-0.1496678739786148,0.29052427411079407,-18.6767578125,54.62646484375,103.94287109375
0.45583105087280273,-1270029233,0,-0.8958362340927124,-0.4639652669429779,-0.3437003195285797,-103.45458984375,89.599609375,46.38671875
0.4705770015716553,-1270029233,1,-1.1458598375320435,-0.11792959272861481,0.28539732098579407,-29.1748046875,38.63525390625,94.23828125
0.4706740379333496,-1270029214,1,-1.0772563219070435,-0.11377920210361481,0.29443052411079407,-40.58837890625,34.97314453125,75.25634765625
0.49149107933044434,-1270029214,0,-0.9422229528427124,-0.3880375325679779,-0.3707999289035797,-97.10693359375,63.5986328125,30.57861328125
0.4914989471435547,-1270029195,0,-0.8953479528427124,-0.8665531873703003,-0.5453604459762573,-80.74951171875,47.66845703125,11.1083984375
0.4989597797393799,-1270029195,1,-1.4046489000320435,-0.7160741090774536,-0.05884097144007683,-108.642578125,90.51513671875,83.67919921875
0.5155651569366455,-1270029176,0,-0.8177112340927124,-0.5711430311203003,-0.3082999289035797,15.625,66.34521484375,36.56005859375
0.5406179428100586,-1270029176,1,-1.4817973375320435,0.02440439537167549,0.7917449474334717,95.64208984375,-1.77001953125,-13.48876953125
0.5406270027160645,-1270029157,1,-0.9293071031570435,0.2436426728963852,0.29101255536079407,71.2890625,1.5869140625,86.5478515625
0.5464520454406738,-1270029157,0,-0.8980334997177124,-0.2688969075679779,-0.7836416959762573,15.44189453125,61.767578125,54.50439453125
0.5464589595794678,-1270029138,0,-0.8902209997177124,-0.0020512044429779053,-0.6535147428512573,-23.25439453125,79.58984375,77.57568359375
0.5604779720306396,-1270029138,1,-0.7857524156570435,0.6425684690475464,0.027096528559923172,51.57470703125,21.6064453125,165.4052734375
0.5754208564758301,-1270029119,0,-0.7825549840927124,0.1666499674320221,-0.7509268522262573,-76.416015625,143.61572265625,66.58935546875
0.5933139324188232,-1270029119,1,-0.7830668687820435,0.6931055784225464,-0.04712222144007683,34.0576171875,69.091796875,161.1328125
0.5943219661712646,-1270029100,1,-1.0435649156570435,0.5683497190475464,0.05028988793492317,-5.92041015625,100.40283203125,120.17822265625
0.604727029800415,-1270029083,0,-0.6148303747177124,-0.1097172200679779,-0.8891104459762573,-100.7080078125,157.89794921875,2.99072265625
0.6410040855407715,-1270029064,0,-0.4602893590927124,-0.020605891942977905,-0.8607901334762573,-57.92236328125,93.8720703125,20.99609375
0.6410119533538818,-1270029045,0,-0.5428088903427124,-0.019385188817977905,-0.6601065397262573,-33.3251953125,62.68310546875,10.31494140625
0.6499290466308594,-1270029081,1,-1.0250102281570435,0.4804590940475464,0.08471371233463287,-13.85498046875,122.61962890625,56.5185546875
0.6499369144439697,-1270029062,1,-1.1429301500320435,0.5527247190475464,0.016354341059923172,-10.1318359375,128.173828125,-39.48974609375
0.6499419212341309,-1270029043,1,-0.9498149156570435,0.7897852659225464,-0.03906558081507683,-18.9208984375,94.3603515625,-104.00390625
0.6646919250488281,-1270029026,0,-0.8709338903427124,-0.054785579442977905,-0.7213858366012573,0.42724609375,-18.61572265625,-40.4052734375
0.6791801452636719,-1270029007,1,-1.7159281969070435,-0.3027440309524536,0.20531918108463287,-139.2822265625,63.1103515625,-208.80126953125
0.6966657638549805,-1270029007,0,-0.4424670934677124,0.0963374674320221,-0.8937491178512573,-22.27783203125,-63.96484375,-52.3681640625
0.6966779232025146,-1270028988,0,-0.4363635778427124,-0.058447688817977905,-0.9062002897262573,-40.34423828125,-46.32568359375,-70.9228515625
0.7105460166931152,-1270028988,1,-1.2779399156570435,0.005117285996675491,0.030026216059923172,-131.40869140625,-4.82177734375,-122.55859375
0.7255799770355225,-1270028969,0,-0.4524768590927124,-0.1375492513179779,-0.9135245084762573,-45.166015625,-56.57958984375,-66.650390625
0.7257070541381836,-1270028950,0,-0.3843616247177124,-0.1907719075679779,-0.6889151334762573,-35.7666015625,-54.5654296875,-53.40576171875
0.7439088821411133,-1270028969,1,-0.8655864000320435,-0.10401357710361481,-0.25488588213920593,-165.83251953125,-31.06689453125,-87.34130859375
0.7439160346984863,-1270028950,1,-0.6058207750320435,0.10594736039638519,-0.11059878766536713,-189.02587890625,-129.94384765625,-9.46044921875
0.7538509368896484,-1270028931,0,-0.3391956090927124,-0.1771000325679779,-0.6239737272262573,-30.1513671875,-33.3251953125,-51.8798828125
0.7689578533172607,-1270028931,1,-0.6197367906570435,0.04100595787167549,-0.30981752276420593,-152.89306640625,-7.62939453125,69.27490234375
0.7690749168395996,-1270028912,1,-0.9832621812820435,0.1711329072713852,-0.18408511579036713,-64.27001953125,81.298828125,10.68115234375
0.791208028793335,-1270028912,0,-0.3169788122177124,-0.0889652669429779,-0.7728995084762573,-24.5361328125,-11.41357421875,-32.89794921875
0.791921854019165,-1270028893,0,-0.3863147497177124,-0.2288578450679779,-0.5995596647262573,16.11328125,2.50244140625,-9.27734375
0.7988448143005371,-1270028893,1,-0.8912211656570435,0.3891505002975464,-0.14502261579036713,-41.56494140625,48.4619140625,-81.97021484375
0.8155410289764404,-1270028874,0,-0.3597034215927124,0.053124576807022095,-0.6615713834762573,24.5361328125,0.0,4.82177734375
0.840040922164917,-1270028874,1,-0.6968852281570435,0.1994532197713852,-0.22388003766536713,-71.4111328125,-40.6494140625,-113.525390625
0.8400487899780273,-1270028855,1,-0.6971293687820435,0.2067774385213852,-0.19433902204036713,-38.0859375,-17.9443359375,-127.25830078125
0.8456399440765381,-1270028855,0,-0.4449084997177124,0.026757389307022095,-0.6952627897262573,18.798828125,7.080078125,-10.31494140625
0.8603651523590088,-1270028836,1,-0.7911235094070435,0.09129892289638519,-0.20874331891536713,-4.39453125,27.77099609375,-164.306640625
0.8752989768981934,-1270028819,0,-0.5552600622177124,-0.1238773763179779,-0.5739248991012573,30.45654296875,-10.7421875,-44.12841796875
0.8961889743804932,-1270028817,1,-0.9002543687820435,-0.06104482337832451,-0.14795230329036713,-14.09912109375,43.27392578125,-163.6962890625
0.8961977958679199,-1270028798,1,-0.7776957750320435,-0.12061513960361481,-0.05493472144007683,-29.72412109375,2.62451171875,-145.263671875
0.9039499759674072,-1270028800,0,-0.4554065465927124,-0.1365726888179779,-0.4723624289035797,-3.173828125,-33.14208984375,-26.4892578125
0.9040939807891846,-1270028781,0,-0.3670276403427124,-0.1705082356929779,-0.5705069303512573,-36.80419921875,-24.90234375,7.87353515625
0.9208099842071533,-1270028779,1,-0.5621196031570435,0.011464942246675491,0.22753597795963287,-34.85107421875,-5.06591796875,-124.20654296875
0.941270112991333,-1270028762,0,-0.2681506872177124,-0.1307133138179779,-0.5001944303512573,-67.56591796875,-22.64404296875,54.62646484375
0.941277027130127,-1270028743,0,-0.1905139684677124,0.007470279932022095,-0.5998038053512573,-113.22021484375,-60.546875,102.72216796875
0.9503769874572754,-1270028743,1,-0.7327739000320435,0.03319345787167549,0.08715511858463287,-55.96923828125,32.71484375,-250.18310546875
0.9682917594909668,-1270028724,0,-0.3333362340927124,-0.2605961263179779,-0.8754385709762573,-161.865234375,-12.39013671875,85.51025390625
0.9906020164489746,-1270028724,1,-0.5528422594070435,-0.4524022340774536,0.5319793224334717,-14.2822265625,-1.220703125,-189.39208984375
0.9906108379364014,-1270028705,1,-0.8177348375320435,-0.5727635622024536,0.37621763348579407,74.03564453125,111.63330078125,-125.0
0.9954779148101807,-1270028705,0,-0.7749866247177124,0.1632319986820221,-1.2143057584762573,-105.224609375,-22.64404296875,-5.92041015625
0.9955661296844482,-1270028686,0,-0.5091174840927124,0.3468257486820221,-1.1945303678512573,-30.94482421875,-61.767578125,-62.01171875
1.0117268562316895,-1270028686,1,-0.7496196031570435,-0.4487401247024536,0.43652036786079407,41.56494140625,-20.01953125,-67.138671875
1.0254909992218018,-1270028667,0,-0.3150256872177124,0.2806636393070221,-0.9931143522262573,5.06591796875,-69.64111328125,-135.19287109375
1.0434539318084717,-1270028667,1,-1.0648051500320435,-0.4289647340774536,0.7189910411834717,66.162109375,-6.16455078125,-16.845703125
1.043461799621582,-1270028648,1,-1.1297465562820435,-0.4567967653274536,0.6767547130584717,117.431640625,46.32568359375,-11.71875
1.0556080341339111,-1270028648,0,-0.3860706090927124,0.1473628580570221,-0.8563956022262573,2.13623046875,-42.17529296875,-126.40380859375
1.0557420253753662,-1270028629,0,-0.3181995153427124,0.2237788736820221,-1.0082510709762573,-12.14599609375,-34.48486328125,-86.0595703125
1.0703399181365967,-1270028629,1,-1.2254496812820435,-0.6113377809524536,0.46093443036079407,137.3291015625,100.7080078125,-1.03759765625
1.0920729637145996,-1270028610,0,-0.5186389684677124,0.1568843424320221,-0.8278311491012573,-33.3251953125,-6.16455078125,-95.21484375
1.0920798778533936,-1270028591,0,-0.6433948278427124,0.0670405924320221,-0.7638663053512573,-61.95068359375,-41.07666015625,-112.85400390625
1.0990049839019775,-1270028610,1,-1.2715922594070435,-0.6547948122024536,0.29320982098579407,118.10302734375,138.36669921875,16.357421875
1.0991430282592773,-1270028591,1,-1.2586528062820435,-0.5803319215774536,0.21923519670963287,85.5712890625,145.08056640625,50.78125
1.1281509399414062,-1270028572,1,-1.0999614000320435,-0.7729588747024536,0.24633480608463287,73.05908203125,134.46044921875,66.22314453125
1.12892484664917,-1270028553,1,-0.8807231187820435,-0.5332127809524536,0.10912777483463287,50.4150390625,94.1162109375,72.6318359375
1.1578869819641113,-1270028534,1,-1.0196391344070435,-0.6145116090774536,-0.08423160016536713,91.24755859375,89.7216796875,123.6572265625
1.1743369102478027,-1270028555,0,-0.4602893590927124,-0.4148930013179779,-0.7628897428512573,-99.7314453125,-53.955078125,-140.0146484375
1.1744799613952637,-1270028536,0,-0.4622424840927124,-0.4268558919429779,-0.8515127897262573,-76.416015625,-32.71484375,-94.66552734375
1.174738883972168,-1270028517,0,-0.5218127965927124,-0.3289555013179779,-0.6291006803512573,-38.6962890625,-3.72314453125,-57.0068359375
1.1752750873565674,-1270028498,0,-0.7115100622177124,-0.2967289388179779,-0.4503897726535797,-38.57421875,18.85986328125,-34.7900390625
1.1959319114685059,-1270028515,1,-1.0982524156570435,-0.3186131715774536,-0.13867495954036713,78.43017578125,91.97998046875,133.544921875
1.2038989067077637,-1270028479,0,-0.7615588903427124,-0.3177250325679779,-0.4198721945285797,-57.80029296875,12.39013671875,-11.5966796875
1.2204830646514893,-1270028479,1,-0.9349223375320435,-0.4045506715774536,-0.21924136579036713,61.82861328125,57.9833984375,83.55712890625
1.2429530620574951,-1270028460,0,-0.8377307653427124,-0.3553226888179779,-0.4840811789035797,-53.89404296875,13.427734375,-37.04833984375
1.2429609298706055,-1270028441,0,-0.8260120153427124,-0.3282230794429779,-0.5458487272262573,-25.634765625,8.30078125,-58.28857421875
1.2505910396575928,-1270028460,1,-0.9324809312820435,-0.3471776247024536,-0.26269838213920593,89.4775390625,12.14599609375,85.9375
1.2506659030914307,-1270028441,1,-0.8433696031570435,-0.2675877809524536,-0.31933900713920593,97.412109375,-23.4375,79.40673828125
1.2641558647155762,-1270028422,0,-0.7923206090927124,-0.4346683919429779,-0.5136221647262573,7.38525390625,35.400390625,-99.30419921875
1.2788867950439453,-1270028422,1,-0.8882914781570435,-0.1955663114786148,-0.41382142901420593,109.9853515625,-48.64501953125,48.88916015625
1.2790288925170898,-1270028403,1,-0.9644633531570435,-0.3344823122024536,-0.49267885088920593,139.0380859375,-61.70654296875,7.38525390625
1.2941889762878418,-1270028403,0,-0.8765491247177124,-0.4942387044429779,-0.4899405539035797,57.861328125,39.48974609375,-108.2763671875
1.2941970825195312,-1270028384,0,-0.9397815465927124,-0.4278324544429779,-0.3314932882785797,93.75,10.6201171875,-73.79150390625
1.308845043182373,-1270028384,1,-1.0953227281570435,-0.7751561403274536,-0.30517885088920593,133.6669921875,-165.22216796875,-25.390625
1.3238651752471924,-1270028365,0,-0.9129260778427124,-0.3111332356929779,-0.1840323507785797,93.81103515625,-18.12744140625,-50.59814453125
1.344430923461914,-1270028365,1,-0.7108012437820435,-0.6550389528274536,-0.18554995954036713,163.4521484375,-257.568359375,-17.2119140625
1.34443998336792,-1270028346,1,-0.5247660875320435,-0.0036717765033245087,-0.48926088213920593,161.07177734375,-204.2236328125,34.1796875
1.3540050983428955,-1270028346,0,-0.8733752965927124,-0.1170414388179779,-0.2374991476535797,67.32177734375,-18.6767578125,-39.9169921875
1.3541109561920166,-1270028327,0,-0.8914417028427124,-0.2784183919429779,-0.1820792257785797,19.47021484375,-0.8544921875,-40.34423828125
1.3695299625396729,-1270028327,1,-0.8712016344070435,-0.2292577177286148,-0.35718080401420593,114.19677734375,-148.3154296875,68.359375
1.3924710750579834,-1270028291,0,-0.9153674840927124,-0.3938969075679779,-0.1723136007785797,-18.12744140625,43.88427734375,-9.1552734375
1.4005889892578125,-1270028308,1,-0.8589946031570435,-0.5205174684524536,-0.26904603838920593,128.41796875,-81.6650390625,78.857421875
1.4007189273834229,-1270028289,1,-0.8968364000320435,-0.4240819215774536,-0.24267886579036713,122.86376953125,-114.92919921875,111.14501953125
1.415498971939087,-1270028272,0,-0.9656604528427124,-0.3104008138179779,-0.1911124289035797,-40.10009765625,52.8564453125,10.986328125
1.440551996231079,-1270028270,1,-0.8834086656570435,-0.3808690309524536,-0.09985660016536713,60.1806640625,-169.677734375,155.09033203125
1.440566062927246,-1270028251,1,-0.8150492906570435,-0.4682713747024536,0.04931332543492317,10.07080078125,-208.740234375,194.3359375
1.447739839553833,-1270028253,0,-1.0315784215927124,-0.3162601888179779,-0.2333487570285797,-60.6689453125,55.5419921875,13.73291015625
1.4477479457855225,-1270028234,0,-0.9461292028427124,-0.3333500325679779,-0.2584952414035797,-84.716796875,43.88427734375,15.380859375
1.4732539653778076,-1270028215,0,-0.8008655309677124,-0.2281254231929779,-0.3664053976535797,-97.0458984375,10.25390625,39.4287109375
1.4966609477996826,-1270028215,1,-0.9317485094070435,0.02782236412167549,0.20043636858463287,11.962890625,-178.466796875,243.10302734375
1.496668815612793,-1270028196,1,-0.9183207750320435,-0.0017186515033245087,0.49560239911079407,41.56494140625,-182.373046875,226.01318359375
1.5055010318756104,-1270028196,0,-0.7881702184677124,-0.1255863606929779,-0.3158682882785797,-78.61328125,-55.17578125,106.99462890625
1.505586862564087,-1270028177,0,-1.3777698278427124,-0.5525883436203003,-0.9281729459762573,-45.10498046875,-98.0224609375,139.16015625
1.5207760334014893,-1270028177,1,-0.7535258531570435,0.03368173912167549,0.6110808849334717,43.8232421875,-132.99560546875,194.76318359375
1.543808937072754,-1270028158,0,-1.0662463903427124,-0.1619633138179779,-0.6188467741012573,-2.9296875,30.45654296875,67.626953125
1.5506608486175537,-1270028158,1,-0.7491313219070435,0.3085840940475464,0.8352019786834717,17.822265625,-91.24755859375,184.6923828125
1.5506980419158936,-1270028139,1,-0.6785746812820435,0.9682520627975464,0.6301238536834717,9.27734375,-82.1533203125,141.4794921875
1.5654468536376953,-1270028139,0,-0.8838733434677124,-0.017187923192977905,-0.5546377897262573,1.953125,59.99755859375,46.2646484375
1.5655360221862793,-1270028120,0,-0.8987659215927124,-0.0911625325679779,-0.5387686491012573,4.39453125,45.71533203125,31.18896484375
1.5906591415405273,-1270028120,1,-0.7093364000320435,0.9294337034225464,0.5751922130584717,11.77978515625,-33.935546875,24.658203125
1.5906670093536377,-1270028101,1,-0.7752543687820435,0.6291407346725464,0.5192840099334717,13.12255859375,20.8740234375,-66.58935546875
1.595465898513794,-1270028101,0,-0.9637073278427124,-0.008398860692977905,-0.7333487272262573,2.38037109375,5.2490234375,28.1982421875
1.5955889225006104,-1270028082,0,-0.9456409215927124,0.035546451807022095,-0.7089346647262573,4.94384765625,-51.20849609375,26.55029296875
1.609489917755127,-1270028082,1,-0.7361918687820435,0.5100001096725464,0.38744810223579407,-13.24462890625,39.73388671875,-101.07421875
1.624614953994751,-1270028063,0,-0.9488147497177124,-0.0655277669429779,-0.6303213834762573,15.9912109375,-88.92822265625,30.09033203125
1.6447529792785645,-1270028063,1,-0.7012797594070435,0.4020899534225464,0.6406219005584717,-28.01513671875,31.982421875,-83.49609375
1.644761085510254,-1270028044,1,-0.8433696031570435,0.2966212034225464,0.5549285411834717,-26.42822265625,88.92822265625,-51.3916015625
1.6547257900238037,-1270028027,0,-0.9693225622177124,-0.046973079442977905,-0.5094717741012573,40.34423828125,-113.037109375,44.12841796875
1.6909708976745605,-1270028008,0,-0.9795764684677124,0.016991764307022095,-0.4457511007785797,38.75732421875,-117.67578125,34.48486328125
1.699031114578247,-1270028025,1,-0.8353129625320435,0.2194727510213852,0.48412778973579407,2.01416015625,72.44873046875,-12.87841796875
1.699192762374878,-1270028006,1,-0.8567973375320435,0.2072657197713852,0.47558286786079407,5.67626953125,64.14794921875,6.53076171875
1.703768014907837,-1270027987,1,-0.8025981187820435,0.3359278440475464,0.44530943036079407,-5.859375,54.99267578125,0.48828125
1.714104175567627,-1270027989,0,-1.0193713903427124,-0.007422298192977905,-0.2680167257785797,40.22216796875,-68.66455078125,23.98681640625
1.7142279148101807,-1270027970,0,-0.9539417028427124,-0.1404789388179779,-0.3134268820285797,29.96826171875,-34.48486328125,28.564453125
1.7402689456939697,-1270027951,1,-0.7664653062820435,0.1928614228963852,0.46630552411079407,36.0107421875,42.1142578125,-49.1943359375
1.7476489543914795,-1270027951,0,-0.9727405309677124,-0.1014164388179779,-0.3004874289035797,18.98193359375,-49.9267578125,26.67236328125
1.7476580142974854,-1270027932,0,-0.9422229528427124,-0.0923832356929779,-0.3451651632785797,18.310546875,-38.14697265625,21.66748046875
1.7607519626617432,-1270027932,1,-0.8077250719070435,0.1584375947713852,0.32470396161079407,23.193359375,48.76708984375,-53.7109375
1.7753419876098633,-1270027913,0,-0.9729846715927124,-0.1316898763179779,-0.3795889914035797,26.123046875,-44.3115234375,24.23095703125
1.795536994934082,-1270027913,1,-0.8336039781570435,0.1266993135213852,0.34911802411079407,-5.06591796875,39.55078125,-35.888671875
1.7955451011657715,-1270027894,1,-0.7855082750320435,0.1374415010213852,0.38988950848579407,-17.578125,33.3251953125,-22.52197265625
1.8039538860321045,-1270027894,0,-0.9361194372177124,-0.047705501317977905,-0.3551749289035797,31.43310546875,-58.53271484375,25.634765625
1.8040850162506104,-1270027875,0,-0.8775256872177124,-0.0018070638179779053,-0.1847647726535797,22.8271484375,-40.10009765625,21.91162109375
1.8187379837036133,-1270027875,1,-0.8182231187820435,0.2934473752975464,0.28539732098579407,2.9296875,39.48974609375,-40.58837890625
1.8434350490570068,-1270027856,0,-0.8538440465927124,-0.0916508138179779,-0.1608389914035797,14.404296875,14.5263671875,20.1416015625
1.8490700721740723,-1270027856,1,-0.8792582750320435,0.3085840940475464,0.25170591473579407,17.578125,14.09912109375,-72.6318359375
1.849086046218872,-1270027837,1,-0.8311625719070435,0.06297861039638519,0.48461607098579407,29.11376953125,26.67236328125,-102.47802734375
1.8656561374664307,-1270027837,0,-0.8557971715927124,-0.1629398763179779,-0.2414053976535797,10.43701171875,65.24658203125,27.64892578125
1.865757942199707,-1270027818,0,-0.9053577184677124,-0.0784672200679779,-0.3375968039035797,7.87353515625,78.55224609375,35.82763671875
1.8906230926513672,-1270027818,1,-0.9232035875320435,0.012197364121675491,0.6142547130584717,36.9873046875,72.8759765625,-109.06982421875
1.8956120014190674,-1270027799,0,-0.8909534215927124,-0.029883235692977905,-0.4157218039035797,2.74658203125,76.171875,37.41455078125
1.9105658531188965,-1270027799,1,-0.8709574937820435,-0.0024510733783245087,0.41601255536079407,12.87841796875,90.4541015625,-53.64990234375
1.9106650352478027,-1270027780,1,-0.8917094469070435,0.06688486039638519,0.24779964983463287,-25.20751953125,83.3740234375,27.16064453125
1.9255499839782715,-1270027763,0,-0.8572620153427124,-0.034033626317977905,-0.4130362570285797,1.0986328125,45.7763671875,34.72900390625
1.9435861110687256,-1270027761,1,-0.8423930406570435,0.2177637666463852,0.33227232098579407,-32.8369140625,41.259765625,61.03515625
1.9435949325561523,-1270027742,1,-0.8548442125320435,0.2348536103963852,0.34057310223579407,-33.0810546875,19.47021484375,67.87109375
1.9556279182434082,-1270027744,0,-0.8291858434677124,-0.047949641942977905,-0.3363761007785797,6.8359375,19.10400390625,41.6259765625
1.9557571411132812,-1270027725,0,-0.8501819372177124,-0.019141048192977905,-0.1955069601535797,11.53564453125,5.55419921875,45.7763671875
1.9704678058624268,-1270027723,1,-0.8655864000320435,0.2202051728963852,0.43896177411079407,-23.37646484375,22.3388671875,48.7060546875
1.9918439388275146,-1270027706,0,-0.8531116247177124,0.016015201807022095,-0.08393468707799911,14.6484375,5.67626953125,42.66357421875
2.000540018081665,-1270027687,1,-0.9324809312820435,0.2055567353963852,0.44115903973579407,-41.1376953125,47.9736328125,21.17919921875
2.015558958053589,-1270027687,0,-0.8399280309677124,-0.029883235692977905,-0.040721796452999115,15.80810546875,8.9111328125,35.0341796875
2.0156610012054443,-1270027668,0,-0.7769397497177124,-0.0845707356929779,-0.11005773395299911,29.96826171875,37.9638671875,26.9775390625
2.0407629013061523,-1270027668,1,-0.7940531969070435,0.2294825166463852,0.43090513348579407,-42.8466796875,40.71044921875,16.2353515625
2.0454211235046387,-1270027649,0,-0.8101428747177124,-0.0767582356929779,-0.2931632101535797,47.42431640625,58.41064453125,26.85546875
2.0454959869384766,-1270027630,0,-0.9331897497177124,0.0824214518070221,-0.3612784445285797,53.955078125,59.02099609375,26.91650390625
2.0606889724731445,-1270027649,1,-0.8621684312820435,0.2390040010213852,0.40234068036079407,-26.91650390625,-14.404296875,37.78076171875
2.0607821941375732,-1270027630,1,-0.9507914781570435,0.2109278291463852,0.40795591473579407,-15.0146484375,-45.0439453125,57.6171875
2.07545804977417,-1270027611,0,-1.0110706090927124,0.1104976236820221,-0.3707999289035797,38.02490234375,58.10546875,12.39013671875
2.0943939685821533,-1270027611,1,-0.9546977281570435,0.1777247041463852,0.5244109630584717,-9.1552734375,-46.9970703125,73.1201171875
2.0944020748138428,-1270027592,1,-0.9576274156570435,0.2109278291463852,0.5573699474334717,-13.18359375,-46.81396484375,63.1103515625
2.105609893798828,-1270027592,0,-1.0320667028427124,-0.0945805013179779,-0.4804190695285797,15.7470703125,34.7900390625,-8.48388671875
2.105743885040283,-1270027573,0,-1.0098499059677124,-0.2232426106929779,-0.5275381803512573,24.23095703125,3.60107421875,-8.60595703125
2.120723009109497,-1270027573,1,-1.0250102281570435,0.2809962034225464,0.5229461193084717,-22.3388671875,-67.68798828125,60.36376953125
2.1440980434417725,-1270027554,0,-0.9619983434677124,-0.2386234700679779,-0.5954092741012573,50.84228515625,-10.6201171875,9.46044921875
2.1504809856414795,-1270027554,1,-0.9940043687820435,0.2748926877975464,0.5822722911834717,-10.986328125,-66.0400390625,45.2880859375
2.150585889816284,-1270027535,1,-1.0128031969070435,0.3000391721725464,0.6020476818084717,-20.44677734375,-52.8564453125,23.193359375
2.165666103363037,-1270027535,0,-0.9444202184677124,-0.1712406575679779,-0.6991690397262573,64.3310546875,-27.099609375,21.17919921875
2.180133819580078,-1270027516,1,-1.0035258531570435,0.3222559690475464,0.6166961193084717,-26.123046875,-26.3671875,1.46484375
2.2082581520080566,-1270027497,1,-0.9720317125320435,0.2624415159225464,0.6269500255584717,-18.06640625,-6.77490234375,1.15966796875
2.209012031555176,-1270027478,1,-0.8267680406570435,0.2126368135213852,0.6845672130584717,-23.62060546875,6.4697265625,18.98193359375
2.224303960800171,-1270027499,0,-0.8958362340927124,-0.031836360692977905,-0.6022452116012573,49.31640625,-70.1904296875,28.80859375
2.2244739532470703,-1270027480,0,-0.9041370153427124,-0.0921390950679779,-0.4879874289035797,28.1982421875,-59.326171875,28.9306640625
2.22448992729187,-1270027461,0,-0.8902209997177124,-0.1482914388179779,-0.5421866178512573,14.2822265625,-39.00146484375,23.5595703125
2.242946147918701,-1270027459,1,-0.7198344469070435,0.1542872041463852,0.6162078380584717,-25.20751953125,14.16015625,33.99658203125
2.255459785461426,-1270027442,0,-0.8955920934677124,-0.2188480794429779,-0.6518057584762573,17.76123046875,-30.3955078125,3.84521484375
2.255544900894165,-1270027423,0,-0.9541858434677124,-0.2110355794429779,-0.7440909147262573,36.2548828125,-76.72119140625,-6.04248046875
2.270400047302246,-1270027423,1,-0.8599711656570435,0.3405665159225464,0.5363738536834717,-2.86865234375,9.82666015625,22.5830078125
2.2914979457855225,-1270027404,0,-0.8479846715927124,-0.0657719075679779,-0.6181143522262573,59.38720703125,-97.59521484375,-15.7470703125
2.3005309104919434,-1270027404,1,-0.8890239000320435,0.3061426877975464,0.48656919598579407,0.244140625,8.1787109375,11.474609375
2.3006439208984375,-1270027385,1,-0.8892680406570435,0.3002833127975464,0.46581724286079407,15.5029296875,9.3994140625,18.24951171875
2.3139750957489014,-1270027385,0,-0.9339221715927124,-0.1265629231929779,-0.3778800070285797,37.65869140625,-70.37353515625,-10.009765625
2.314018964767456,-1270027366,0,-0.8885120153427124,-0.2005375325679779,-0.4748038351535797,14.83154296875,-49.6826171875,-12.51220703125
2.3288609981536865,-1270027366,1,-0.8914653062820435,0.2438868135213852,0.47045591473579407,28.50341796875,-3.11279296875,28.13720703125
2.3441429138183594,-1270027347,0,-0.8511584997177124,-0.2000492513179779,-0.5319327116012573,15.9912109375,-35.33935546875,-13.5498046875
2.3589460849761963,-1270027347,1,-0.8858500719070435,0.2433985322713852,0.49511411786079407,30.70068359375,-4.0283203125,24.90234375
2.3590540885925293,-1270027328,1,-0.8990336656570435,0.2778223752975464,0.42455747723579407,24.84130859375,4.150390625,24.35302734375
2.3740360736846924,-1270027328,0,-0.8514026403427124,-0.2586430013179779,-0.5475577116012573,22.27783203125,-24.90234375,-14.46533203125
2.3740999698638916,-1270027309,0,-0.7969592809677124,-0.1678226888179779,-0.5834463834762573,8.72802734375,-30.33447265625,-11.29150390625
2.3933770656585693,-1270027309,1,-0.8604594469070435,0.3051661252975464,0.41503599286079407,8.7890625,9.8876953125,19.287109375
2.4056057929992676,-1270027290,0,-0.7576526403427124,-0.2076176106929779,-0.5319327116012573,-4.39453125,-36.0107421875,-2.5634765625
2.405677080154419,-1270027271,0,-0.7796252965927124,-0.2349613606929779,-0.4706534445285797,-10.07080078125,-41.56494140625,7.8125
2.4204859733581543,-1270027290,1,-0.8433696031570435,0.3102930784225464,0.38769224286079407,-3.0517578125,12.0849609375,16.2353515625
2.420590877532959,-1270027271,1,-0.9297953844070435,0.3056544065475464,0.27880552411079407,-4.2724609375,6.28662109375,22.5830078125
2.44850492477417,-1270027252,1,-0.9000102281570435,0.3037012815475464,0.38036802411079407,7.8125,12.6953125,28.38134765625
2.450124979019165,-1270027233,1,-0.9112406969070435,0.2722071409225464,0.32592466473579407,-4.33349609375,24.84130859375,35.46142578125
2.465590000152588,-1270027235,0,-0.9087756872177124,-0.2640140950679779,-0.4220694601535797,0.91552734375,-30.76171875,30.2734375
2.465690851211548,-1270027216,0,-0.8579944372177124,-0.2891605794429779,-0.4188956320285797,-7.32421875,-41.3818359375,52.06298828125
2.4837288856506348,-1270027214,1,-0.8843852281570435,0.3193262815475464,0.26977232098579407,-12.39013671875,10.19287109375,49.01123046875
2.497313976287842,-1270027197,0,-0.8440784215927124,-0.1177738606929779,-0.3920401632785797,-11.23046875,-46.142578125,64.8193359375
2.5103719234466553,-1270027195,1,-0.9041606187820435,0.3679102659225464,0.24560238420963287,-10.07080078125,-15.13671875,51.3916015625
2.5256597995758057,-1270027178,0,-0.8189319372177124,-0.024512141942977905,-0.2968253195285797,-26.91650390625,-13.916015625,52.79541015625
2.5256781578063965,-1270027159,0,-0.8435901403427124,-0.1956547200679779,-0.3180655539035797,-49.25537109375,22.8271484375,30.517578125
2.5443058013916016,-1270027159,1,-0.9483500719070435,0.3388575315475464,0.20385433733463287,6.34765625,-75.98876953125,42.236328125
2.555530071258545,-1270027140,0,-0.8509143590927124,-0.2608402669429779,-0.4711417257785797,-24.84130859375,-35.21728515625,36.0107421875
2.5556390285491943,-1270027121,0,-0.7942737340927124,-0.038428157567977905,-0.5001944303512573,-12.8173828125,-78.55224609375,24.47509765625
2.570570945739746,-1270027140,1,-0.9471293687820435,0.3576563596725464,0.21850277483463287,26.611328125,-100.2197265625,44.3115234375
2.570711135864258,-1270027121,1,-0.7774516344070435,0.3293360471725464,0.38891294598579407,54.50439453125,-110.595703125,33.203125
2.592194080352783,-1270027102,0,-0.7181018590927124,0.1725093424320221,-0.4520987570285797,-31.43310546875,-78.43017578125,6.8359375
2.5989980697631836,-1270027102,1,-0.9219828844070435,0.4702051877975464,0.33007505536079407,58.59375,-93.93310546875,16.11328125
2.5991199016571045,-1270027083,1,-0.9139262437820435,0.4767969846725464,0.35131528973579407,24.23095703125,-117.5537109375,4.08935546875
2.6155898571014404,-1270027083,0,-0.8208850622177124,0.0680171549320221,-0.3842276632785797,-41.3818359375,-83.55712890625,-2.9296875
2.61570405960083,-1270027064,0,-0.9034045934677124,-0.2654789388179779,-0.3815421164035797,-24.2919921875,-68.90869140625,-19.8974609375
2.6406209468841553,-1270027064,1,-0.9505473375320435,0.5539454221725464,0.46288755536079407,-11.29150390625,-130.9814453125,-4.69970703125
2.6453371047973633,-1270027045,0,-0.9053577184677124,-0.2730472981929779,-0.4054678976535797,-8.056640625,-66.58935546875,-38.6962890625
2.660567045211792,-1270027045,1,-0.8577739000320435,0.4936426877975464,0.6252410411834717,-73.1201171875,-141.357421875,-7.568359375
2.660686731338501,-1270027026,1,-0.7354594469070435,0.4282130002975464,0.6823699474334717,-118.95751953125,-134.3994140625,-20.99609375
2.6755878925323486,-1270027026,0,-0.9192737340927124,-0.0799320638179779,-0.3886221945285797,9.033203125,-80.99365234375,-48.40087890625
2.6756579875946045,-1270027007,0,-0.8977893590927124,-0.027685970067977905,-0.2663077414035797,19.53125,-66.83349609375,-50.048828125
2.694023847579956,-1270027007,1,-0.6585551500320435,0.3581446409225464,0.7436492443084717,-168.27392578125,-119.873046875,-21.3623046875
2.7039248943328857,-1270026971,0,-0.9717639684677124,-0.025732845067977905,-0.11835851520299911,-31.6162109375,-56.94580078125,-64.3310546875
2.7413899898529053,-1270026952,0,-0.9322131872177124,-0.0704105794429779,0.002735234797000885,-82.8857421875,-85.0830078125,-65.3076171875
2.748945951461792,-1270026988,1,-0.48277387022972107,0.1288965791463852,0.7141082286834717,-187.68310546875,-102.23388671875,-1.64794921875
2.749070882797241,-1270026969,1,-0.30503949522972107,-0.1928807646036148,0.46337583661079407,-164.36767578125,-67.3828125,29.296875
2.749890089035034,-1270026950,1,-0.6839457750320435,0.3010157346725464,0.33861997723579407,-32.3486328125,-20.6298828125,58.7158203125
2.749980926513672,-1270026931,1,-0.6150981187820435,0.2487696260213852,0.5993621349334717,2.25830078125,-100.09765625,49.86572265625
2.763920783996582,-1270026933,0,-0.8399280309677124,-0.0909183919429779,-0.08369054645299911,-127.99072265625,-178.52783203125,-55.7861328125
2.7639801502227783,-1270026914,0,-0.8855823278427124,-0.011328548192977905,-0.5331534147262573,-182.6171875,-267.4560546875,-61.6455078125
2.7966978549957275,-1270026895,0,-0.9822620153427124,-0.0965336263179779,-0.3241690695285797,-174.6826171875,-267.9443359375,-46.56982421875
2.8105390071868896,-1270026895,1,-0.5108500719070435,0.3268946409225464,0.6899383068084717,19.6533203125,-143.9208984375,32.04345703125
2.810619831085205,-1270026876,1,-0.5203715562820435,0.3288477659225464,0.7209441661834717,19.22607421875,-119.5068359375,5.31005859375
2.8246867656707764,-1270026876,0,-0.9090198278427124,-0.4476078450679779,-0.2423819601535797,-99.365234375,-232.36083984375,-13.48876953125
2.8247768878936768,-1270026857,0,-0.8760608434677124,-0.3904789388179779,-0.09370031207799911,-34.7900390625,-239.56298828125,22.4609375
2.8436238765716553,-1270026857,1,-0.41465863585472107,0.2744044065475464,0.6743133068084717,20.81298828125,-134.82666015625,-11.8408203125
2.8538858890533447,-1270026838,0,-0.9114612340927124,-0.1441410481929779,0.003467656672000885,27.52685546875,-194.39697265625,30.2734375
2.8713998794555664,-1270026838,1,-0.39048871397972107,0.3354395627975464,0.7421844005584717,28.38134765625,-103.3935546875,1.40380859375
2.8714089393615723,-1270026819,1,-0.6619731187820435,0.2070215791463852,0.8347136974334717,28.3203125,-73.486328125,23.49853515625
2.8916428089141846,-1270026819,0,-0.8064807653427124,0.0980464518070221,-0.010692499577999115,48.33984375,-201.5380859375,32.04345703125
2.8916518688201904,-1270026800,0,-0.8963245153427124,-0.1192387044429779,0.06694421917200089,30.09033203125,-263.36669921875,102.23388671875
2.898939847946167,-1270026800,1,-0.8016215562820435,0.2993067502975464,0.9497039318084717,21.78955078125,-78.79638671875,1.03759765625
2.8990540504455566,-1270026781,1,-0.5787211656570435,0.2958887815475464,0.8764617443084717,35.09521484375,-111.99951171875,-9.09423828125
2.9155330657958984,-1270026781,0,-1.0681995153427124,-0.4156254231929779,0.1743660867214203,21.42333984375,-312.19482421875,172.79052734375
2.9156439304351807,-1270026762,0,-1.1519397497177124,-0.3912113606929779,0.4873543679714203,27.64892578125,-219.8486328125,136.90185546875
2.9395179748535156,-1270026762,1,-0.5687114000320435,0.2870997190475464,0.8740203380584717,41.1376953125,-95.0927734375,-18.5546875
2.9439260959625244,-1270026743,0,-1.0821155309677124,0.022851139307022095,0.6079598665237427,27.28271484375,-228.82080078125,80.01708984375
2.95898699760437,-1270026743,1,-0.5482035875320435,0.2805079221725464,0.8803679943084717,21.240234375,-77.81982421875,-13.73291015625
2.9590389728546143,-1270026724,1,-0.49644574522972107,0.3027247190475464,0.8417937755584717,9.033203125,-66.34521484375,-2.99072265625
2.9755070209503174,-1270026707,0,-0.9810413122177124,0.1856929361820221,0.4951668679714203,4.2724609375,-303.28369140625,-9.82666015625
2.9941630363464355,-1270026705,1,-0.45762738585472107,0.3037012815475464,0.8151824474334717,5.0048828125,-51.94091796875,14.7705078125
3.0057148933410645,-1270026688,0,-0.9114612340927124,0.1285640299320221,0.6492196321487427,-2.8076171875,-334.8388671875,-35.0341796875
3.0204648971557617,-1270026686,1,-0.46080121397972107,0.3163965940475464,0.8249480724334717,12.0849609375,-39.4287109375,33.75244140625
3.0205399990081787,-1270026667,1,-0.44371137022972107,0.3627833127975464,0.8349578380584717,17.76123046875,-29.47998046875,36.56005859375
3.041902780532837,-1270026669,0,-0.7100452184677124,0.0682612955570221,0.9941903352737427,20.751953125,-293.39599609375,-54.5654296875
3.0419111251831055,-1270026650,0,-0.5244983434677124,-0.010107845067977905,1.1113778352737427,39.00146484375,-239.6240234375,-54.01611328125
3.0489158630371094,-1270026631,1,-0.28843793272972107,0.2919825315475464,0.7924773693084717,24.59716796875,-27.64892578125,17.822265625
3.0657410621643066,-1270026631,0,-0.4883655309677124,0.044823795557022095,1.1069833040237427,36.68212890625,-208.740234375,-50.048828125
3.065845012664795,-1270026612,0,-0.5967639684677124,0.033837467432022095,0.9768563508987427,32.28759765625,-200.50048828125,-59.87548828125
3.091032028198242,-1270026612,1,-0.25865277647972107,0.4426172971725464,0.8813445568084717,30.8837890625,-15.19775390625,47.18017578125
3.0973808765411377,-1270026593,0,-0.7613147497177124,0.050927311182022095,1.0244637727737427,21.42333984375,-296.7529296875,-50.9033203125
3.11067795753479,-1270026593,1,-0.25914105772972107,0.5434473752975464,0.9362761974334717,39.00146484375,-2.197265625,41.8701171875
3.1107468605041504,-1270026574,1,-0.31675824522972107,0.5439356565475464,0.8554656505584717,50.29296875,24.90234375,7.38525390625
3.1255550384521484,-1270026574,0,0.005530960857868195,0.0812007486820221,1.0542489290237427,12.6953125,-352.9052734375,-5.0048828125
3.125647783279419,-1270026555,0,0.0863415077328682,-0.015478938817977905,0.8828622102737427,55.17578125,-228.82080078125,-26.3671875
3.1467819213867188,-1270026555,1,-0.6548930406570435,0.6454981565475464,0.6533172130584717,13.427734375,-0.54931640625,1.3427734375
3.155543088912964,-1270026536,0,0.011146195232868195,0.009423404932022095,0.8557626008987427,68.54248046875,-114.19677734375,-59.9365234375
3.1704959869384766,-1270026536,1,-0.37535199522972107,0.5058497190475464,0.8015105724334717,-19.53125,-57.18994140625,16.2353515625
3.1705920696258545,-1270026517,1,-0.22349654138088226,0.4799708127975464,0.9138152599334717,-24.4140625,-58.77685546875,8.544921875
3.193859815597534,-1270026517,0,-0.0896838828921318,0.3275386393070221,0.8882333040237427,56.82373046875,-26.55029296875,-69.76318359375
3.1938679218292236,-1270026498,0,-0.2608264684677124,0.0785152018070221,0.9558602571487427,14.58740234375,-3.23486328125,-48.64501953125
3.2005088329315186,-1270026498,1,-0.12730513513088226,0.4450587034225464,0.9384734630584717,-25.45166015625,-28.4423828125,5.0048828125
3.2177250385284424,-1270026479,0,-0.6805042028427124,-0.014746516942977905,1.3127938508987427,25.20751953125,-122.61962890625,-55.7861328125
3.2353711128234863,-1270026479,1,-0.025010209530591965,0.4992579221725464,1.0061004161834717,-27.7099609375,35.09521484375,6.103515625
3.240568161010742,-1270026460,1,-0.19224654138088226,0.5183008909225464,0.9252898693084717,-28.38134765625,67.626953125,-9.94873046875
3.258168935775757,-1270026441,1,-0.21812544763088226,0.4123438596725464,0.8869597911834717,-11.5966796875,73.66943359375,-15.7470703125
3.2616639137268066,-1270026422,1,-0.24766646325588226,0.3764551877975464,0.8884246349334717,5.0048828125,69.3359375,-7.8125
3.274048089981079,-1270026443,0,0.1903454065322876,-0.045752376317977905,0.7798348665237427,75.439453125,-160.21728515625,-78.4912109375
3.2742018699645996,-1270026424,0,-0.020592086017131805,0.2398921549320221,0.8264657258987427,93.1396484375,-28.6865234375,-64.208984375
3.275225877761841,-1270026405,0,-0.1187366172671318,0.3209468424320221,0.8960458040237427,73.2421875,29.72412109375,-29.72412109375
3.294379949569702,-1270026403,1,-0.26915082335472107,0.3730372190475464,0.8339812755584717,7.14111328125,59.814453125,8.72802734375
3.305445909500122,-1270026386,0,-0.1939319372177124,0.2118159830570221,1.0391122102737427,54.62646484375,35.58349609375,-22.5830078125
3.320435047149658,-1270026367,1,-0.32847699522972107,0.3815821409225464,0.9333465099334717,-1.40380859375,42.48046875,17.27294921875
3.3418209552764893,-1270026367,0,-0.1936877965927124,0.1168452799320221,1.0393563508987427,72.75390625,-2.8076171875,-19.47021484375
3.342421054840088,-1270026348,0,-0.3435901403427124,0.0763179361820221,1.1743661165237427,103.69873046875,-58.9599609375,-4.82177734375
3.3504679203033447,-1270026348,1,-0.30601605772972107,0.3608301877975464,0.9916961193084717,-2.99072265625,62.6220703125,26.55029296875
3.3640267848968506,-1270026329,0,0.015540726482868195,0.4388667643070221,0.9067879915237427,106.38427734375,-99.365234375,1.220703125
3.3641109466552734,-1270026310,0,0.026771195232868195,0.4659663736820221,0.9294930696487427,72.57080078125,-59.6923828125,11.16943359375
3.3788158893585205,-1270026329,1,-0.34629926085472107,0.3666895627975464,0.9240691661834717,-2.5634765625,77.45361328125,30.3955078125
3.3789150714874268,-1270026310,1,-0.35435590147972107,0.3547266721725464,0.8403289318084717,0.18310546875,76.35498046875,38.330078125
3.3973031044006348,-1270026291,0,-0.056724898517131805,0.2801753580570221,0.9875985383987427,57.0068359375,-83.43505859375,19.8974609375
3.4090728759765625,-1270026291,1,-0.36070355772972107,0.3913477659225464,0.8178679943084717,6.7138671875,62.01171875,42.54150390625
3.4091551303863525,-1270026272,1,-0.37315472960472107,0.3808497190475464,0.8190886974334717,14.6484375,48.52294921875,46.44775390625
3.4239938259124756,-1270026272,0,0.043372757732868195,0.2765132486820221,1.0242196321487427,67.5048828125,-60.24169921875,3.84521484375
3.42409610748291,-1270026253,0,-0.047935836017131805,0.2911616861820221,0.9370614290237427,98.93798828125,-26.2451171875,-16.11328125
3.44700288772583,-1270026253,1,-0.36583051085472107,0.3876856565475464,0.7287566661834717,19.71435546875,32.3486328125,46.20361328125
3.4545769691467285,-1270026234,0,0.041663773357868195,0.5223628282546997,0.8828622102737427,93.3837890625,-24.96337890625,-20.81298828125
3.469006061553955,-1270026234,1,-0.35801801085472107,0.4404200315475464,0.7546355724334717,23.193359375,9.82666015625,44.43359375
3.469083786010742,-1270026215,1,-0.30308637022972107,0.4150294065475464,0.8041961193084717,16.54052734375,9.1552734375,51.3916015625
3.4935359954833984,-1270026215,0,0.0038219764828681946,0.5587397813796997,0.8809090852737427,71.83837890625,-9.8876953125,-14.2822265625
3.5004990100860596,-1270026196,1,-0.29478558897972107,0.4877833127975464,0.8066375255584717,13.5498046875,19.8974609375,58.4716796875
3.515556812286377,-1270026179,0,0.057532913982868195,0.3827144205570221,0.8289071321487427,58.10546875,18.49365234375,-16.29638671875
3.515691041946411,-1270026160,0,0.026771195232868195,0.4720698893070221,0.8306161165237427,74.40185546875,36.19384765625,-36.865234375
3.5399041175842285,-1270026177,1,-0.30528363585472107,0.5312403440475464,0.7604949474334717,14.95361328125,22.27783203125,51.94091796875
3.5399129390716553,-1270026158,1,-0.28599652647972107,0.5602930784225464,0.7495086193084717,10.07080078125,20.263671875,34.5458984375
3.5453691482543945,-1270026141,0,0.0018688514828681946,0.5934077501296997,0.8235360383987427,67.7490234375,46.142578125,-31.6162109375
3.55885910987854,-1270026139,1,-0.27916058897972107,0.5598047971725464,0.8105437755584717,9.70458984375,22.0947265625,17.822265625
3.575571060180664,-1270026122,0,-0.024498336017131805,0.5509272813796997,0.8467293977737427,52.42919921875,44.7998046875,-21.17919921875
3.57566499710083,-1270026103,0,-0.0848010703921318,0.4681636393070221,0.9180184602737427,50.84228515625,38.26904296875,-23.62060546875
3.594698905944824,-1270026103,1,-0.31846722960472107,0.4843653440475464,0.8161590099334717,7.8125,38.818359375,22.76611328125
3.6065549850463867,-1270026084,0,-0.0747913047671318,0.5938960313796997,0.8555184602737427,56.396484375,14.95361328125,-20.56884765625
3.619063138961792,-1270026084,1,-0.32017621397972107,0.5361231565475464,0.7709929943084717,9.58251953125,38.4521484375,29.78515625
3.619079828262329,-1270026065,1,-0.35215863585472107,0.5566309690475464,0.7509734630584717,9.33837890625,19.22607421875,30.1513671875
3.6419410705566406,-1270026065,0,-0.0699084922671318,0.6305171251296997,0.8015633821487427,46.32568359375,13.00048828125,-9.70458984375
3.642548084259033,-1270026046,0,-0.023521773517131805,0.5792475938796997,0.7822762727737427,36.80419921875,24.2919921875,-4.8828125
3.650381088256836,-1270026046,1,-0.34214887022972107,0.5344141721725464,0.8098113536834717,11.71875,1.64794921875,32.3486328125
3.6656289100646973,-1270026027,0,-0.046226851642131805,0.4854976236820221,0.7944833040237427,47.119140625,42.6025390625,-4.150390625
3.6902270317077637,-1270026027,1,-0.32920941710472107,0.5070704221725464,0.8759734630584717,18.9208984375,1.46484375,39.1845703125
3.6902339458465576,-1270026008,1,-0.34239301085472107,0.5297755002975464,0.8393523693084717,26.67236328125,10.31494140625,50.048828125
3.698323965072632,-1270026008,0,-0.007896773517131805,0.5228511095046997,0.7917977571487427,65.0634765625,54.13818359375,-13.12255859375
3.6983349323272705,-1270025989,0,-0.056480757892131805,0.6107417345046997,0.7900887727737427,71.533203125,59.02099609375,-21.8505859375
3.7105181217193604,-1270025989,1,-0.30748090147972107,0.5768946409225464,0.8188445568084717,30.21240234375,15.80810546875,50.1708984375
3.727665901184082,-1270025970,0,-0.1223987266421318,0.6700679063796997,0.8066903352737427,71.10595703125,57.92236328125,-16.11328125
3.727674961090088,-1270025951,0,-0.1153186485171318,0.7127925157546997,0.7659188508987427,64.208984375,49.86572265625,-2.8076171875
3.7445068359375,-1270025970,1,-0.32383832335472107,0.5756739377975464,0.7665984630584717,32.2265625,20.263671875,43.9453125
3.7445168495178223,-1270025951,1,-0.33091840147972107,0.5554102659225464,0.7258269786834717,31.8603515625,15.31982421875,44.43359375
3.790795087814331,-1270025915,0,-0.1021350547671318,0.6270991563796997,0.6924325227737427,51.513671875,23.5595703125,6.8359375
3.790803909301758,-1270025896,0,-0.0794299766421318,0.6490718126296997,0.7124520540237427,65.61279296875,42.3583984375,-6.04248046875
3.7992799282073975,-1270025932,1,-0.31041058897972107,0.5732325315475464,0.7143523693084717,35.0341796875,8.7890625,50.23193359375
3.7994189262390137,-1270025913,1,-0.29185590147972107,0.5900782346725464,0.7189910411834717,34.7900390625,5.0048828125,54.8095703125
3.7994320392608643,-1270025894,1,-0.28233441710472107,0.5961817502975464,0.6945769786834717,34.72900390625,4.8828125,58.10546875
3.8138160705566406,-1270025877,0,-0.1304553747177124,0.7091304063796997,0.6841317415237427,74.3408203125,49.74365234375,-5.06591796875
3.830338954925537,-1270025875,1,-0.24083052575588226,0.6223047971725464,0.6528289318084717,35.15625,4.57763671875,62.744140625
3.844561815261841,-1270025858,0,-0.1724475622177124,0.7740718126296997,0.6775399446487427,63.53759765625,37.04833984375,-0.6103515625
3.8445699214935303,-1270025839,0,-0.1795276403427124,0.7579585313796997,0.6606942415237427,43.701171875,25.32958984375,-1.89208984375
3.8604559898376465,-1270025839,1,-0.21959029138088226,0.6874903440475464,0.6662566661834717,23.0712890625,-2.8076171875,52.18505859375
3.8755829334259033,-1270025820,0,-0.1807483434677124,0.7550288438796997,0.6326180696487427,35.94970703125,12.6953125,6.65283203125
3.8756821155548096,-1270025801,0,-0.1155627891421318,0.7447749376296997,0.5481454133987427,37.17041015625,13.18359375,12.0849609375
3.8942840099334717,-1270025820,1,-0.22935591638088226,0.6664942502975464,0.7163054943084717,13.24462890625,8.85009765625,51.20849609375
3.8955259323120117,-1270025801,1,-0.18345747888088226,0.6652735471725464,0.6823699474334717,14.0380859375,12.939453125,59.26513671875
3.903733968734741,-1270025782,0,-0.1304553747177124,0.7008296251296997,0.5647469758987427,41.9921875,28.01513671875,2.5634765625
3.9190070629119873,-1270025782,1,-0.16929732263088226,0.7189844846725464,0.6425750255584717,18.37158203125,12.451171875,59.814453125
3.9190900325775146,-1270025763,1,-0.13414107263088226,0.7455958127975464,0.6342742443084717,19.1650390625,6.89697265625,51.69677734375
3.9416887760162354,-1270025763,0,-0.1324084997177124,0.7967768907546997,0.5835458040237427,46.69189453125,41.9921875,-5.859375
3.941697120666504,-1270025744,0,-0.2251819372177124,0.8150874376296997,0.6230965852737427,38.63525390625,38.51318359375,2.9296875
3.948795795440674,-1270025744,1,-0.12999068200588226,0.7216700315475464,0.6852996349334717,18.12744140625,10.1318359375,45.59326171875
3.9650278091430664,-1270025725,0,-0.1993030309677124,0.8141108751296997,0.5908700227737427,31.8603515625,19.1650390625,8.11767578125
3.990407943725586,-1270025725,1,-0.15049849450588226,0.7250880002975464,0.6806609630584717,15.19775390625,22.27783203125,43.0908203125
3.9904158115386963,-1270025706,1,-0.13438521325588226,0.7224024534225464,0.6584441661834717,14.83154296875,24.35302734375,45.654296875
3.997728109359741,-1270025706,0,-0.1778186559677124,0.7784663438796997,0.5603524446487427,29.35791015625,14.09912109375,8.48388671875
3.9977359771728516,-1270025687,0,-0.1536487340927124,0.7811518907546997,0.5125008821487427,25.08544921875,14.22119140625,5.67626953125
4.010497093200684,-1270025687,1,-0.08970747888088226,0.7648829221725464,0.6269500255584717,9.521484375,26.0009765625,42.1142578125
4.023714065551758,-1270025651,0,-0.1993030309677124,0.7943354845046997,0.4929696023464203,16.29638671875,12.75634765625,6.103515625
4.045801877975464,-1270025668,1,-0.051621537655591965,0.8044337034225464,0.6586883068084717,7.26318359375,24.169921875,24.35302734375
4.04581093788147,-1270025649,1,-0.10582076013088226,0.7683008909225464,0.6362273693084717,0.0,27.099609375,6.53076171875
4.055437088012695,-1270025632,0,-0.1468127965927124,0.7755366563796997,0.4839363992214203,12.02392578125,8.48388671875,13.12255859375
4.068920135498047,-1270025630,1,-0.12828169763088226,0.7372950315475464,0.6437957286834717,-1.64794921875,29.11376953125,1.15966796875
4.069036960601807,-1270025611,1,-0.13853560388088226,0.6975001096725464,0.6308562755584717,-0.91552734375,30.8837890625,2.50244140625
4.093603849411011,-1270025613,0,-0.1424182653427124,0.7638179063796997,0.4846688210964203,7.4462890625,10.3759765625,11.5966796875
4.093611001968384,-1270025594,0,-0.1275256872177124,0.7879878282546997,0.4741707742214203,2.25830078125,8.9111328125,10.6201171875
4.113790988922119,-1270025575,0,-0.1363147497177124,0.7435542345046997,0.5098153352737427,-3.23486328125,9.33837890625,-0.732421875
4.140302896499634,-1270025575,1,-0.11631880700588226,0.7487696409225464,0.6262176036834717,1.5869140625,9.8876953125,5.06591796875
4.14031195640564,-1270025556,1,-0.16856490075588226,0.7324122190475464,0.6181609630584717,-2.62451171875,9.8876953125,-2.74658203125
4.145514011383057,-1270025556,0,-0.1306995153427124,0.7752925157546997,0.5054208040237427,-1.8310546875,6.2255859375,-7.87353515625
4.1456451416015625,-1270025537,0,-0.1582874059677124,0.8128901720046997,0.5017586946487427,-8.9111328125,5.06591796875,-8.60595703125
4.160883903503418,-1270025537,1,-0.18687544763088226,0.7048243284225464,0.6379363536834717,-5.43212890625,12.75634765625,-2.9296875
4.174036026000977,-1270025518,0,-0.1414417028427124,0.8290034532546997,0.4885750710964203,-14.5263671875,5.55419921875,10.986328125
4.194695949554443,-1270025518,1,-0.17930708825588226,0.6911524534225464,0.6235320568084717,-10.19287109375,16.90673828125,2.197265625
4.194705963134766,-1270025499,1,-0.13047896325588226,0.7206934690475464,0.6398894786834717,-7.38525390625,17.7001953125,0.6103515625
4.205513954162598,-1270025499,0,-0.1494983434677124,0.7972651720046997,0.5061532258987427,-24.84130859375,8.30078125,21.240234375
4.205626964569092,-1270025480,0,-0.1609729528427124,0.7862788438796997,0.5376473665237427,-36.1328125,2.3193359375,23.8037109375
4.220638990402222,-1270025480,1,-0.18370161950588226,0.7043360471725464,0.6342742443084717,-7.8125,16.66259765625,-9.46044921875
4.220740795135498,-1270025461,1,-0.18687544763088226,0.7167872190475464,0.6281707286834717,-7.38525390625,8.11767578125,-12.51220703125
4.241888999938965,-1270025461,0,-0.1060413047671318,0.7564936876296997,0.4775887429714203,-44.49462890625,-1.46484375,23.5595703125
4.241899013519287,-1270025442,0,-0.0672229453921318,0.7804194688796997,0.4387703835964203,-59.6923828125,15.68603515625,17.822265625
4.250403165817261,-1270025442,1,-0.21885786950588226,0.6879786252975464,0.5873992443084717,-11.962890625,5.615234375,-12.63427734375
4.265699863433838,-1270025423,0,-0.1204456016421318,0.8001948595046997,0.4827156960964203,-82.94677734375,35.64453125,26.9775390625
4.27901291847229,-1270025423,1,-0.19273482263088226,0.6762598752975464,0.5642058849334717,-14.892578125,-3.84521484375,-12.39013671875
4.280545949935913,-1270025404,1,-0.16954146325588226,0.7014063596725464,0.5151336193084717,-25.32958984375,-17.578125,-18.06640625
4.30810284614563,-1270025385,1,-0.18174849450588226,0.6975001096725464,0.44189146161079407,-45.10498046875,-51.45263671875,-37.17041015625
4.324073076248169,-1270025387,0,-0.1702502965927124,0.8116694688796997,0.4521981179714203,-154.11376953125,65.5517578125,78.43017578125
4.324174880981445,-1270025368,0,-0.0745471641421318,0.6031733751296997,0.5132333040237427,-194.3359375,78.67431640625,80.4443359375
4.32513689994812,-1270025349,0,-0.029381148517131805,0.3333980143070221,0.7090340852737427,-197.69287109375,83.67919921875,55.0537109375
4.344366073608398,-1270025366,1,-0.17930708825588226,0.5632227659225464,0.43578794598579407,-78.43017578125,-49.560546875,-35.46142578125
4.344376087188721,-1270025347,1,-0.005723100155591965,0.5917872190475464,0.6901824474334717,-87.46337890625,-39.306640625,-50.9033203125
4.3554770946502686,-1270025330,0,-0.2596057653427124,0.4122554361820221,1.1191903352737427,-159.11865234375,63.8427734375,28.1982421875
4.369874954223633,-1270025311,1,-0.007432084530591965,0.7731837034225464,0.6743133068084717,-102.11181640625,-26.7333984375,-143.310546875
4.394710063934326,-1270025311,0,-0.3181995153427124,0.5074702501296997,1.1587411165237427,-138.18359375,8.4228515625,48.583984375
4.3947179317474365,-1270025292,0,-0.1285022497177124,0.4903804361820221,1.0637704133987427,-170.47119140625,-122.9248046875,108.33740234375
4.400675058364868,-1270025292,1,-0.17393599450588226,0.6860255002975464,0.5793426036834717,-114.80712890625,-58.89892578125,-179.8095703125
4.413777828216553,-1270025273,0,-0.060142867267131805,0.4430171549320221,1.1768075227737427,-197.81494140625,-183.349609375,135.986328125
4.43061089515686,-1270025273,1,-0.22471724450588226,0.4179590940475464,0.49389341473579407,-136.41357421875,-79.52880859375,-185.36376953125
4.4405739307403564,-1270025254,1,-0.26329144835472107,0.2773340940475464,0.34765318036079407,-142.7001953125,-54.5654296875,-139.22119140625
4.444572925567627,-1270025254,0,0.0912243202328682,0.2840816080570221,1.2871590852737427,-205.56640625,-221.6796875,115.3564453125
4.444580793380737,-1270025235,0,0.3985973596572876,0.1493159830570221,1.0491219758987427,-187.255859375,-236.63330078125,61.4013671875
4.459042072296143,-1270025235,1,-0.5489360094070435,0.1266993135213852,0.47851255536079407,-119.9951171875,-106.5673828125,-72.021484375
4.4738287925720215,-1270025216,0,0.3270641565322876,0.018944889307022095,0.8223153352737427,-127.50244140625,-203.857421875,34.423828125
4.494194030761719,-1270025216,1,-0.19883833825588226,0.02196298912167549,0.6765105724334717,-74.40185546875,-189.453125,-44.3115234375
4.4942028522491455,-1270025197,1,-0.08824263513088226,0.1931055635213852,0.8540008068084717,-21.05712890625,-199.76806640625,-90.6982421875
4.5055460929870605,-1270025197,0,0.3829723596572876,0.1869136393070221,0.8733407258987427,-10.6201171875,-83.740234375,37.29248046875
4.505635023117065,-1270025178,0,0.5790172815322876,0.4200679361820221,0.8333016633987427,40.283203125,42.236328125,72.57080078125
4.519662141799927,-1270025178,1,-0.11265669763088226,0.2722071409225464,1.0002410411834717,4.5166015625,-198.2421875,-85.5712890625
4.542289972305298,-1270025159,0,0.2694469690322876,-0.062109798192977905,1.2610360383987427,76.66015625,58.59375,97.65625
4.550549030303955,-1270025159,1,-0.28160199522972107,0.1721094697713852,1.2067840099334717,-8.85009765625,-147.94921875,-30.2734375
4.550680160522461,-1270025140,1,-0.5298930406570435,0.02245127037167549,1.1840789318084717,-9.21630859375,-87.95166015625,49.560546875
4.565686941146851,-1270025123,0,0.024329788982868195,0.6388179063796997,0.9680672883987427,81.6650390625,-65.5517578125,-70.9228515625
4.590996026992798,-1270025121,1,-0.5782328844070435,0.04906259849667549,1.1633269786834717,5.67626953125,-107.11669921875,142.51708984375
4.59100604057312,-1270025102,1,-0.004746537655591965,0.3696192502975464,1.4936492443084717,-19.83642578125,-82.94677734375,121.337890625
4.595690965652466,-1270025104,0,0.1149059608578682,0.8004390001296997,0.8188973665237427,13.18359375,-119.20166015625,-38.818359375
4.595711946487427,-1270025085,0,0.3744274377822876,0.7411128282546997,0.4194832742214203,-70.3125,-93.68896484375,29.78515625
4.610538005828857,-1270025083,1,-0.0037699751555919647,0.3657130002975464,1.6403777599334717,-2.0751953125,-20.44677734375,12.0849609375
4.6255528926849365,-1270025066,0,0.4444957971572876,0.0636226236820221,0.8437997102737427,-69.3359375,-3.5400390625,74.15771484375
4.644304990768433,-1270025047,1,-0.15855513513088226,-0.08716787397861481,0.9526336193084717,-40.71044921875,-177.06298828125,138.48876953125
4.655627965927124,-1270025047,0,0.2616344690322876,0.1039058268070221,0.6272469758987427,-15.07568359375,129.0283203125,-23.62060546875
4.655735969543457,-1270025028,0,0.8312145471572876,0.3202144205570221,0.1572762429714203,-0.6103515625,192.81005859375,-79.2236328125
4.670368909835815,-1270025028,1,0.37831011414527893,0.5632227659225464,0.8107879161834717,-66.10107421875,-191.40625,164.9169921875
4.691699028015137,-1270025009,0,0.057532913982868195,0.0741206705570221,0.2937508523464203,-8.4228515625,596.923828125,-248.046875
4.691706895828247,-1270024990,0,-0.3660510778427124,0.053856998682022095,0.5874520540237427,33.02001953125,587.09716796875,-136.77978515625
4.699802875518799,-1270025009,1,0.7269428968429565,0.6035059690475464,0.7087371349334717,-95.8251953125,-102.9052734375,99.18212890625
4.699910879135132,-1270024990,1,0.5157612562179565,0.2219141572713852,0.8322722911834717,-68.54248046875,-50.47607421875,63.90380859375
4.715618133544922,-1270024971,0,-0.0655139610171318,0.1871577799320221,0.6169930696487427,119.81201171875,502.44140625,-26.4892578125
4.731713056564331,-1270024971,1,0.43031206727027893,0.1870020478963852,0.9108855724334717,-118.65234375,-96.86279296875,62.01171875
4.731720924377441,-1270024952,1,1.2767475843429565,-1.4506932497024536,-1.3022491931915283,-163.63525390625,-81.787109375,40.10009765625
4.747383117675781,-1270024952,0,-4.058678150177002,0.5633784532546997,1.9548836946487427,148.681640625,432.92236328125,-0.3662109375
4.747390031814575,-1270024933,0,-0.4104846715927124,0.6566401720046997,2.212940216064453,65.7958984375,-21.97265625,-163.330078125
4.760527849197388,-1270024933,1,0.09144486486911774,0.11107431352138519,1.5944793224334717,-148.92578125,-13.18359375,-123.84033203125
4.775669097900391,-1270024914,0,-0.3418811559677124,0.5008784532546997,0.9260751008987427,18.310546875,16.41845703125,-179.01611328125
4.794928789138794,-1270024914,1,0.28944292664527893,0.3166407346725464,1.3752410411834717,-123.10791015625,17.9443359375,-90.27099609375
4.794939994812012,-1270024895,1,0.37464800477027893,0.4643458127975464,1.3229949474334717,-120.78857421875,-41.015625,-106.50634765625
4.8039329051971436,-1270024895,0,-0.029137007892131805,0.7154780626296997,1.1992684602737427,-35.82763671875,-4.08935546875,-109.55810546875
4.841068983078003,-1270024859,0,-0.4534534215927124,0.6036616563796997,0.8560067415237427,-147.39990234375,32.5927734375,-76.904296875
4.841747999191284,-1270024840,0,-0.5398792028427124,0.3541499674320221,0.6621590852737427,-229.06494140625,-2.38037109375,-49.6826171875
4.849256992340088,-1270024876,1,1.0208882093429565,-0.5073338747024536,0.7656219005584717,-88.31787109375,-53.1005859375,-84.8388671875
4.8493499755859375,-1270024857,1,0.09950150549411774,-0.2485448271036148,0.9365203380584717,-88.43994140625,-149.0478515625,-25.634765625
4.849448919296265,-1270024838,1,0.21229447424411774,0.1286524385213852,0.9999969005584717,-94.1162109375,-200.37841796875,3.84521484375
4.864067792892456,-1270024821,0,-0.7200549840927124,0.4430171549320221,1.2932626008987427,-244.5068359375,-122.4365234375,17.08984375
4.890104055404663,-1270024819,1,0.27332964539527893,0.1745508760213852,1.1721160411834717,-119.07958984375,-210.44921875,71.96044921875
4.895547866821289,-1270024802,0,-0.8633655309677124,-0.9131840467453003,1.0957528352737427,-239.013671875,-59.326171875,28.3203125
4.895624876022339,-1270024783,0,-0.3098987340927124,0.007714420557022095,0.9194833040237427,-93.8720703125,-141.2353515625,-2.25830078125
4.910425901412964,-1270024783,1,0.5982807874679565,-0.1555272489786148,0.8669402599334717,-154.72412109375,-115.05126953125,-23.37646484375
4.925451040267944,-1270024764,0,-0.3472522497177124,-0.2078617513179779,0.8770028352737427,-15.80810546875,-72.69287109375,-37.109375
4.943511962890625,-1270024764,1,0.45912066102027893,-0.05127919837832451,0.8779265880584717,-122.00927734375,-80.62744140625,-30.70068359375
4.9435200691223145,-1270024745,1,0.33094683289527893,-0.4626561403274536,0.19482113420963287,-83.06884765625,-51.08642578125,-48.52294921875
4.954042911529541,-1270024745,0,2.239417791366577,-1.1023930311203003,-0.2462882101535797,47.7294921875,-17.39501953125,-99.2431640625
4.954158782958984,-1270024726,0,-0.3765491247177124,0.1515132486820221,0.9675790071487427,27.40478515625,330.74951171875,-21.42333984375
4.968874931335449,-1270024726,1,0.5421284437179565,-0.04346669837832451,1.3124969005584717,-63.53759765625,-47.42431640625,-63.17138671875
4.992424964904785,-1270024707,0,-1.0288928747177124,0.045067936182022095,0.6562997102737427,41.07666015625,26.3671875,39.97802734375
4.999000072479248,-1270024707,1,0.7269428968429565,-0.1884862333536148,1.0012176036834717,-88.68408203125,-63.5986328125,-51.1474609375
4.999065160751343,-1270024688,1,0.43397417664527893,-0.1547948271036148,0.9226043224334717,-87.2802734375,-76.0498046875,-22.705078125
5.015563011169434,-1270024688,0,-0.5401233434677124,0.2984859049320221,1.0989266633987427,22.76611328125,56.57958984375,-32.65380859375
5.015645980834961,-1270024669,0,-0.4978870153427124,0.2816402018070221,0.9700204133987427,-10.55908203125,89.66064453125,-79.77294921875
5.040539979934692,-1270024669,1,0.5841206312179565,-0.2216893583536148,0.9226043224334717,-84.16748046875,-88.56201171875,4.2724609375
5.045544862747192,-1270024650,0,-0.5625842809677124,0.1595698893070221,0.7686043977737427,-32.8369140625,71.533203125,-92.10205078125
5.04563307762146,-1270024631,0,-0.5384143590927124,0.1190425455570221,0.7495614290237427,-40.283203125,63.17138671875,-90.02685546875
5.0606489181518555,-1270024650,1,0.6583393812179565,-0.12476553022861481,0.7900359630584717,-82.82470703125,-91.24755859375,17.51708984375
5.060713052749634,-1270024631,1,0.8573139905929565,-0.12207998335361481,0.7407195568084717,-46.32568359375,-45.8984375,17.39501953125
5.094106912612915,-1270024612,1,1.1334370374679565,0.02684580162167549,0.7582976818084717,-33.38623046875,118.0419921875,18.310546875
5.0941150188446045,-1270024593,1,0.6949604749679565,-0.007333885878324509,0.46069028973579407,-68.42041015625,233.7646484375,28.3203125
5.104913949966431,-1270024595,0,-0.8489612340927124,-0.1756351888179779,0.6094247102737427,-50.96435546875,-6.89697265625,-35.94970703125
5.104984998703003,-1270024576,0,-1.0725940465927124,-0.2049320638179779,0.7715340852737427,-56.396484375,-47.607421875,43.0908203125
5.121011972427368,-1270024574,1,-0.47569379210472107,-0.2898045778274536,0.11278988420963287,-93.32275390625,236.38916015625,-97.47314453125
5.143129110336304,-1270024557,0,-0.9551624059677124,0.024071842432022095,0.7197762727737427,-59.2041015625,-35.46142578125,134.46044921875
5.15047287940979,-1270024555,1,-0.45909222960472107,-0.5329686403274536,0.48168638348579407,-111.4501953125,122.9248046875,-30.6396484375
5.165636777877808,-1270024538,0,-0.7730334997177124,-0.3047855794429779,0.5454598665237427,-82.70263671875,-80.74951171875,128.7841796875
5.165726900100708,-1270024519,0,-0.4898303747177124,-0.3748539388179779,1.3284188508987427,-57.43408203125,-44.0673828125,68.7255859375
5.190179824829102,-1270024519,1,0.8109272718429565,-0.4128514528274536,0.9599578380584717,3.60107421875,174.072265625,-10.31494140625
5.194831848144531,-1270024500,0,-0.2561877965927124,-0.058691829442977905,0.10136804729700089,-41.8701171875,-35.46142578125,38.87939453125
5.194917917251587,-1270024481,0,-0.1856311559677124,0.035302311182022095,1.7754403352737427,-12.0849609375,-2.74658203125,54.19921875
5.209173917770386,-1270024500,1,0.27845659852027893,-0.1945897489786148,1.2675750255584717,64.14794921875,115.90576171875,7.9345703125
5.2092978954315186,-1270024481,1,0.36170855164527893,-0.1970311552286148,1.3828094005584717,99.12109375,19.59228515625,5.7373046875
5.225474119186401,-1270024462,0,-0.1861194372177124,0.2621089518070221,0.7231942415237427,4.33349609375,-40.0390625,52.79541015625
5.245262861251831,-1270024462,1,0.37489214539527893,-0.2771092653274536,1.1328094005584717,82.82470703125,-13.61083984375,12.6953125
5.2452709674835205,-1270024443,1,0.7022846937179565,-0.1408788114786148,1.2123992443084717,51.45263671875,12.0849609375,26.9775390625
5.2556071281433105,-1270024443,0,-0.3394397497177124,-0.1509769856929779,1.2681161165237427,-27.587890625,47.36328125,36.62109375
5.255726099014282,-1270024424,0,-0.3941272497177124,0.2247554361820221,1.1194344758987427,-15.0146484375,93.26171875,-1.03759765625
5.270404815673828,-1270024424,1,0.20912064611911774,-0.10157217085361481,0.8344695568084717,38.9404296875,53.77197265625,48.2177734375
5.292470932006836,-1270024405,0,-0.7837756872177124,0.039452701807022095,1.6824227571487427,-22.0947265625,99.609375,-19.6533203125
5.298938989639282,-1270024405,1,0.14710892736911774,-0.10791982710361481,0.8466765880584717,45.0439453125,38.26904296875,78.857421875
5.2990758419036865,-1270024386,1,0.9544819593429565,-0.5066014528274536,1.0976531505584717,36.92626953125,26.67236328125,119.68994140625
5.31395411491394,-1270024386,0,-0.4646838903427124,-0.008643001317977905,0.9543954133987427,-36.9873046875,89.05029296875,-7.8125
5.314051866531372,-1270024367,0,-0.5735706090927124,-0.039404720067977905,1.0579110383987427,-55.7861328125,67.3828125,6.34765625
5.340590953826904,-1270024367,1,0.44373980164527893,-0.3049412965774536,1.0817840099334717,52.490234375,34.11865234375,132.080078125
5.358137845993042,-1270024348,1,0.33851519227027893,-0.1970311552286148,0.9318816661834717,41.56494140625,73.79150390625,85.3271484375
5.358973026275635,-1270024329,1,0.24378861486911774,0.010244239121675491,1.0046355724334717,14.46533203125,77.81982421875,45.83740234375
5.373847961425781,-1270024331,0,-0.2547229528427124,-0.0691898763179779,0.8767586946487427,-47.119140625,-3.7841796875,2.62451171875
5.3739399909973145,-1270024312,0,-0.4688342809677124,-0.054785579442977905,1.0559579133987427,-33.63037109375,3.0517578125,23.0712890625
5.394862174987793,-1270024310,1,0.29994097352027893,-0.08497060835361481,1.0632293224334717,-16.17431640625,102.47802734375,33.5693359375
5.394870042800903,-1270024291,1,0.21229447424411774,-0.1862889677286148,1.1289031505584717,0.79345703125,59.87548828125,86.3037109375
5.404864072799683,-1270024293,0,-0.5266956090927124,-0.0787113606929779,1.0344735383987427,-30.8837890625,-31.67724609375,81.9091796875
5.404953956604004,-1270024274,0,-0.4883655309677124,-0.1805180013179779,0.9600106477737427,-33.5693359375,22.3388671875,69.39697265625
5.441728115081787,-1270024255,0,-0.7818225622177124,-0.3692387044429779,0.6050301790237427,-12.63427734375,89.9658203125,19.59228515625
5.450620889663696,-1270024255,1,-0.046494584530591965,-0.3076268434524536,0.8815886974334717,34.1796875,29.4189453125,65.36865234375
5.450666904449463,-1270024236,1,-0.17515669763088226,-0.3349705934524536,0.9082000255584717,24.96337890625,8.23974609375,31.8603515625
5.464101791381836,-1270024236,0,-0.8037952184677124,-0.1861332356929779,0.6536141633987427,27.4658203125,59.814453125,-24.2919921875
5.464205980300903,-1270024217,0,-0.5791858434677124,-0.1343754231929779,0.8235360383987427,20.3857421875,35.64453125,-33.0810546875
5.480754852294922,-1270024217,1,0.024306196719408035,-0.3418065309524536,1.0031707286834717,4.08935546875,-3.5400390625,24.23095703125
5.495161771774292,-1270024198,0,-0.5747913122177124,-0.1595219075679779,0.8362313508987427,14.6484375,30.09033203125,-60.791015625
5.510005950927734,-1270024198,1,-0.037949662655591965,-0.3281346559524536,1.0261199474334717,2.50244140625,-18.49365234375,26.9775390625
5.510014057159424,-1270024179,1,0.20521439611911774,0.006582129746675491,0.5778777599334717,13.18359375,-55.96923828125,8.36181640625
5.524029970169067,-1270024179,0,-0.4529651403427124,-0.050879329442977905,0.6614266633987427,33.63037109375,-12.939453125,-51.57470703125
5.524148941040039,-1270024160,0,-0.7874377965927124,-0.5193852186203003,0.5166512727737427,56.94580078125,-6.04248046875,-9.6435546875
5.544461965560913,-1270024160,1,0.15565384924411774,-0.2907811403274536,0.6987273693084717,38.26904296875,-13.3056640625,7.080078125
5.544474840164185,-1270024141,1,0.15516556799411774,-0.006113182753324509,0.8894011974334717,28.80859375,-79.58984375,-22.4609375
5.5556089878082275,-1270024141,0,-0.4749377965927124,-0.3841312825679779,0.7212411165237427,93.1396484375,-18.73779296875,3.0517578125
5.555705785751343,-1270024122,0,-0.2408069372177124,-0.2632816731929779,0.6699715852737427,137.20703125,13.7939453125,-0.54931640625
5.570795059204102,-1270024122,1,0.33045855164527893,0.05272470787167549,0.8967254161834717,16.4794921875,-88.9892578125,-37.41455078125
5.592165946960449,-1270024103,0,-0.4412463903427124,0.3421870768070221,0.8411141633987427,145.01953125,105.3466796875,-3.47900390625
5.600615978240967,-1270024103,1,0.40980425477027893,0.03832041099667549,1.0844695568084717,-21.728515625,-92.041015625,-26.79443359375
5.600730895996094,-1270024084,1,0.37538042664527893,-0.06397451460361481,0.9211394786834717,-30.517578125,-50.29296875,17.9443359375
5.6158668994903564,-1270024067,0,-0.4563831090927124,0.5738765001296997,1.1023446321487427,-7.8125,-23.98681640625,92.34619140625
5.641196966171265,-1270024065,1,0.45716753602027893,-0.3007909059524536,1.2741668224334717,-11.23046875,-34.423828125,17.88330078125
5.647318124771118,-1270024048,0,-0.7766956090927124,-0.0660160481929779,0.8198739290237427,-22.52197265625,41.56494140625,50.29296875
5.660650014877319,-1270024046,1,0.39613237977027893,-0.2072850614786148,0.8454558849334717,-19.22607421875,-15.80810546875,-1.953125
5.660817861557007,-1270024027,1,0.37098589539527893,-0.1892186552286148,0.8300750255584717,-1.52587890625,21.91162109375,-15.13671875
5.675616025924683,-1270024029,0,-1.0298694372177124,-0.1089847981929779,0.6201668977737427,-16.90673828125,62.92724609375,-29.4189453125
5.675699949264526,-1270024010,0,-0.8308948278427124,0.011376529932022095,0.7747079133987427,-16.357421875,21.8505859375,-46.9970703125
5.697187900543213,-1270023991,1,0.18153275549411774,-0.2443944364786148,0.8518035411834717,-31.494140625,14.95361328125,-18.6767578125
5.705611944198608,-1270023991,0,-0.6931995153427124,0.012108951807022095,0.7485848665237427,-22.64404296875,15.13671875,-27.16064453125
5.705749988555908,-1270023972,0,-0.9856799840927124,-0.1106937825679779,0.5654793977737427,-26.611328125,-36.376953125,4.0283203125
5.719722032546997,-1270023972,1,0.22035111486911774,-0.1420995146036148,0.7853972911834717,-24.5361328125,-38.63525390625,-23.13232421875
5.742929935455322,-1270023953,0,-0.8619006872177124,-0.2664555013179779,0.5872079133987427,-10.3759765625,-107.177734375,33.935546875
5.750547885894775,-1270023953,1,0.46253862977027893,-0.2849217653274536,0.8212859630584717,-10.498046875,-34.72900390625,-46.32568359375
5.750636100769043,-1270023934,1,0.6236714124679565,-0.4177342653274536,0.9697234630584717,18.73779296875,72.32666015625,-55.0537109375
5.764773845672607,-1270023934,0,-0.8184436559677124,-0.052344173192977905,0.7219735383987427,-6.8359375,-134.3994140625,58.4716796875
5.7648398876190186,-1270023915,0,-0.6553577184677124,0.010888248682022095,0.5718270540237427,-35.5224609375,-55.908203125,92.4072265625
5.790096998214722,-1270023915,1,0.028700727969408035,-0.11573232710361481,1.1862761974334717,15.380859375,65.185546875,4.21142578125
5.7956647872924805,-1270023896,0,-0.4637073278427124,-0.023047298192977905,0.6819344758987427,-48.33984375,-13.12255859375,49.4384765625
5.8097639083862305,-1270023896,1,-0.004746537655591965,0.10497079789638519,0.8881804943084717,11.16943359375,51.26953125,34.3017578125
5.813249111175537,-1270023877,1,-0.07652388513088226,0.2734278440475464,0.9272429943084717,13.0615234375,41.259765625,-5.92041015625
5.824042081832886,-1270023877,0,-0.1744006872177124,0.0812007486820221,0.9558602571487427,-5.9814453125,32.53173828125,-85.3271484375
5.824238061904907,-1270023858,0,-0.1446155309677124,0.1302730143070221,0.9583016633987427,37.17041015625,-28.3203125,-77.57568359375
5.844228982925415,-1270023858,1,0.6825093030929565,-0.1950780302286148,1.1682097911834717,16.66259765625,26.3671875,-24.658203125
5.8564958572387695,-1270023839,0,-0.1487659215927124,-0.1255863606929779,1.1533700227737427,6.89697265625,-93.1396484375,15.13671875
5.8914570808410645,-1270023803,0,-0.5313342809677124,0.2989741861820221,1.1394540071487427,-43.64013671875,-184.14306640625,113.58642578125
5.899338960647583,-1270023839,1,0.5240620374679565,-0.2539159059524536,1.0192840099334717,31.3720703125,45.41015625,-4.150390625
5.899556875228882,-1270023820,1,0.27015581727027893,-0.2429295927286148,0.8923308849334717,45.654296875,119.81201171875,38.4521484375
5.89957594871521,-1270023801,1,0.6961811780929565,-0.1613866239786148,1.0790984630584717,52.734375,165.4052734375,52.978515625
5.900233030319214,-1270023782,1,0.7027729749679565,-0.2854100465774536,1.1096160411834717,42.66357421875,228.82080078125,45.34912109375
5.913904905319214,-1270023784,0,-0.5086292028427124,-0.056982845067977905,1.0867196321487427,-74.89013671875,-195.73974609375,121.4599609375
5.914015054702759,-1270023765,0,-0.047447554767131805,0.020165592432022095,0.7549325227737427,-123.35205078125,-163.2080078125,107.48291015625
5.941563844680786,-1270023763,1,-0.039414506405591965,0.11180673539638519,0.6005828380584717,33.3251953125,251.52587890625,60.05859375
5.947432041168213,-1270023746,0,-0.6853870153427124,0.4139644205570221,0.8823739290237427,-66.7724609375,63.78173828125,87.34130859375
5.960462808609009,-1270023727,1,0.45960894227027893,-0.11402334272861481,1.2971160411834717,22.216796875,291.6259765625,13.24462890625
5.975514888763428,-1270023727,0,-1.2022327184677124,0.5047847032546997,0.7766610383987427,-41.93115234375,47.05810546875,221.6796875
5.975642919540405,-1270023708,0,-2.586265802383423,-0.4859379231929779,4.313526153564453,-36.43798828125,-31.79931640625,276.79443359375
5.995836973190308,-1270023708,1,0.058730024844408035,-0.2431737333536148,1.4704558849334717,6.28662109375,353.6376953125,-94.17724609375
6.003142833709717,-1270023689,0,-0.6697620153427124,-0.2464359700679779,0.7075692415237427,-6.4697265625,-51.513671875,104.3701171875
6.0189690589904785,-1270023689,1,-0.16636763513088226,0.2661036252975464,1.2858855724334717,-19.775390625,376.220703125,40.46630859375
6.0190370082855225,-1270023670,1,-0.42051801085472107,0.2480372041463852,1.2233855724334717,-22.4609375,293.15185546875,-10.1318359375
6.0419440269470215,-1270023670,0,-0.3057483434677124,-0.3775394856929779,0.5435067415237427,8.7890625,71.47216796875,98.2666015625
6.041951894760132,-1270023651,0,-0.9861682653427124,0.5580073595046997,1.2947274446487427,66.22314453125,-40.95458984375,100.2197265625
6.049018859863281,-1270023651,1,-0.49742230772972107,0.6367090940475464,1.1716277599334717,-5.0048828125,135.6201171875,-107.97119140625
6.049090147018433,-1270023632,1,-0.39390668272972107,0.4150294065475464,1.1677215099334717,-37.4755859375,111.99951171875,-158.50830078125
6.065601110458374,-1270023632,0,-0.2107776403427124,-0.3423832356929779,0.4656258523464203,49.37744140625,-87.158203125,117.98095703125
6.06574273109436,-1270023613,0,-0.4178088903427124,-0.1094730794429779,0.6006356477737427,95.21484375,27.34375,92.83447265625
6.091572999954224,-1270023613,1,-0.40049847960472107,-0.2080174833536148,1.1125457286834717,-43.8232421875,56.45751953125,-167.1142578125
6.0958850383758545,-1270023594,0,-0.5796741247177124,-0.3113773763179779,1.1421395540237427,202.1484375,92.71240234375,111.02294921875
6.110568046569824,-1270023594,1,-0.6932231187820435,-0.4162694215774536,1.0222136974334717,-18.12744140625,45.654296875,-134.3994140625
6.110697031021118,-1270023575,1,-0.8162699937820435,-0.3877049684524536,1.0939910411834717,4.82177734375,39.306640625,-96.6796875
6.125486135482788,-1270023575,0,-0.3587268590927124,0.053124576807022095,0.8892098665237427,211.60888671875,204.345703125,47.36328125
6.145194053649902,-1270023556,1,-0.9136821031570435,-0.1882420927286148,1.1601531505584717,2.0751953125,31.31103515625,-55.35888671875
6.155519962310791,-1270023539,0,-0.9090198278427124,0.0809566080570221,0.8259774446487427,90.02685546875,131.89697265625,-125.0
6.17071008682251,-1270023537,1,-1.2972270250320435,-0.12110342085361481,1.0012176036834717,-7.568359375,-22.88818359375,-31.79931640625
6.17077898979187,-1270023518,1,-1.4908305406570435,-0.4104100465774536,0.8259246349334717,-32.28759765625,-145.751953125,0.8544921875
6.192190885543823,-1270023520,0,-0.7727893590927124,-0.033301204442977905,0.8367196321487427,92.041015625,42.724609375,-274.7802734375
6.192198991775513,-1270023501,0,-0.4925159215927124,0.0875484049320221,1.2690926790237427,145.263671875,-30.82275390625,-348.9990234375
6.201972007751465,-1270023499,1,-1.4117289781570435,-0.6306248903274536,0.6311004161834717,-58.77685546875,-169.49462890625,25.08544921875
6.215651035308838,-1270023482,0,0.1359020471572876,0.6019526720046997,1.6062508821487427,146.728515625,-76.171875,-305.23681640625
6.215765953063965,-1270023463,0,0.1234508827328682,0.6217280626296997,1.3997079133987427,72.44873046875,41.015625,-200.86669921875
6.240653991699219,-1270023463,1,-0.9676371812820435,-0.7170506715774536,0.5285613536834717,-74.89013671875,-52.1240234375,61.58447265625
6.248234033584595,-1270023444,0,-0.5952991247177124,0.2662593424320221,0.9927254915237427,26.4892578125,87.40234375,-133.97216796875
6.260731935501099,-1270023444,1,-0.7191020250320435,-0.6460057497024536,0.43066099286079407,-70.1904296875,-39.4287109375,47.4853515625
6.2608420848846436,-1270023425,1,-0.5013285875320435,-0.6821385622024536,0.31567075848579407,-40.771484375,-151.67236328125,60.791015625
6.275461912155151,-1270023425,0,-0.8260120153427124,0.3111812174320221,0.9358407258987427,28.13720703125,95.458984375,-115.90576171875
6.27555513381958,-1270023406,0,-0.9976428747177124,0.4615718424320221,0.9814950227737427,39.97802734375,104.3701171875,-73.974609375
6.296073913574219,-1270023406,1,-0.15904341638088226,-0.4372655153274536,0.32104185223579407,59.5703125,-263.671875,66.89453125
6.305383920669556,-1270023387,0,-1.2071155309677124,0.3272944986820221,0.8865243196487427,37.109375,104.8583984375,-29.1748046875
6.320662021636963,-1270023387,1,-0.18541060388088226,-0.3972264528274536,0.33251646161079407,120.7275390625,-283.447265625,42.1142578125
6.320746898651123,-1270023368,1,0.06288041174411774,-0.4985448122024536,0.46557310223579407,-68.90869140625,-553.16162109375,258.7890625
6.343264102935791,-1270023368,0,-1.1182483434677124,1.1930171251296997,1.1316415071487427,213.8671875,-3.23486328125,23.8037109375
6.343271970748901,-1270023349,0,-0.8919299840927124,0.3521968424320221,0.8279305696487427,147.5830078125,-15.80810546875,38.63525390625
6.350516080856323,-1270023349,1,0.41639605164527893,-0.4663182497024536,0.40795591473579407,-103.3935546875,-534.24072265625,251.8310546875
6.365118980407715,-1270023330,0,-0.8628772497177124,0.2953120768070221,0.7371102571487427,124.08447265625,-39.4287109375,66.2841796875
6.365255832672119,-1270023311,0,-1.7229846715927124,-0.5662602186203003,-0.1952628195285797,44.12841796875,-114.44091796875,8.9111328125
6.408184051513672,-1270023330,1,0.28968706727027893,-0.6320897340774536,0.24535824358463287,-138.427734375,-525.57373046875,199.3408203125
6.4094767570495605,-1270023311,1,2.079237937927246,1.1079005002975464,0.15307308733463287,-61.5234375,-126.03759765625,15.44189453125
6.4095618724823,-1270023292,1,0.36781206727027893,-0.6713963747024536,0.6984832286834717,-51.81884765625,28.80859375,132.01904296875
6.41058087348938,-1270023273,1,0.14662064611911774,-0.8315526247024536,0.7062957286834717,9.33837890625,-38.330078125,31.55517578125
6.424056053161621,-1270023275,0,-0.3487170934677124,0.1661616861820221,0.2205086648464203,-1.5869140625,-131.34765625,37.65869140625
6.424139976501465,-1270023256,0,-0.5147327184677124,0.0023433268070220947,0.5603524446487427,36.0107421875,-32.8369140625,23.193359375
6.4446258544921875,-1270023254,1,0.18690384924411774,-0.6850682497024536,0.6950652599334717,8.1787109375,98.5107421875,100.15869140625
6.45546293258667,-1270023237,0,-0.6700061559677124,0.2254878580570221,0.8074227571487427,43.3349609375,-12.0849609375,42.29736328125
6.46887993812561,-1270023235,1,0.6878803968429565,0.10130868852138519,1.0178191661834717,-12.6953125,109.31396484375,82.21435546875
6.492269992828369,-1270023218,0,-0.5442737340927124,0.5484858751296997,0.7007333040237427,7.9345703125,26.30615234375,3.23486328125
6.492278099060059,-1270023199,0,-0.5791858434677124,0.5660640001296997,0.7539559602737427,-20.32470703125,31.005859375,-5.7373046875
6.500822067260742,-1270023199,1,-0.032578568905591965,-0.3750096559524536,0.9455535411834717,2.38037109375,33.26416015625,91.796875
6.513970851898193,-1270023180,0,-0.5723499059677124,0.1624995768070221,0.7578622102737427,-29.9072265625,20.56884765625,14.22119140625
6.514024972915649,-1270023161,0,-0.6651233434677124,0.3314448893070221,0.7700692415237427,-6.8359375,12.39013671875,52.734375
6.530681848526001,-1270023180,1,-0.023545365780591965,-0.6213475465774536,0.9702117443084717,-9.82666015625,-80.50537109375,18.6767578125
6.54035496711731,-1270023161,1,0.30164995789527893,-0.5642186403274536,0.9797332286834717,-5.18798828125,-94.66552734375,-45.166015625
6.544696807861328,-1270023142,0,-0.6734241247177124,0.3644038736820221,0.7615243196487427,12.39013671875,5.67626953125,27.03857421875
6.559139728546143,-1270023142,1,0.42469683289527893,-0.5232030153274536,0.9582488536834717,6.591796875,-83.06884765625,-50.048828125
6.559253931045532,-1270023123,1,0.37293902039527893,-0.4240819215774536,0.9924285411834717,37.29248046875,-37.2314453125,-35.2783203125
6.573930978775024,-1270023123,0,-0.6165393590927124,0.4576655924320221,0.7312508821487427,21.91162109375,6.40869140625,13.73291015625
6.574032783508301,-1270023104,0,-0.4148792028427124,0.4410640299320221,0.7617684602737427,31.494140625,7.8125,15.7470703125
6.594679117202759,-1270023104,1,0.34217730164527893,-0.5461522340774536,0.9228484630584717,60.60791015625,-45.10498046875,-11.8408203125
6.60547399520874,-1270023085,0,-0.4339221715927124,0.4759761393070221,0.7131844758987427,20.5078125,49.86572265625,30.3955078125
6.6204609870910645,-1270023085,1,0.34510698914527893,-0.4973241090774536,0.9060027599334717,104.736328125,-57.06787109375,12.20703125
6.620550870895386,-1270023066,1,0.24989213049411774,-0.4934178590774536,0.8269011974334717,113.8916015625,-41.56494140625,8.97216796875
6.645197153091431,-1270023066,0,-0.5945667028427124,0.2818843424320221,0.6299325227737427,16.29638671875,88.43994140625,49.9267578125
6.645205020904541,-1270023047,0,-0.7300647497177124,0.2096187174320221,0.5164071321487427,31.982421875,115.234375,44.3115234375
6.650475978851318,-1270023047,1,0.19422806799411774,-0.4062596559524536,0.8796355724334717,125.48828125,-27.9541015625,-17.333984375
6.665919065475464,-1270023011,0,-0.6670764684677124,0.3573237955570221,0.4834481179714203,78.61328125,91.49169921875,29.052734375
6.691475868225098,-1270023028,1,0.24159134924411774,-0.2414647489786148,0.8630340099334717,122.802734375,-13.7939453125,-36.68212890625
6.691483974456787,-1270023009,1,0.33607378602027893,-0.4130955934524536,0.9997527599334717,104.06494140625,-11.41357421875,-99.18212890625
6.695913076400757,-1270022992,0,-0.6031116247177124,0.4234859049320221,0.4055672585964203,115.8447265625,106.0791015625,49.01123046875
6.710510730743408,-1270022990,1,0.40492144227027893,-0.4106541872024536,0.8725554943084717,131.2255859375,30.33447265625,-106.87255859375
6.710606098175049,-1270022971,1,0.34486284852027893,-0.3745213747024536,0.8029754161834717,163.39111328125,51.69677734375,-129.94384765625
6.725627899169922,-1270022973,0,-0.5757678747177124,0.4593745768070221,0.3674813210964203,148.74267578125,156.55517578125,75.50048828125
6.725741147994995,-1270022954,0,-0.6541370153427124,0.4093257486820221,0.4268074929714203,173.15673828125,176.1474609375,97.7783203125
6.753465890884399,-1270022935,0,-0.7007678747177124,0.6742182970046997,0.3115731179714203,196.6552734375,157.28759765625,125.67138671875
6.770605087280273,-1270022935,1,0.16468705236911774,-0.1938573271036148,0.6596648693084717,100.2197265625,48.64501953125,-204.345703125
6.770725965499878,-1270022916,1,-0.027451615780591965,0.05638681724667549,0.32445982098579407,58.41064453125,42.78564453125,-185.05859375
6.791921854019165,-1270022916,0,-0.7315295934677124,0.9862300157546997,0.2571297585964203,142.822265625,80.078125,100.9521484375
6.791930913925171,-1270022897,0,0.0770641639828682,-0.9031742811203003,0.6316415071487427,50.72021484375,-5.55419921875,38.14697265625
6.800746917724609,-1270022897,1,-0.5003520250320435,1.8261622190475464,0.43334653973579407,147.4609375,218.07861328125,-73.66943359375
6.815407991409302,-1270022878,0,-0.9292834997177124,0.7667475938796997,0.3926278054714203,63.4765625,67.138671875,50.72021484375
6.8396689891815186,-1270022878,1,0.6749409437179565,0.3071192502975464,1.0263640880584717,24.47509765625,162.78076171875,10.55908203125
6.839676856994629,-1270022859,1,-0.5760356187820435,0.00023447349667549133,1.0422332286834717,-2.62451171875,209.228515625,103.33251953125
6.844671010971069,-1270022859,0,-1.0105823278427124,0.8517085313796997,0.4746590554714203,37.353515625,42.1142578125,13.85498046875
6.844814777374268,-1270022840,0,-0.8199084997177124,0.6566401720046997,0.5747567415237427,4.45556640625,2.197265625,-35.82763671875
6.858978986740112,-1270022840,1,-0.039414506405591965,0.03685556724667549,0.9707000255584717,-37.2314453125,-4.0283203125,85.02197265625
6.859102964401245,-1270022821,1,-0.26817426085472107,0.03758798912167549,1.0322234630584717,-18.6767578125,53.1005859375,-8.30078125
6.875494003295898,-1270022821,0,-0.5418323278427124,0.6905757188796997,0.2527352273464203,-25.390625,0.54931640625,-65.673828125
6.875560998916626,-1270022802,0,-0.4832385778427124,0.7110835313796997,0.07231531292200089,-38.57421875,-17.9443359375,-34.11865234375
6.893797874450684,-1270022802,1,-0.08091841638088226,0.01659189537167549,0.9531219005584717,-29.84619140625,81.48193359375,-111.38916015625
6.904191970825195,-1270022783,0,-0.6494983434677124,0.5013667345046997,-0.031688593327999115,-27.099609375,19.10400390625,-28.564453125
6.941148996353149,-1270022747,0,-0.7095569372177124,0.5484858751296997,0.2261238992214203,38.75732421875,9.765625,-26.67236328125
6.94895601272583,-1270022783,1,0.015517134219408035,0.2175196260213852,0.8549773693084717,-28.6865234375,93.3837890625,-91.064453125
6.949052810668945,-1270022764,1,0.09510697424411774,-0.1259862333536148,0.7565886974334717,27.64892578125,-0.48828125,-41.19873046875
6.949862003326416,-1270022745,1,0.09754838049411774,0.1411036103963852,1.0593230724334717,40.58837890625,10.43701171875,-1.64794921875
6.963992118835449,-1270022728,0,-0.8321155309677124,0.7474604845046997,0.3203621804714203,50.59814453125,-10.92529296875,-30.8837890625
6.979043006896973,-1270022726,1,-0.07408247888088226,0.1638086885213852,1.0371062755584717,33.14208984375,25.87890625,53.5888671875
6.979142904281616,-1270022707,1,0.10999955236911774,0.5173243284225464,1.0248992443084717,9.033203125,17.76123046875,85.3271484375
6.995867967605591,-1270022709,0,-0.7173694372177124,0.8180171251296997,0.2781258523464203,4.94384765625,-31.31103515625,-23.681640625
6.995880842208862,-1270022690,0,-0.8006213903427124,0.8265620470046997,0.1370125710964203,-23.681640625,-18.73779296875,-15.0146484375
7.009664058685303,-1270022671,1,-0.14170943200588226,-0.09522451460361481,1.0620086193084717,-122.37548828125,88.56201171875,5.06591796875
7.025563955307007,-1270022671,0,-0.8523792028427124,0.1996089518070221,0.1772957742214203,-32.53173828125,-21.8505859375,-14.5263671875
7.0256781578063965,-1270022652,0,-0.8050159215927124,0.5819331407546997,0.3289071023464203,-13.3056640625,-42.66357421875,-40.1611328125
7.043657064437866,-1270022652,1,-0.008896928280591965,-0.2402440458536148,1.2194793224334717,0.42724609375,30.33447265625,-0.54931640625
7.054214954376221,-1270022633,0,-0.8077014684677124,0.7184077501296997,0.2544442117214203,2.8076171875,-46.69189453125,-50.537109375
7.068969964981079,-1270022633,1,-0.06822310388088226,0.05101572349667549,0.9924285411834717,24.23095703125,34.912109375,-4.5166015625
7.069095849990845,-1270022614,1,0.036024946719408035,0.06639657914638519,0.9965789318084717,35.46142578125,27.4658203125,10.1318359375
7.09245491027832,-1270022614,0,-0.7974475622177124,0.7779780626296997,0.2368660867214203,-2.8076171875,-44.189453125,-30.6396484375
7.092462778091431,-1270022595,0,-0.7264026403427124,0.5506831407546997,0.2705574929714203,4.82177734375,-31.982421875,-26.0009765625
7.09965705871582,-1270022595,1,-0.0020609907805919647,0.07518564164638519,1.1093719005584717,41.93115234375,37.7197265625,-2.50244140625
7.1154398918151855,-1270022576,0,-0.7471545934677124,0.5096675157546997,0.3599129617214203,22.4609375,-42.66357421875,-11.474609375
7.140228748321533,-1270022576,1,-0.16783247888088226,0.04784189537167549,1.0971648693084717,40.771484375,22.52197265625,-6.40869140625
7.140237092971802,-1270022557,1,-0.16807661950588226,0.03758798912167549,1.0581023693084717,38.2080078125,24.90234375,-4.69970703125
7.14467191696167,-1270022557,0,-0.8404163122177124,0.5677729845046997,0.3923836648464203,39.4287109375,-69.76318359375,-2.8076171875
7.144678831100464,-1270022538,0,-0.8877795934677124,0.6148921251296997,0.3904305398464203,27.77099609375,-87.46337890625,-26.3671875
7.160505771636963,-1270022538,1,-0.035019975155591965,0.1689356416463852,1.0165984630584717,42.78564453125,15.44189453125,-4.94384765625
7.175528049468994,-1270022519,0,-0.9920276403427124,0.4857417643070221,0.4602547585964203,2.50244140625,-134.21630859375,-55.72509765625
7.1947760581970215,-1270022519,1,0.032851118594408035,0.3752344846725464,0.9711883068084717,51.45263671875,3.173828125,-23.25439453125
7.194785118103027,-1270022500,1,0.14491166174411774,0.2385157197713852,0.9450652599334717,42.05322265625,2.01416015625,-51.6357421875
7.205465793609619,-1270022483,0,-0.9212268590927124,0.6341792345046997,0.3796883523464203,-49.01123046875,-241.69921875,-122.0703125
7.220513105392456,-1270022481,1,-0.042100053280591965,0.2092188447713852,1.0026824474334717,35.15625,17.2119140625,-80.62744140625
7.220611810684204,-1270022462,1,-0.022324662655591965,0.1655176728963852,0.9543426036834717,20.08056640625,22.705078125,-103.271484375
7.242592096328735,-1270022464,0,-0.8980334997177124,0.4757319986820221,0.3542977273464203,-76.59912109375,-286.7431640625,-123.53515625
7.243175029754639,-1270022445,0,-0.4905627965927124,0.4454585611820221,0.2109871804714203,-70.98388671875,-277.16064453125,-119.9951171875
7.250521183013916,-1270022443,1,-0.13560591638088226,0.07445321977138519,0.9641082286834717,10.25390625,18.61572265625,-109.31396484375
7.265838146209717,-1270022426,0,-0.5196155309677124,0.1793452799320221,0.2104988992214203,-21.54541015625,-213.19580078125,-52.91748046875
7.291143894195557,-1270022407,1,-0.28721722960472107,0.07518564164638519,0.8259246349334717,30.6396484375,-58.10546875,-84.9609375
7.297316789627075,-1270022407,0,-0.6092151403427124,0.1148921549320221,0.4048348367214203,20.6298828125,-139.95361328125,-89.78271484375
7.2973339557647705,-1270022388,0,-0.5176624059677124,0.0924312174320221,0.5923348665237427,98.876953125,-125.732421875,-119.81201171875
7.31047511100769,-1270022388,1,-0.11998091638088226,0.1508692353963852,0.8391082286834717,7.26318359375,-59.26513671875,-76.2939453125
7.327095985412598,-1270022369,0,-0.5396350622177124,0.4361812174320221,0.6921883821487427,124.57275390625,-95.0927734375,-185.24169921875
7.345066070556641,-1270022369,1,-0.15586958825588226,-0.02149404212832451,0.8767058849334717,7.14111328125,-43.45703125,-48.33984375
7.345076084136963,-1270022350,1,-0.21543990075588226,-0.01734365150332451,1.0039031505584717,-1.64794921875,-26.18408203125,-45.2880859375
7.354048013687134,-1270022350,0,-0.3994983434677124,0.7306147813796997,0.7358895540237427,104.30908203125,-63.1103515625,-164.00146484375
7.354107856750488,-1270022331,0,-0.4163440465927124,0.9547358751296997,0.7922860383987427,57.67822265625,-27.587890625,-92.95654296875
7.370836019515991,-1270022331,1,-0.22227583825588226,0.05443369224667549,0.9880340099334717,-13.61083984375,-24.10888671875,-34.912109375
7.3709797859191895,-1270022312,1,-0.21080122888088226,0.1555079072713852,1.0017058849334717,-18.06640625,-54.62646484375,-8.056640625
7.392153024673462,-1270022312,0,-0.3955920934677124,1.0550776720046997,0.7036629915237427,1.8310546875,-6.4697265625,-19.8974609375
7.392797946929932,-1270022293,0,-0.4954456090927124,0.7855464220046997,0.6816903352737427,-68.115234375,23.0712890625,48.64501953125
7.400473117828369,-1270022293,1,-0.10899458825588226,0.06200205162167549,1.1618621349334717,-17.08984375,-75.01220703125,-12.0849609375
7.415438175201416,-1270022274,0,-0.6109241247177124,0.4134761393070221,0.7327157258987427,-97.35107421875,21.54541015625,85.14404296875
7.444225072860718,-1270022255,0,-0.5757678747177124,0.1349116861820221,0.7852059602737427,-57.18994140625,24.71923828125,70.6787109375
7.459203004837036,-1270022274,1,-0.12315474450588226,0.07396493852138519,1.1455047130584717,-30.6396484375,-30.517578125,14.95361328125
7.459338903427124,-1270022255,1,-0.055283647030591965,0.1418360322713852,1.0129363536834717,-39.24560546875,-9.94873046875,11.29150390625
7.459352016448975,-1270022236,1,-0.11656294763088226,0.2304590791463852,0.9199187755584717,-15.56396484375,-35.0341796875,32.16552734375
7.473913908004761,-1270022219,0,-0.5508655309677124,0.4881831705570221,0.6565438508987427,13.3056640625,52.91748046875,-6.8359375
7.49481987953186,-1270022217,1,-0.037949662655591965,0.1740625947713852,0.9658172130584717,9.765625,-57.0068359375,44.61669921875
7.494866847991943,-1270022198,1,-0.004746537655591965,0.2507227659225464,1.0021941661834717,20.32470703125,-53.16162109375,62.8662109375
7.505605936050415,-1270022200,0,-0.5957874059677124,0.6244136095046997,0.6167489290237427,-1.28173828125,64.14794921875,-9.8876953125
7.505717039108276,-1270022181,0,-0.6077502965927124,0.4769527018070221,0.6174813508987427,-27.7099609375,66.71142578125,-0.244140625
7.520458936691284,-1270022179,1,0.051161665469408035,0.2997950315475464,1.0749480724334717,7.6904296875,-29.72412109375,60.97412109375
7.542562961578369,-1270022162,0,-0.6077502965927124,0.3714839518070221,0.6333504915237427,-30.76171875,67.626953125,1.220703125
7.542574167251587,-1270022143,0,-0.8443225622177124,0.5291987657546997,0.8022958040237427,-20.32470703125,63.1103515625,10.68115234375
7.5496649742126465,-1270022143,1,-0.00010786578059196472,0.2250879853963852,1.0703094005584717,6.04248046875,39.24560546875,-1.5869140625
7.564105033874512,-1270022124,0,-0.8826526403427124,0.5067378282546997,0.6843758821487427,-45.95947265625,13.36669921875,59.9365234375
7.578839063644409,-1270022124,1,-0.13267622888088226,-0.02271474525332451,1.0578582286834717,34.912109375,41.015625,14.5263671875
7.5789477825164795,-1270022105,1,-0.15391646325588226,0.1279200166463852,0.9709441661834717,60.05859375,8.056640625,28.25927734375
7.596718072891235,-1270022105,0,-0.8592151403427124,0.3580562174320221,0.5190926790237427,-27.16064453125,-15.9912109375,52.6123046875
7.596727132797241,-1270022086,0,-0.7422717809677124,0.3509761393070221,0.5042001008987427,-5.9814453125,-14.83154296875,40.283203125
7.608882904052734,-1270022086,1,-0.07847701013088226,0.2621973752975464,0.9887664318084717,67.44384765625,-23.49853515625,25.08544921875
7.6245739459991455,-1270022067,0,-0.6614612340927124,0.4076167643070221,0.5786629915237427,7.75146484375,16.6015625,30.45654296875
7.646713972091675,-1270022067,1,0.057509321719408035,0.2570704221725464,1.0295379161834717,68.115234375,-22.39990234375,23.3154296875
7.646723747253418,-1270022048,1,0.007216352969408035,0.2607325315475464,1.0949676036834717,62.3779296875,-13.73291015625,24.96337890625
7.654098033905029,-1270022048,0,-0.6079944372177124,0.4400874674320221,0.6838876008987427,6.04248046875,36.19384765625,25.87890625
7.654123067855835,-1270022029,0,-0.6192249059677124,0.4366694986820221,0.7395516633987427,6.04248046875,48.40087890625,19.83642578125
7.67303204536438,-1270022029,1,0.06507767736911774,0.3493555784225464,1.1298797130584717,62.43896484375,-5.7373046875,36.68212890625
7.692792177200317,-1270022010,0,-0.7478870153427124,0.4303218424320221,0.7234383821487427,11.71875,46.20361328125,27.52685546875
7.692800998687744,-1270021991,0,-0.8203967809677124,0.4862300455570221,0.6375008821487427,12.02392578125,23.86474609375,38.0859375
7.700639009475708,-1270022010,1,0.19056595861911774,0.4431055784225464,1.1232879161834717,75.98876953125,18.37158203125,6.103515625
7.70071816444397,-1270021991,1,-0.0035258345305919647,0.2621973752975464,0.9101531505584717,89.78271484375,29.47998046875,-1.3427734375
7.728561878204346,-1270021972,1,-0.006211381405591965,0.4338282346725464,0.8674285411834717,95.76416015625,2.8076171875,19.47021484375
7.740270137786865,-1270021953,1,0.050429243594408035,0.4916895627975464,0.8784148693084717,80.2001953125,-1.708984375,11.962890625
7.745637893676758,-1270021955,0,-0.7049182653427124,0.4493648111820221,0.5403329133987427,20.44677734375,-1.15966796875,42.41943359375
7.745758056640625,-1270021936,0,-0.6553577184677124,0.4757319986820221,0.5391122102737427,18.4326171875,6.77490234375,36.56005859375
7.759469985961914,-1270021934,1,0.033095259219408035,0.4860743284225464,0.8464324474334717,65.185546875,6.2255859375,7.87353515625
7.775511980056763,-1270021917,0,-0.6534045934677124,0.4925777018070221,0.5396004915237427,12.39013671875,13.61083984375,34.48486328125
7.793837070465088,-1270021915,1,0.049940962344408035,0.5151270627975464,0.8513152599334717,46.7529296875,14.34326171875,-1.0986328125
7.8040220737457275,-1270021898,0,-0.6228870153427124,0.4703609049320221,0.5337411165237427,6.4697265625,17.39501953125,23.3154296875
7.804095029830933,-1270021879,0,-0.6355823278427124,0.4576655924320221,0.5249520540237427,4.39453125,15.625,18.98193359375
7.82088303565979,-1270021879,1,-0.019150834530591965,0.4272364377975464,0.8635222911834717,24.59716796875,14.7705078125,-6.77490234375
7.84273886680603,-1270021860,0,-0.7019885778427124,0.4410640299320221,0.5149422883987427,1.0986328125,8.544921875,12.5732421875
7.842747926712036,-1270021841,0,-0.6617053747177124,0.5143061876296997,0.4731942117214203,4.150390625,-7.26318359375,6.89697265625
7.850608825683594,-1270021860,1,0.055556196719408035,0.4382227659225464,0.8166472911834717,20.56884765625,15.2587890625,-8.72802734375
7.850737810134888,-1270021841,1,0.11537064611911774,0.4982813596725464,0.7849090099334717,7.01904296875,6.77490234375,-13.61083984375
7.865712881088257,-1270021822,0,-0.6162952184677124,0.4723140299320221,0.4958992898464203,11.8408203125,-16.11328125,5.31005859375
7.891604900360107,-1270021822,1,0.14808548986911774,0.5300196409225464,0.8161590099334717,-5.9814453125,9.27734375,-15.44189453125
7.891613006591797,-1270021803,1,-0.028428178280591965,0.5043848752975464,0.9382293224334717,-23.98681640625,19.775390625,-23.193359375
7.897550821304321,-1270021803,0,-0.5760120153427124,0.5082026720046997,0.5371590852737427,17.51708984375,-16.2353515625,2.25830078125
7.897558927536011,-1270021784,0,-0.5967639684677124,0.5331050157546997,0.6165047883987427,11.53564453125,-11.53564453125,1.03759765625
7.910382032394409,-1270021784,1,-0.15025435388088226,0.3723047971725464,0.9809539318084717,-23.681640625,17.08984375,-12.02392578125
7.925402879714966,-1270021765,0,-0.6597522497177124,0.5377436876296997,0.6907235383987427,-1.03759765625,-13.427734375,1.40380859375
7.946655988693237,-1270021765,1,-0.009141068905591965,0.4753321409225464,0.9272429943084717,-10.68115234375,6.7138671875,2.3193359375
7.946665048599243,-1270021746,1,0.017958540469408035,0.4819239377975464,0.9318816661834717,-3.35693359375,-4.7607421875,2.685546875
7.967875957489014,-1270021727,1,-0.054795365780591965,0.4582422971725464,0.9392058849334717,2.38037109375,-11.29150390625,-1.89208984375
7.990403890609741,-1270021746,0,-0.6082385778427124,0.6295405626296997,0.6523934602737427,-4.57763671875,-22.4609375,-0.42724609375
7.990411996841431,-1270021727,0,-0.6663440465927124,0.6141597032546997,0.6492196321487427,-2.01416015625,-27.4658203125,4.94384765625
7.990417003631592,-1270021691,0,-0.6243518590927124,0.5804682970046997,0.6101571321487427,-3.60107421875,-28.3203125,9.46044921875
7.999051094055176,-1270021708,1,0.051405806094408035,0.4963282346725464,0.9282195568084717,5.55419921875,-9.033203125,0.6103515625
7.999146938323975,-1270021689,1,-0.021592240780591965,0.5190333127975464,0.9130828380584717,3.0517578125,-2.50244140625,-3.7841796875
8.013678073883057,-1270021672,0,-0.6060413122177124,0.5511714220046997,0.5879403352737427,-11.1083984375,-31.8603515625,18.310546875
8.039982080459595,-1270021670,1,0.0018452592194080353,0.5263575315475464,0.9309051036834717,-4.57763671875,-4.33349609375,-22.4609375
8.0399911403656,-1270021651,1,0.0013569779694080353,0.4682520627975464,0.8779265880584717,-6.28662109375,4.45556640625,-24.7802734375
8.045467853546143,-1270021653,0,-0.5169299840927124,0.4798823893070221,0.5247079133987427,-16.29638671875,-26.55029296875,18.06640625
8.04557490348816,-1270021634,0,-0.5213245153427124,0.5125972032546997,0.5322762727737427,-13.00048828125,-9.21630859375,14.70947265625
8.073493957519531,-1270021615,0,-0.5948108434677124,0.4928218424320221,0.5613290071487427,-23.25439453125,-3.662109375,14.404296875
8.094689130783081,-1270021615,1,-0.040391068905591965,0.4240626096725464,0.8161590099334717,-8.7890625,9.58251953125,-12.26806640625
8.094701051712036,-1270021596,1,-0.08311568200588226,0.4199122190475464,0.7839324474334717,-11.65771484375,6.591796875,-11.474609375
8.105479001998901,-1270021596,0,-0.6814807653427124,0.4342280924320221,0.7263680696487427,-14.34326171875,-12.39013671875,9.521484375
8.105489015579224,-1270021577,0,-0.5957874059677124,0.4715816080570221,0.5913583040237427,-2.44140625,-7.2021484375,-1.8310546875
8.119107007980347,-1270021577,1,-0.12486372888088226,0.3769434690475464,0.7841765880584717,-14.6484375,-12.5732421875,-17.2119140625
8.141966819763184,-1270021558,0,-0.5457385778427124,0.4891597330570221,0.6123543977737427,7.26318359375,-10.68115234375,-4.638671875
8.149070024490356,-1270021558,1,-0.13096724450588226,0.3547266721725464,0.8586394786834717,-19.775390625,-28.4423828125,-19.287109375
8.149187803268433,-1270021539,1,-0.041855912655591965,0.3273829221725464,0.9206511974334717,-28.6865234375,-15.44189453125,-14.83154296875
8.164785861968994,-1270021539,0,-0.5472034215927124,0.4801265299320221,0.6326180696487427,4.08935546875,-2.01416015625,-4.21142578125
8.164906978607178,-1270021520,0,-0.5559924840927124,0.4898921549320221,0.5718270540237427,-2.62451171875,1.52587890625,-5.92041015625
8.190429925918579,-1270021520,1,-0.014756303280591965,0.4240626096725464,0.9401824474334717,-37.2314453125,11.8408203125,-13.24462890625
8.190440893173218,-1270021501,1,-0.009873490780591965,0.4387110471725464,0.8801238536834717,-47.66845703125,17.4560546875,-22.27783203125
8.19505786895752,-1270021501,0,-0.5347522497177124,0.4730464518070221,0.5515633821487427,-8.544921875,7.26318359375,-5.0048828125
8.195064783096313,-1270021482,0,-0.5191272497177124,0.4847652018070221,0.5903817415237427,-10.80322265625,13.48876953125,-3.11279296875
8.210737943649292,-1270021482,1,-0.16612349450588226,0.4606837034225464,0.8666961193084717,-52.978515625,-5.06591796875,-33.69140625
8.225359916687012,-1270021463,0,-0.5389026403427124,0.5228511095046997,0.5513192415237427,-16.54052734375,21.97265625,-2.99072265625
8.247213125228882,-1270021463,1,-0.037217240780591965,0.3066309690475464,0.9802215099334717,-57.7392578125,-8.11767578125,-33.14208984375
8.247220993041992,-1270021444,1,0.041884321719408035,0.3466700315475464,1.0073211193084717,-57.31201171875,24.10888671875,-17.578125
8.253952980041504,-1270021427,0,-0.5015491247177124,0.4979487955570221,0.6494637727737427,-32.16552734375,36.68212890625,9.09423828125
8.268804788589478,-1270021425,1,-0.004746537655591965,0.4169825315475464,0.9172332286834717,-52.978515625,51.3916015625,-27.83203125
8.291786909103394,-1270021408,0,-0.4991077184677124,0.4894038736820221,0.7122079133987427,-38.330078125,51.025390625,5.859375
8.300686120986938,-1270021406,1,-0.21983443200588226,0.3559473752975464,0.8837859630584717,-58.65478515625,49.01123046875,-32.1044921875
8.30079698562622,-1270021387,1,-0.42051801085472107,0.2390040010213852,0.8786590099334717,-63.17138671875,20.263671875,-12.51220703125
8.315519094467163,-1270021389,0,-0.5232776403427124,0.5404292345046997,0.6245614290237427,-53.03955078125,52.18505859375,9.33837890625
8.315579891204834,-1270021370,0,-0.4632190465927124,0.4908687174320221,0.5693856477737427,-67.626953125,55.2978515625,9.27734375
8.340904951095581,-1270021351,1,0.41029253602027893,1.1386622190475464,1.5688445568084717,-57.43408203125,-181.2744140625,-7.75146484375
8.345602035522461,-1270021351,0,-0.5618518590927124,0.3443843424320221,0.6677743196487427,-68.29833984375,85.205078125,6.28662109375
8.34574007987976,-1270021332,0,-0.027183882892131805,0.7086421251296997,1.0217782258987427,-35.82763671875,54.50439453125,-12.5732421875
8.360435962677002,-1270021332,1,-0.48130902647972107,0.2971094846725464,0.8205535411834717,-85.63232421875,-80.56640625,14.7705078125
8.375477075576782,-1270021313,0,-0.3943713903427124,0.8441401720046997,0.9363290071487427,-15.2587890625,36.376953125,-19.775390625
8.394568920135498,-1270021313,1,-0.48423871397972107,0.2363184541463852,0.7631804943084717,-125.91552734375,-104.4921875,20.44677734375
8.394576787948608,-1270021294,1,-0.41661176085472107,-0.02344716712832451,0.5595672130584717,-161.80419921875,-178.89404296875,56.45751953125
8.408330917358398,-1270021294,0,-0.7508167028427124,0.6131831407546997,0.6968270540237427,-58.9599609375,113.76953125,-23.01025390625
8.408339977264404,-1270021275,0,-1.2849963903427124,0.2945796549320221,0.4814949929714203,-106.75048828125,102.05078125,6.8359375
8.420507907867432,-1270021275,1,0.7901753187179565,-0.2412206083536148,1.5017058849334717,-174.4384765625,-245.05615234375,75.25634765625
8.442449808120728,-1270021256,0,-0.7083362340927124,0.1292964518070221,0.8384286165237427,-121.76513671875,-36.4990234375,-9.46044921875
8.451735019683838,-1270021256,1,0.16590775549411774,-0.09400381147861481,0.7531707286834717,-170.166015625,-141.66259765625,37.353515625
8.45174503326416,-1270021237,1,0.06263627111911774,-0.2939549684524536,0.8520476818084717,-190.0634765625,-58.89892578125,-60.72998046875
8.465728044509888,-1270021237,0,-0.7613147497177124,0.4205562174320221,0.5869637727737427,-23.92578125,-15.31982421875,-79.77294921875
8.46583604812622,-1270021218,0,-0.4102405309677124,0.5772944688796997,1.2329598665237427,-54.26025390625,-6.9580078125,-92.95654296875
8.49311113357544,-1270021199,0,-0.6297229528427124,0.7723628282546997,0.4678231179714203,-42.90771484375,52.91748046875,-73.486328125
8.509397983551025,-1270021218,1,0.48426714539527893,-0.12330068647861481,0.15771175920963287,-109.43603515625,-101.9287109375,19.6533203125
8.509562969207764,-1270021199,1,0.31312456727027893,0.09032236039638519,0.9101531505584717,-96.0693359375,52.91748046875,55.60302734375
8.509582042694092,-1270021180,1,0.5777729749679565,-0.4958592653274536,1.3879363536834717,-46.20361328125,5.18798828125,115.478515625
8.523784875869751,-1270021163,0,-0.8045276403427124,0.1129390299320221,0.5791512727737427,-27.77099609375,162.59765625,4.08935546875
8.54621696472168,-1270021161,1,0.24012650549411774,-0.5493260622024536,1.2150847911834717,-63.29345703125,-33.935546875,87.40234375
8.54622483253479,-1270021142,1,0.018446821719408035,-0.4961034059524536,1.0410125255584717,7.080078125,-121.88720703125,114.6240234375
8.555641889572144,-1270021144,0,-0.8897327184677124,0.2684566080570221,0.7151376008987427,-35.7666015625,160.94970703125,-58.7158203125
8.555733919143677,-1270021125,0,-0.7620471715927124,0.2596675455570221,0.4744149148464203,-39.55078125,206.54296875,-64.63623046875
8.570360898971558,-1270021123,1,-0.09849654138088226,-0.2255956083536148,0.9829070568084717,7.080078125,-158.3251953125,60.6689453125
8.594169855117798,-1270021106,0,-0.7068713903427124,0.1781245768070221,0.2012215554714203,-33.99658203125,168.64013671875,-0.30517578125
8.60051679611206,-1270021087,1,0.5177143812179565,-0.4375096559524536,0.8149383068084717,-157.53173828125,-60.97412109375,-118.34716796875
8.614089965820312,-1270021087,0,-1.2500842809677124,0.2909175455570221,0.5308114290237427,-38.0859375,146.30126953125,24.59716796875
8.614223957061768,-1270021068,0,-1.0044788122177124,0.6075679063796997,0.3054696023464203,3.41796875,65.00244140625,54.99267578125
8.641818761825562,-1270021068,1,0.7276753187179565,-0.6147557497024536,1.2180144786834717,-62.92724609375,-75.68359375,-43.9453125
8.645916938781738,-1270021049,0,-1.1189807653427124,0.5243159532546997,0.3625985085964203,-62.744140625,11.23046875,0.18310546875
8.658995866775513,-1270021049,1,0.6141499280929565,-0.3730565309524536,0.9226043224334717,-45.22705078125,-135.8642578125,71.044921875
8.659111976623535,-1270021030,1,0.6309956312179565,-0.3310643434524536,0.9653289318084717,-20.93505859375,-115.966796875,102.5390625
8.675692081451416,-1270021030,0,-0.8570178747177124,0.016503483057022095,0.2947274148464203,-125.244140625,12.3291015625,2.685546875
8.675714015960693,-1270021011,0,-0.5137561559677124,0.1380855143070221,0.4841805398464203,-98.57177734375,59.87548828125,-1.8310546875
8.695366859436035,-1270021011,1,0.6693257093429565,-0.4904881715774536,0.7941863536834717,-8.1787109375,-101.01318359375,73.3642578125
8.695425987243652,-1270020992,1,0.6529682874679565,-0.5185643434524536,0.8210418224334717,-39.61181640625,-77.7587890625,18.98193359375
8.704877138137817,-1270020992,0,-0.5855334997177124,0.052880436182022095,0.7173348665237427,-106.689453125,156.3720703125,-31.982421875
8.7049880027771,-1270020973,0,-0.6734241247177124,0.017724186182022095,0.4741707742214203,-102.23388671875,291.6259765625,-78.4912109375
8.720451831817627,-1270020973,1,0.36366167664527893,-0.3100682497024536,0.5610320568084717,-78.91845703125,-18.00537109375,-78.30810546875
8.741857051849365,-1270020954,0,-1.1258167028427124,-0.0005863606929779053,-0.3456534445285797,-58.10546875,321.22802734375,-107.421875
8.750547885894775,-1270020954,1,0.5096577405929565,-0.3725682497024536,0.8410613536834717,-10.498046875,46.69189453125,-78.4912109375
8.750667095184326,-1270020935,1,0.35072222352027893,0.3227442502975464,1.1188933849334717,51.3916015625,75.439453125,-22.76611328125
8.76586389541626,-1270020935,0,-1.2881702184677124,0.3329097330570221,-0.3688468039035797,-20.3857421875,184.02099609375,-77.94189453125
8.790080070495605,-1270020916,1,0.35414019227027893,-0.1320897489786148,1.1528289318084717,6.9580078125,36.43798828125,19.59228515625
8.794475078582764,-1270020899,0,-0.9742053747177124,0.1942378580570221,-0.024852655827999115,-51.57470703125,-44.7998046875,-31.73828125
8.810682773590088,-1270020897,1,0.46571245789527893,-0.1733495146036148,1.1892058849334717,-5.31005859375,55.48095703125,-36.80419921875
8.810802936553955,-1270020878,1,0.43495073914527893,-0.2668553590774536,0.7802703380584717,-10.19287109375,47.18017578125,-71.044921875
8.824748992919922,-1270020880,0,-0.8594592809677124,0.1803218424320221,0.036670781672000885,-48.52294921875,-101.62353515625,-15.93017578125
8.824828863143921,-1270020861,0,-0.7859729528427124,0.015526920557022095,0.07988367229700089,-45.166015625,-111.99951171875,-15.9912109375
8.846382856369019,-1270020859,1,0.39857378602027893,-0.4751073122024536,0.8132293224334717,-20.08056640625,99.12109375,-85.14404296875
8.855555057525635,-1270020842,0,-0.9702991247177124,-0.1185062825679779,0.035694219172000885,-17.76123046875,-106.87255859375,-64.94140625
8.85562801361084,-1270020823,0,-0.9803088903427124,-0.4263676106929779,0.3472176492214203,-53.64990234375,-104.4921875,-161.7431640625
8.870409965515137,-1270020823,1,0.5382221937179565,-0.6767674684524536,0.7346160411834717,-45.95947265625,131.16455078125,-114.80712890625
8.893331050872803,-1270020804,0,-0.6416858434677124,-0.3743656575679779,1.0369149446487427,-77.33154296875,62.80517578125,-264.7705078125
8.899900913238525,-1270020804,1,0.47083941102027893,-0.6418553590774536,0.7236297130584717,-43.0908203125,165.58837890625,-158.26416015625
8.900053024291992,-1270020785,1,0.39979448914527893,-0.3476659059524536,1.1801726818084717,-7.62939453125,190.5517578125,-182.0068359375
8.915661096572876,-1270020785,0,-0.8662952184677124,-0.3892582356929779,0.4055672585964203,-91.9189453125,76.35498046875,-291.07666015625
8.915727853775024,-1270020766,0,-1.1619495153427124,-0.3707035481929779,0.2805672585964203,-78.2470703125,18.00537109375,-252.685546875
8.941179990768433,-1270020766,1,0.20106400549411774,-0.1303807646036148,1.0161101818084717,-9.46044921875,141.54052734375,-137.8173828125
8.945677995681763,-1270020747,0,-0.9566272497177124,-0.4620121419429779,0.2148934304714203,-132.75146484375,81.84814453125,-230.40771484375
