sync_time,timestamp_ms,device_id,ax,ay,az,gx,gy,gz
0.011358022689819336,-238784074,0,-0.4826677739620209,0.16202914714813232,1.0593019723892212,-0.79345703125,41.68701171875,5.615234375
0.02616596221923828,-238784055,0,-0.4992693364620209,0.16398227214813232,1.0612550973892212,1.15966796875,42.236328125,6.34765625
0.032318115234375,-238784070,1,-0.5017521977424622,0.3475637137889862,0.8487957119941711,-14.0380859375,13.73291015625,18.6767578125
0.0323488712310791,-238784051,1,-0.5171330571174622,0.3470754325389862,0.8358562588691711,-9.94873046875,13.73291015625,19.59228515625
0.03979015350341797,-238784036,0,-0.5019548535346985,0.15739047527313232,1.0585695505142212,2.8076171875,38.4521484375,5.43212890625
0.06679606437683105,-238784032,1,-0.5115178227424622,0.3443898856639862,0.8194988369941711,-9.09423828125,9.765625,19.53125
0.06680130958557129,-238784013,1,-0.5076115727424622,0.3439016044139862,0.8021648526191711,-7.2021484375,9.8876953125,17.39501953125
0.07178115844726562,-238784017,0,-0.4929216802120209,0.15104281902313232,1.0434328317642212,2.25830078125,35.33935546875,2.685546875
0.07178592681884766,-238783998,0,-0.4787615239620209,0.14860141277313232,1.0248781442642212,4.69970703125,34.423828125,1.15966796875
0.09699511528015137,-238783979,0,-0.4677751958370209,0.15006625652313232,1.0007082223892212,6.7138671875,32.470703125,0.6103515625
0.12048006057739258,-238783977,1,-0.48026782274246216,0.3307180106639862,0.7887371182441711,-5.43212890625,5.126953125,16.2353515625
0.12048625946044922,-238783958,1,-0.49101001024246216,0.3214406669139862,0.7787273526191711,-4.08935546875,4.57763671875,14.58740234375
0.12967920303344727,-238783943,0,-0.4809587895870209,0.10294711589813232,1.0129152536392212,7.8125,31.55517578125,-3.41796875
0.14439606666564941,-238783939,1,-0.48051196336746216,0.3006887137889862,0.7667644619941711,-3.35693359375,0.06103515625,11.77978515625
0.16787314414978027,-238783924,0,-0.4729021489620209,0.09415805339813232,0.997046172618866,8.6669921875,27.03857421875,-6.28662109375
0.1678791046142578,-238783905,0,-0.4343279302120209,0.07999789714813232,0.970434844493866,11.1083984375,25.57373046875,-11.90185546875
0.1744520664215088,-238783920,1,-0.45194751024246216,0.2845754325389862,0.7689617276191711,-1.3427734375,-4.39453125,9.6435546875
0.17447304725646973,-238783901,1,-0.42118579149246216,0.2967824637889862,0.7604168057441711,2.74658203125,-6.28662109375,4.21142578125
0.189378023147583,-238783886,0,-0.4221208989620209,0.062175631523132324,0.969702422618866,12.51220703125,23.49853515625,-16.29638671875
0.21576499938964844,-238783882,1,-0.41166430711746216,0.2999562919139862,0.7562664151191711,3.60107421875,-7.14111328125,0.0
0.2169351577758789,-238783863,1,-0.39652758836746216,0.3041066825389862,0.7599285244941711,3.23486328125,-7.4462890625,-7.62939453125
0.221818208694458,-238783867,0,-0.3981951177120209,0.060222506523132324,0.965307891368866,15.68603515625,25.87890625,-22.3388671875
0.22182393074035645,-238783848,0,-0.4121111333370209,0.07706820964813232,0.987524688243866,15.869140625,25.146484375,-29.60205078125
0.2346649169921875,-238783844,1,-0.41361743211746216,0.2882375419139862,0.7743328213691711,6.7138671875,-8.9111328125,-12.5732421875
0.24967122077941895,-238783829,0,-0.4194353520870209,0.06779086589813232,1.0217043161392212,15.380859375,19.53125,-37.9638671875
0.2722311019897461,-238783825,1,-0.43339282274246216,0.2987355887889862,0.8090007901191711,8.11767578125,-15.56396484375,-17.578125
0.27223706245422363,-238783806,1,-0.44926196336746216,0.2826223075389862,0.8321941494941711,8.72802734375,-19.59228515625,-23.3154296875
0.2794811725616455,-238783810,0,-0.4609392583370209,0.046550631523132324,1.0163332223892212,14.404296875,16.78466796875,-42.236328125
0.2795262336730957,-238783791,0,-0.4670427739620209,0.025798678398132324,1.0544191598892212,14.70947265625,16.7236328125,-52.24609375
0.29448914527893066,-238783787,1,-0.45560961961746216,0.2948293387889862,0.8334148526191711,10.986328125,-24.658203125,-29.4189453125
0.3201751708984375,-238783772,0,-0.4885271489620209,0.056804537773132324,1.0651613473892212,15.0146484375,7.9345703125,-61.58447265625
0.32448792457580566,-238783768,1,-0.46806079149246216,0.2743215262889862,0.8607586026191711,12.87841796875,-26.2451171875,-39.12353515625
0.3245260715484619,-238783749,1,-0.5012639164924622,0.2843312919139862,0.8697918057441711,22.15576171875,-24.7802734375,-42.3583984375
0.3396611213684082,-238783753,0,-0.5061052441596985,0.061199069023132324,1.1374269723892212,14.5263671875,3.35693359375,-75.50048828125
0.33974409103393555,-238783734,0,-0.4841326177120209,0.060222506523132324,1.0712648630142212,14.83154296875,-7.38525390625,-80.74951171875
0.36919188499450684,-238783713,1,-0.5112736821174622,0.3419484794139862,0.8705242276191711,23.8037109375,-31.67724609375,-41.19873046875
0.374500036239624,-238783715,0,-0.4755876958370209,0.14371860027313232,1.0893312692642212,15.869140625,-0.54931640625,-87.09716796875
0.38393497467041016,-238783694,1,-0.5337346196174622,0.3724660575389862,0.8358562588691711,20.08056640625,-34.72900390625,-40.771484375
0.3999001979827881,-238783679,0,-0.5017107129096985,0.13077914714813232,1.0397707223892212,16.357421875,-5.126953125,-69.9462890625
0.4227941036224365,-238783675,1,-0.47587329149246216,0.3753957450389862,0.7882488369941711,14.58740234375,-36.80419921875,-38.02490234375
0.42280125617980957,-238783656,1,-0.45634204149246216,0.3727101981639862,0.7833660244941711,13.427734375,-33.99658203125,-39.61181640625
0.42958998680114746,-238783660,0,-0.5102556347846985,0.12345492839813232,0.967261016368866,15.9912109375,-6.04248046875,-69.091796875
0.4297201633453369,-238783641,0,-0.4785173833370209,0.11808383464813232,0.936255156993866,13.916015625,-1.64794921875,-74.8291015625
0.4446370601654053,-238783637,1,-0.5015080571174622,0.3705129325389862,0.7469890713691711,14.2822265625,-30.09033203125,-45.95947265625
0.46858906745910645,-238783622,0,-0.4660662114620209,0.13370883464813232,0.933569610118866,7.8125,-0.244140625,-79.833984375
0.4730691909790039,-238783618,1,-0.44682055711746216,0.3846730887889862,0.7408855557441711,12.39013671875,-26.79443359375,-51.94091796875
0.47314906120300293,-238783599,1,-0.5842717289924622,0.5228567123413086,0.8094890713691711,6.7138671875,-17.333984375,-28.13720703125
0.4898500442504883,-238783603,0,-0.7192400097846985,0.3517264127731323,0.939184844493866,39.12353515625,-12.02392578125,-51.33056640625
0.48993611335754395,-238783584,0,-0.4831560552120209,0.2897146940231323,0.926245391368866,4.82177734375,-23.74267578125,-46.38671875
0.5161359310150146,-238783580,1,-0.5454533696174622,0.4825734794139862,0.7623699307441711,-5.55419921875,-13.5498046875,-25.20751953125
0.5206551551818848,-238783565,0,-0.4602068364620209,0.2977713346481323,0.896704375743866,10.3759765625,-10.92529296875,-37.04833984375
0.5206589698791504,-238783546,0,-0.5222185254096985,0.042644381523132324,0.885229766368866,5.06591796875,1.77001953125,-41.68701171875
0.5345332622528076,-238783561,1,-0.44901782274246216,0.4222707450389862,0.7357586026191711,-4.0283203125,11.71875,-18.73779296875
0.5345761775970459,-238783542,1,-0.45756274461746216,0.4098195731639862,0.7382000088691711,4.150390625,33.14208984375,-25.2685546875
0.5498201847076416,-238783527,0,-0.3425310552120209,0.07853305339813232,0.869360625743866,11.71875,0.8544921875,-61.6455078125
0.5722560882568359,-238783523,1,-0.5527775883674622,0.2933644950389862,0.7833660244941711,14.46533203125,43.212890625,-44.3115234375
0.5722622871398926,-238783504,1,-0.5747502446174622,0.3639211356639862,0.8063152432441711,19.04296875,-16.7236328125,-45.71533203125
0.578463077545166,-238783508,0,-0.2663591802120209,0.12174594402313232,0.992895781993866,16.11328125,21.6064453125,-65.12451171875
0.5784890651702881,-238783489,0,-0.3720720708370209,0.07267367839813232,1.0839601755142212,19.47021484375,29.4189453125,-48.33984375
0.5928061008453369,-238783485,1,-0.43998461961746216,0.4027394950389862,0.7645671963691711,12.14599609375,-38.63525390625,-52.55126953125
0.6180541515350342,-238783470,0,-0.4116228520870209,-0.10554897785186768,1.1630617380142212,44.49462890625,20.3857421875,-40.4052734375
0.6228480339050293,-238783449,1,-0.40922290086746216,0.3578176200389862,0.8661296963691711,-11.65771484375,11.23046875,-56.396484375
0.6378271579742432,-238783451,0,-0.4580095708370209,0.18644320964813232,1.1164308786392212,44.86083984375,51.1474609375,-76.11083984375
0.6685099601745605,-238783430,1,-0.41312915086746216,0.2860402762889862,0.8705242276191711,-16.6015625,10.6201171875,-53.16162109375
0.6757850646972656,-238783415,0,-0.4091814458370209,0.20743930339813232,1.0387941598892212,12.02392578125,60.4248046875,-44.12841796875
0.6757912635803223,-238783396,0,-0.5288103222846985,0.12223422527313232,1.1113039255142212,14.09912109375,40.10009765625,-42.78564453125
0.6828930377960205,-238783411,1,-0.45487719774246216,0.2438039481639862,0.8209636807441711,0.06103515625,7.14111328125,-41.68701171875
0.682929277420044,-238783392,1,-0.46976977586746216,0.2450246512889862,0.8522136807441711,14.5263671875,2.01416015625,-31.55517578125
0.7020139694213867,-238783377,0,-0.4843767583370209,0.2667654752731323,1.2675539255142212,21.3623046875,17.39501953125,-41.56494140625
0.722620964050293,-238783373,1,-0.5354436039924622,0.4225148856639862,0.8649089932441711,7.8125,-11.71875,-31.982421875
0.722628116607666,-238783354,1,-0.49833422899246216,0.5150442123413086,0.8434246182441711,-17.39501953125,-19.10400390625,-28.50341796875
0.7280271053314209,-238783358,0,-0.3898943364620209,0.3009451627731323,1.2411867380142212,-7.4462890625,6.7138671875,-45.166015625
0.7280609607696533,-238783339,0,-0.3957537114620209,0.15812289714813232,1.1510988473892212,-39.794921875,0.30517578125,-54.6875
0.7444071769714355,-238783335,1,-0.38187915086746216,0.4415578544139862,0.8763836026191711,-30.6396484375,-13.916015625,-30.517578125
0.7691760063171387,-238783320,0,-0.2631853520870209,0.046550631523132324,1.0588136911392212,-37.7197265625,-6.04248046875,-57.06787109375
0.7745280265808105,-238783316,1,-0.47880297899246216,0.2604055106639862,0.9193523526191711,-23.74267578125,-14.95361328125,-26.4892578125
0.7746400833129883,-238783297,1,-0.38480883836746216,0.2442922294139862,0.9310711026191711,0.732421875,-36.92626953125,-23.74267578125
0.7881662845611572,-238783301,0,-0.21215994656085968,0.08854281902313232,1.0514894723892212,-5.7373046875,8.30078125,-53.40576171875
0.7881779670715332,-238783282,0,-0.2688005864620209,0.14762485027313232,1.1884523630142212,26.9775390625,-1.89208984375,-34.7900390625
0.816180944442749,-238783278,1,-0.33817797899246216,0.2860402762889862,0.9669597744941711,19.83642578125,-54.443359375,-24.71923828125
0.8222160339355469,-238783263,0,-0.2922380864620209,0.06705844402313232,1.2438722848892212,44.189453125,-7.8125,-23.4375
0.822221040725708,-238783244,0,-0.2509783208370209,0.030437350273132324,1.1869875192642212,50.048828125,-10.3759765625,-21.240234375
0.834597110748291,-238783259,1,-0.28495532274246216,0.3900441825389862,0.9257000088691711,25.5126953125,-53.40576171875,-31.494140625
0.8346631526947021,-238783240,1,-0.34965258836746216,0.4447316825389862,0.9393718838691711,17.333984375,-44.00634765625,-30.76171875
0.8495831489562988,-238783225,0,-0.19946463406085968,0.15177524089813232,1.1664797067642212,54.62646484375,-1.5869140625,-26.67236328125
0.8719830513000488,-238783221,1,-0.37504321336746216,0.3766164481639862,0.9835613369941711,0.30517578125,-39.61181640625,-29.11376953125
0.8788161277770996,-238783206,0,-0.22949393093585968,0.2924002408981323,1.1435304880142212,45.95947265625,15.44189453125,-29.541015625
0.8788542747497559,-238783187,0,-0.2736833989620209,0.13761508464813232,1.1852785348892212,61.279296875,-10.55908203125,-23.37646484375
0.8928661346435547,-238783185,1,-0.37186938524246216,0.2008351981639862,0.9466961026191711,31.005859375,-65.0634765625,-15.13671875
0.925706148147583,-238783166,1,-0.31376391649246216,0.3307180106639862,0.8505046963691711,53.955078125,-49.49951171875,3.72314453125
0.9257121086120605,-238783147,1,-0.26566821336746216,0.3492726981639862,0.8629558682441711,69.2138671875,-55.48095703125,-3.96728515625
0.9396710395812988,-238783151,0,-0.20239432156085968,0.24235141277313232,1.1069093942642212,156.8603515625,-91.61376953125,1.0986328125
0.9397521018981934,-238783132,0,-0.07690604031085968,0.3226736783981323,0.925512969493866,180.5419921875,-146.78955078125,-8.056640625
0.9699809551239014,-238783128,1,-0.23856861889362335,0.5409231185913086,0.7377117276191711,71.10595703125,-27.40478515625,-9.521484375
0.9755499362945557,-238783113,0,-0.03051932528614998,0.5316580533981323,0.995581328868866,159.1796875,-92.8955078125,-5.92041015625
0.9755561351776123,-238783094,0,-0.09814627468585968,0.5416678190231323,1.0400148630142212,147.64404296875,-61.21826171875,-11.29150390625
0.9829912185668945,-238783109,1,-0.34232836961746216,0.4466848075389862,0.7743328213691711,74.15771484375,-6.34765625,-4.39453125
0.9830121994018555,-238783090,1,-0.32035571336746216,0.4530324637889862,0.7132976651191711,80.99365234375,14.5263671875,-10.31494140625
0.9994480609893799,-238783075,0,-0.05566580966114998,0.4637869596481323,0.951880156993866,145.6298828125,-47.05810546875,-30.94482421875
1.0219759941101074,-238783071,1,-0.23978932201862335,0.6031789779663086,0.6637371182441711,80.99365234375,5.67626953125,-20.01953125
1.029731035232544,-238783056,0,-0.05883963778614998,0.4779471158981323,0.844214141368866,151.3671875,-51.94091796875,-29.72412109375
1.029750108718872,-238783037,0,0.00048653408885002136,0.5367850065231323,0.846899688243866,165.0390625,-65.673828125,-33.38623046875
1.0446510314941406,-238783052,1,-0.17484791576862335,0.5890188217163086,0.6700847744941711,77.1484375,10.92529296875,-34.0576171875
1.0446820259094238,-238783033,1,-0.34403735399246216,0.5511770248413086,0.6525066494941711,65.49072265625,23.49853515625,-13.00048828125
1.0697441101074219,-238783018,0,0.011717002838850021,0.6002615690231323,0.831030547618866,162.9638671875,-58.65478515625,-31.8603515625
1.0747170448303223,-238783014,1,-0.19852955639362335,0.5782766342163086,0.7591961026191711,63.41552734375,7.87353515625,12.02392578125
1.0747849941253662,-238782995,1,-0.19047291576862335,0.6566457748413086,0.6952312588691711,77.880859375,22.94921875,47.79052734375
1.0884699821472168,-238782999,0,0.10888497531414032,0.6495779752731323,0.832983672618866,160.15625,-55.72509765625,-39.9169921875
1.088482141494751,-238782980,0,0.10668770968914032,0.6915701627731323,0.757544219493866,136.5966796875,-27.587890625,-62.68310546875
1.1179330348968506,-238782976,1,-0.21122486889362335,0.6000051498413086,0.46305352449417114,75.0732421875,35.888671875,80.810546875
1.1243419647216797,-238782961,0,0.03491036221385002,0.6268728971481323,0.715552031993866,111.083984375,-13.85498046875,-50.537109375
1.1345672607421875,-238782957,1,-0.38798266649246216,0.7391653060913086,0.6532390713691711,55.11474609375,55.72509765625,59.9365234375
1.1496751308441162,-238782942,0,-0.04443534091114998,0.6334646940231323,0.778296172618866,97.10693359375,2.25830078125,-35.400390625
1.149704933166504,-238782923,0,-0.02734549716114998,0.6659353971481323,0.785864531993866,78.4912109375,8.60595703125,-26.55029296875
1.171424150466919,-238782921,1,-0.45414477586746216,0.8331594467163086,0.7074382901191711,26.4892578125,75.8056640625,36.1328125
1.1803820133209229,-238782887,0,-0.04126151278614998,0.6937674283981323,0.616919219493866,7.38525390625,33.5693359375,11.53564453125
1.193000078201294,-238782902,1,-0.45487719774246216,0.8382863998413086,0.7967937588691711,-2.8076171875,31.06689453125,44.73876953125
1.1930339336395264,-238782883,1,-0.32499438524246216,0.7931203842163086,0.7277019619941711,-15.2587890625,6.103515625,57.92236328125
1.220738172531128,-238782868,0,0.13403145968914032,0.7311209440231323,0.791723906993866,1.708984375,26.91650390625,23.92578125
1.2258601188659668,-238782864,1,-0.23148854076862335,0.7206106185913086,0.7775066494941711,-6.7138671875,-3.0517578125,86.97509765625
1.2258660793304443,-238782845,1,-0.41727954149246216,0.6202688217163086,0.8448894619941711,14.0380859375,-10.498046875,125.9765625
1.2396879196166992,-238782849,0,0.06518380343914032,0.6725271940231323,0.746069610118866,42.78564453125,8.85009765625,27.099609375
1.2397181987762451,-238782830,0,0.06664864718914032,0.7194021940231323,0.714819610118866,78.4912109375,28.076171875,13.12255859375
1.268484115600586,-238782826,1,-0.21415455639362335,0.5716848373413086,0.8212078213691711,54.8095703125,-30.76171875,92.83447265625
1.2739062309265137,-238782811,0,0.06371895968914032,0.8007010221481323,0.713110625743866,94.17724609375,34.36279296875,-1.220703125
1.2847223281860352,-238782807,1,-0.15971119701862335,0.7865285873413086,0.8297527432441711,63.1103515625,-41.8701171875,67.81005859375
1.2847349643707275,-238782788,1,-0.14091236889362335,0.8490285873413086,0.7775066494941711,50.35400390625,-44.0673828125,62.98828125
1.2980620861053467,-238782792,0,0.07201974093914032,0.8002127408981323,0.655249297618866,106.689453125,34.36279296875,-1.0986328125
1.298126220703125,-238782773,0,0.05370919033885002,0.8444021940231323,0.631079375743866,116.76025390625,34.912109375,-3.0517578125
1.3225290775299072,-238782769,1,-0.08183033764362335,0.7828664779663086,0.7377117276191711,35.21728515625,-62.80517578125,84.1064453125
1.329577922821045,-238782754,0,0.09789864718914032,0.8707693815231323,0.562475860118866,116.88232421875,33.69140625,-10.25390625
1.3296241760253906,-238782735,0,0.10595528781414032,0.8839529752731323,0.533667266368866,94.78759765625,43.5791015625,-30.517578125
1.3444721698760986,-238782750,1,-0.04789479076862335,0.7577199935913086,0.7552898526191711,25.7568359375,-118.59130859375,137.8173828125
1.3445351123809814,-238782731,1,-0.10160572826862335,0.7975149154663086,0.6942546963691711,16.11328125,-165.95458984375,165.10009765625
1.3671560287475586,-238782716,0,0.10058419406414032,0.8898123502731323,0.503637969493866,74.5849609375,51.025390625,-33.203125
1.3746721744537354,-238782712,1,0.005327865481376648,0.8446340560913086,0.6803386807441711,2.5634765625,-134.033203125,108.82568359375
1.3746881484985352,-238782693,1,0.09199778735637665,0.7672414779663086,0.6273601651191711,1.89208984375,-76.66015625,33.14208984375
1.392181158065796,-238782697,0,0.03198067471385002,0.8529471158981323,0.585913360118866,65.0634765625,47.119140625,-31.43310546875
1.392190933227539,-238782678,0,0.03368965908885002,0.8207205533981323,0.536108672618866,74.21875,48.52294921875,-27.34375
1.4235711097717285,-238782659,0,-0.01904471591114998,0.8153494596481323,0.48874539136886597,81.60400390625,38.39111328125,-26.4892578125
1.435560941696167,-238782657,1,0.12886302173137665,0.7779836654663086,0.5944011807441711,30.8837890625,-72.998046875,21.91162109375
1.435570240020752,-238782638,1,0.13716380298137665,0.7567434310913086,0.5709636807441711,36.2548828125,-70.61767578125,26.123046875
1.4498651027679443,-238782623,0,-0.0014665909111499786,0.8395193815231323,0.45969265699386597,64.51416015625,37.65869140625,-16.66259765625
1.4731330871582031,-238782619,1,0.14766184985637665,0.7123098373413086,0.47745782136917114,52.8564453125,-38.14697265625,15.13671875
1.4806761741638184,-238782604,0,0.04662911221385002,0.8961600065231323,0.42233914136886597,43.39599609375,30.8837890625,-15.625
1.480682134628296,-238782585,0,0.02758614346385002,0.8876150846481323,0.37448757886886597,9.3994140625,36.9873046875,-25.81787109375
1.494171142578125,-238782600,1,0.17012278735637665,0.7733449935913086,0.40494805574417114,67.2607421875,-22.88818359375,13.12255859375
1.4941859245300293,-238782581,1,0.12910716235637665,0.8426809310913086,0.37369805574417114,72.1435546875,-0.42724609375,19.53125
1.519576072692871,-238782566,0,0.02734200283885002,0.8182791471481323,0.36618679761886597,-4.69970703125,40.10009765625,-30.517578125
1.528670072555542,-238782562,1,0.11616770923137665,0.8321828842163086,0.40983086824417114,69.51904296875,14.22119140625,12.6953125
1.528677225112915,-238782543,1,0.10859934985637665,0.7489309310913086,0.42570000886917114,51.33056640625,17.08984375,3.5400390625
1.5396981239318848,-238782547,0,0.009031455963850021,0.7799490690231323,0.35129421949386597,-1.28173828125,36.1328125,-25.390625
1.5397329330444336,-238782528,0,0.03661934658885002,0.7594412565231323,0.34519070386886597,13.73291015625,36.92626953125,-18.73779296875
1.5670442581176758,-238782524,1,0.11421458423137665,0.7347707748413086,0.40763360261917114,35.46142578125,12.3291015625,3.41796875
1.5747849941253662,-238782509,0,0.06811349093914032,0.7821463346481323,0.35349148511886597,17.822265625,36.865234375,-18.24951171875
1.5845601558685303,-238782505,1,0.09102122485637665,0.8048391342163086,0.29386407136917114,25.57373046875,1.77001953125,6.34765625
1.584609031677246,-238782486,1,0.10298411548137665,0.8146047592163086,0.30118829011917114,4.45556640625,2.197265625,9.46044921875
1.5981969833374023,-238782490,0,0.10204903781414032,0.7784842252731323,0.31296414136886597,12.6953125,51.94091796875,-25.0244140625
1.5982201099395752,-238782471,0,0.07885567843914032,0.7579764127731323,0.33347195386886597,-12.26806640625,68.66455078125,-40.283203125
1.6228930950164795,-238782467,1,0.06025950610637665,0.7584524154663086,0.28605157136917114,-9.46044921875,7.080078125,2.5634765625
1.6295630931854248,-238782452,0,0.05859200283885002,0.7296561002731323,0.33322781324386597,-39.6728515625,77.5146484375,-57.6171875
1.6445302963256836,-238782448,1,0.016314193606376648,0.7633352279663086,0.27897149324417114,-15.2587890625,9.82666015625,-13.18359375
1.6446049213409424,-238782429,1,-0.026166275143623352,0.8971242904663086,0.24064140021800995,-32.958984375,-21.30126953125,-25.0244140625
1.6687769889831543,-238782433,0,0.07714669406414032,0.6735037565231323,0.35422390699386597,-66.83349609375,77.45361328125,-78.7353515625
1.6687822341918945,-238782414,0,0.08007638156414032,0.6193045377731323,0.37619656324386597,-102.294921875,80.6884765625,-114.80712890625
1.6745619773864746,-238782393,1,0.32246655225753784,0.7213430404663086,0.35831719636917114,-110.65673828125,-21.91162109375,-37.109375
1.6896178722381592,-238782395,0,0.02416817471385002,0.6669119596481323,0.47043484449386597,-129.5166015625,119.7509765625,-123.6572265625
1.715041160583496,-238782374,1,0.25557202100753784,0.6324758529663086,0.36051446199417114,-121.64306640625,2.99072265625,-16.90673828125
1.7205770015716553,-238782359,0,-0.05175955966114998,0.7355154752731323,0.46994656324386597,-164.1845703125,102.6611328125,-108.7646484375
1.7323100566864014,-238782355,1,0.12373606860637665,0.6869192123413086,0.47208672761917114,-108.82568359375,49.74365234375,-18.798828125
1.7339141368865967,-238782336,1,-0.22196705639362335,0.9640188217163086,0.7089031338691711,-98.32763671875,78.43017578125,-32.5927734375
1.7495789527893066,-238782340,0,-0.17773611843585968,0.6783865690231323,0.42355984449386597,-187.98828125,70.068359375,-94.23828125
1.7496421337127686,-238782321,0,-0.3110369145870209,0.7460135221481323,0.40915554761886597,-214.35546875,47.9736328125,-91.00341796875
1.7712740898132324,-238782317,1,-0.34428149461746216,0.7311086654663086,0.7501628994941711,-102.294921875,-8.97216796875,-46.44775390625
1.7811310291290283,-238782302,0,-0.21655447781085968,0.6385916471481323,0.673315703868866,-227.5390625,23.681640625,-114.013671875
1.781137228012085,-238782283,0,-0.02221854403614998,0.4747732877731323,1.0204836130142212,-216.97998046875,38.14697265625,-125.244140625
1.7945420742034912,-238782298,1,-0.13358815014362335,0.8519582748413086,0.6464031338691711,-115.6005859375,-47.05810546875,-51.3916015625
1.7945730686187744,-238782279,1,0.011187240481376648,0.6459035873413086,0.6180828213691711,-121.09375,-56.2744140625,-21.240234375
1.818099021911621,-238782264,0,-0.08960135281085968,0.4999197721481323,1.0505129098892212,-183.04443359375,99.12109375,-121.826171875
1.8236470222473145,-238782260,1,0.15034739673137665,0.8038625717163086,0.6825359463691711,-90.33203125,-27.9541015625,2.13623046875
1.8382689952850342,-238782245,0,-0.12036307156085968,0.5558279752731323,1.0380617380142212,-173.76708984375,133.30078125,-114.68505859375
1.8383102416992188,-238782226,0,-0.13476736843585968,0.6219900846481323,0.983130156993866,-144.4091796875,114.501953125,-140.2587890625
1.8671422004699707,-238782241,1,0.04463450610637665,0.9127492904663086,0.6664226651191711,-67.56591796875,30.029296875,-9.27734375
1.8671491146087646,-238782222,1,-0.19706471264362335,0.9740285873413086,0.6798503994941711,-26.611328125,57.861328125,-9.1552734375
1.8746140003204346,-238782207,0,-0.22973807156085968,0.4669607877731323,1.0011965036392212,-117.12646484375,62.3779296875,-195.6787109375
1.8830342292785645,-238782203,1,-0.32011157274246216,1.1275930404663086,0.6444500088691711,-26.611328125,51.513671875,-3.173828125
1.883120059967041,-238782184,1,-0.41630297899246216,1.1593313217163086,0.6212566494941711,-60.791015625,-0.54931640625,32.71484375
1.898097276687622,-238782188,0,-0.3117693364620209,0.3312186002731323,1.0920168161392212,-77.880859375,8.544921875,-187.56103515625
1.898151159286499,-238782169,0,-0.2702654302120209,0.2772635221481323,1.1923586130142212,-45.166015625,8.544921875,-160.94970703125
1.9227421283721924,-238782165,1,-0.32743579149246216,1.0509328842163086,0.6039226651191711,-82.21435546875,-33.0810546875,47.7294921875
1.9279701709747314,-238782150,0,-0.2846697270870209,0.2992361783981323,1.2621828317642212,-18.798828125,25.146484375,-139.83154296875
1.9429740905761719,-238782129,1,-0.22758229076862335,0.9527883529663086,0.5926921963691711,-43.51806640625,16.05224609375,43.39599609375
1.9724900722503662,-238782131,0,-0.4133318364620209,0.3256033658981323,1.3007570505142212,-8.7890625,27.2216796875,-147.216796875
1.9774651527404785,-238782110,1,-0.30814868211746216,0.9845266342163086,0.6715496182441711,-14.7705078125,60.85205078125,37.353515625
1.989703893661499,-238782095,0,-0.5258806347846985,0.19059360027313232,1.2704836130142212,-2.5634765625,-15.68603515625,-124.755859375
1.989732027053833,-238782076,0,-0.6013200879096985,0.07169711589813232,1.2629152536392212,1.77001953125,-31.06689453125,-110.83984375
2.0164871215820312,-238782091,1,-0.36991626024246216,0.9911184310913086,0.7025554776191711,-5.2490234375,75.01220703125,38.02490234375
2.0177509784698486,-238782072,1,-0.33476001024246216,0.9391164779663086,0.7262371182441711,-23.4375,59.38720703125,51.08642578125
2.022348165512085,-238782057,0,-0.5622575879096985,0.11198031902313232,1.2685304880142212,2.3193359375,-43.39599609375,-101.318359375
2.0345211029052734,-238782053,1,-0.25224047899246216,0.8692922592163086,0.7294109463691711,-38.0859375,42.54150390625,58.28857421875
2.034553050994873,-238782034,1,-0.08451588451862335,0.7584524154663086,0.7208660244941711,-49.1943359375,44.43359375,68.603515625
2.0497641563415527,-238782038,0,-0.5168474316596985,0.16617953777313232,1.1955324411392212,-1.708984375,-25.45166015625,-118.46923828125
2.049840211868286,-238782019,0,-0.6574724316596985,-0.011066555976867676,1.0641847848892212,-2.3193359375,-21.1181640625,-128.60107421875
2.0716450214385986,-238782015,1,-0.024701431393623352,0.6139211654663086,0.7506511807441711,-47.79052734375,59.08203125,63.78173828125
2.079747200012207,-238782000,0,-0.6806657910346985,-0.08723843097686768,1.0094972848892212,12.26806640625,-42.29736328125,-103.02734375
2.0946550369262695,-238781996,1,0.023638412356376648,0.5431203842163086,0.8219402432441711,-40.22216796875,63.78173828125,39.794921875
2.094672203063965,-238781977,1,0.006548568606376648,0.5204153060913086,0.8776043057441711,-37.4755859375,57.9833984375,19.71435546875
2.118511199951172,-238781981,0,-0.7248552441596985,-0.07136929035186768,0.915503203868866,30.1513671875,-65.97900390625,-56.09130859375
2.1185169219970703,-238781962,0,-0.7170427441596985,0.014079928398132324,1.0248781442642212,37.41455078125,-66.22314453125,-33.14208984375
2.1237142086029053,-238781958,1,0.008501693606376648,0.5948781967163086,0.8507488369941711,-29.72412109375,49.37744140625,19.04296875
2.1395981311798096,-238781943,0,-0.7690446972846985,0.09562289714813232,1.0944582223892212,31.005859375,-43.212890625,-41.68701171875
2.1396732330322266,-238781924,0,-0.7448747754096985,-0.008869290351867676,1.0419679880142212,31.3720703125,-26.611328125,-57.92236328125
2.1691830158233643,-238781939,1,0.03755442798137665,0.6014699935913086,0.8832195401191711,-23.4375,60.24169921875,46.81396484375
2.169189214706421,-238781920,1,0.12227122485637665,0.4913625419139862,0.9381511807441711,-23.3154296875,77.57568359375,67.0166015625
2.17596697807312,-238781905,0,-0.7390154004096985,-0.09431850910186768,0.914038360118866,47.8515625,-27.16064453125,-46.9970703125
2.1844122409820557,-238781901,1,0.11787669360637665,0.4071340262889862,0.9557293057441711,-18.49365234375,81.97021484375,55.0537109375
2.1996541023254395,-238781886,0,-0.8027361035346985,-0.032306790351867676,0.906225860118866,56.0302734375,-36.7431640625,-15.625
2.1997220516204834,-238781867,0,-0.7885759472846985,0.037517428398132324,1.0304933786392212,44.0673828125,-42.236328125,-17.7001953125
2.221856117248535,-238781865,1,0.05586497485637665,0.4684133231639862,1.0211589336395264,-23.92578125,63.53759765625,23.681640625
2.2428321838378906,-238781846,1,0.07246653735637665,0.5106496810913086,1.0514323711395264,-36.43798828125,56.884765625,39.24560546875
2.244511127471924,-238781827,1,0.15718333423137665,0.3697805106639862,1.0702311992645264,-39.85595703125,62.744140625,51.69677734375
2.2682101726531982,-238781831,0,-0.7827165722846985,0.025554537773132324,0.972632110118866,9.70458984375,-21.54541015625,-34.66796875
2.2682151794433594,-238781812,0,-0.7304704785346985,-0.049884915351867676,0.813696563243866,-5.4931640625,-21.240234375,-40.10009765625
2.274430990219116,-238781808,1,0.17329661548137665,0.2638234794139862,1.0546061992645264,-23.49853515625,69.3359375,39.85595703125
2.28969407081604,-238781793,0,-0.7377946972846985,-0.07503139972686768,0.784155547618866,-12.63427734375,-52.30712890625,-23.01025390625
2.2897651195526123,-238781774,0,-0.7329118847846985,-0.025714993476867676,0.870093047618866,-21.6064453125,-88.31787109375,-0.8544921875
2.3182320594787598,-238781789,1,0.11250559985637665,0.3231496512889862,0.9628093838691711,1.953125,61.21826171875,17.02880859375
2.318240165710449,-238781770,1,0.10078684985637665,0.4171437919139862,0.9110515713691711,7.568359375,47.18017578125,8.11767578125
2.32391619682312,-238781755,0,-0.6662614941596985,-0.054035305976867676,0.893286406993866,-37.04833984375,-108.09326171875,3.47900390625
2.334437131881714,-238781751,1,0.011675521731376648,0.4857473075389862,0.8429363369941711,-3.96728515625,33.3251953125,14.0380859375
2.3497390747070312,-238781736,0,-0.5217302441596985,-0.18904507160186768,0.983374297618866,-49.6826171875,-123.779296875,8.36181640625
2.3498260974884033,-238781717,0,-0.3784197270870209,0.06266391277313232,0.865698516368866,-70.00732421875,-109.619140625,24.96337890625
2.372474193572998,-238781732,1,-0.003705337643623352,0.3993215262889862,0.7777507901191711,-17.27294921875,21.17919921875,19.71435546875
2.3724820613861084,-238781713,1,0.08223216235637665,0.3280324637889862,0.7152507901191711,-12.02392578125,17.7001953125,9.21630859375
2.3798301219940186,-238781698,0,-0.5036638379096985,0.09855258464813232,0.747778594493866,-59.99755859375,-38.4521484375,44.3115234375
2.394630193710327,-238781694,1,0.12324778735637665,0.3448781669139862,0.7128093838691711,-5.06591796875,18.5546875,7.01904296875
2.3946690559387207,-238781675,1,0.11299388110637665,0.3707570731639862,0.7411296963691711,-10.80322265625,20.263671875,3.96728515625
2.4189271926879883,-238781679,0,-0.4499529302120209,-0.046711087226867676,0.843237578868866,-31.06689453125,-29.35791015625,37.29248046875
2.4189341068267822,-238781660,0,-0.4250505864620209,-0.032795071601867676,0.908423125743866,-7.26318359375,-24.47509765625,29.35791015625
2.423727035522461,-238781656,1,0.04683177173137665,0.3812551200389862,0.7250164151191711,-19.22607421875,25.146484375,-0.54931640625
2.4396979808807373,-238781641,0,-0.3750017583370209,-0.011798977851867676,0.945532500743866,-3.90625,-8.60595703125,53.3447265625
2.4666590690612793,-238781637,1,-0.004193618893623352,0.4068898856639862,0.6913250088691711,-26.79443359375,19.59228515625,4.94384765625
2.473694086074829,-238781622,0,-0.3498552739620209,0.037761569023132324,0.993628203868866,-10.6201171875,7.080078125,64.14794921875
2.473701238632202,-238781603,0,-0.3491228520870209,0.029949069023132324,1.0024172067642212,-18.4326171875,15.869140625,63.8427734375
2.4845681190490723,-238781601,1,0.001909896731376648,0.3685598075389862,0.7032878994941711,-38.2080078125,11.77978515625,10.25390625
2.4994759559631348,-238781567,0,-0.2944353520870209,0.060954928398132324,0.996069610118866,-13.916015625,-2.86865234375,72.6318359375
2.5237581729888916,-238781582,1,-0.006390884518623352,0.3402394950389862,0.7062175869941711,-41.8701171875,10.31494140625,4.69970703125
2.5237650871276855,-238781563,1,-0.03422291576862335,0.3207082450389862,0.7106121182441711,-45.0439453125,8.7890625,-3.7841796875
2.5297322273254395,-238781548,0,-0.17895682156085968,0.051433444023132324,1.0624758005142212,5.9814453125,-19.59228515625,63.3544921875
2.544849157333374,-238781544,1,-0.08720143139362335,0.3324269950389862,0.7013347744941711,-46.32568359375,8.6669921875,-18.06640625
2.544861078262329,-238781525,1,-0.11259205639362335,0.4298391044139862,0.7899578213691711,-43.0908203125,1.3427734375,-34.7900390625
2.5696160793304443,-238781529,0,-0.18506033718585968,0.042888522148132324,1.1618410348892212,25.32958984375,-15.44189453125,42.78564453125
2.569622039794922,-238781510,0,-0.12451346218585968,0.025066256523132324,1.1611086130142212,29.23583984375,-0.244140625,31.25
2.575371026992798,-238781506,1,-0.12992604076862335,0.5077199935913086,0.7635906338691711,-48.7060546875,-0.54931640625,-39.73388671875
2.5894153118133545,-238781491,0,-0.09619314968585968,0.0026053190231323242,1.2167726755142212,24.59716796875,23.3154296875,42.1142578125
2.6173481941223145,-238781487,1,-0.14799244701862335,0.5021047592163086,0.7704265713691711,-52.1240234375,-12.5732421875,-34.24072265625
2.6173529624938965,-238781468,1,-0.08451588451862335,0.4879445731639862,0.7589519619941711,-58.837890625,-32.65380859375,-15.869140625
2.6228291988372803,-238781472,0,-0.17578299343585968,0.014324069023132324,1.2096925973892212,13.48876953125,35.0341796875,75.5615234375
2.6228342056274414,-238781453,0,-0.17627127468585968,0.033855319023132324,1.2409425973892212,-6.103515625,55.908203125,71.10595703125
2.633219003677368,-238781449,1,0.010698959231376648,0.4652394950389862,0.7821453213691711,-60.11962890625,-32.470703125,-4.39453125
2.648224115371704,-238781434,0,-0.16528494656085968,0.07828891277313232,1.2553468942642212,-18.4326171875,49.98779296875,60.48583984375
2.6482391357421875,-238781415,0,-0.09643729031085968,0.054118990898132324,1.2201906442642212,-16.78466796875,45.83740234375,65.185546875
2.6704492568969727,-238781430,1,-0.015179947018623352,0.4313039481639862,0.8282878994941711,-54.443359375,-20.08056640625,-16.29638671875
2.670454978942871,-238781411,1,-0.10844166576862335,0.4862355887889862,0.8497722744941711,-46.5087890625,-19.1650390625,-36.0107421875
2.678236246109009,-238781396,0,-0.13159354031085968,-0.007160305976867676,1.2099367380142212,-9.46044921875,34.72900390625,70.73974609375
2.693005084991455,-238781392,1,-0.11137135326862335,0.5550832748413086,0.8634441494941711,-47.79052734375,-28.80859375,-29.96826171875
2.6930220127105713,-238781373,1,-0.014935806393623352,0.5221242904663086,0.8661296963691711,-54.8095703125,-34.60693359375,-4.39453125
2.7172200679779053,-238781377,0,-0.10547049343585968,0.053386569023132324,1.2397218942642212,-12.5732421875,39.36767578125,68.54248046875
2.717226028442383,-238781358,0,-0.012941200286149979,0.11588656902313232,1.3017336130142212,-19.10400390625,58.89892578125,60.9130859375
2.7374682426452637,-238781339,0,-0.03344901278614998,0.08414828777313232,1.2726808786392212,-29.296875,82.21435546875,49.1943359375
2.7658040523529053,-238781337,1,-0.08671315014362335,0.4764699637889862,0.9369304776191711,-38.9404296875,-10.55908203125,-20.751953125
2.7671260833740234,-238781318,1,-0.16776783764362335,0.5978078842163086,0.9405925869941711,-30.2734375,-8.4228515625,-30.57861328125
2.7701120376586914,-238781303,0,-0.11767752468585968,-0.034992337226867676,1.2380129098892212,-18.5546875,75.62255859375,51.7578125
2.7846572399139404,-238781299,1,-0.19071705639362335,0.6881399154663086,0.9481609463691711,-27.64892578125,-6.16455078125,-15.93017578125
2.7996652126312256,-238781284,0,-0.08960135281085968,0.010173678398132324,1.2599855661392212,0.1220703125,58.04443359375,64.0869140625
2.799696207046509,-238781265,0,-0.004884559661149979,0.033611178398132324,1.3600832223892212,17.39501953125,48.15673828125,52.06298828125
2.8221120834350586,-238781280,1,-0.20194752514362335,0.6996145248413086,0.9952800869941711,-30.029296875,-7.01904296875,6.65283203125
2.8221182823181152,-238781261,1,-0.19486744701862335,0.6620168685913086,1.0238444805145264,-29.11376953125,-4.69970703125,8.72802734375
2.829493999481201,-238781246,0,0.014646690338850021,0.07462680339813232,1.4196535348892212,13.85498046875,61.5234375,31.3720703125
2.844656229019165,-238781242,1,-0.19486744701862335,0.6788625717163086,1.0270183086395264,-23.4375,2.99072265625,3.7841796875
2.8447213172912598,-238781223,1,-0.23563893139362335,0.7391653060913086,1.0506999492645264,-18.06640625,8.544921875,-0.18310546875
2.8718230724334717,-238781227,0,0.02978340908885002,0.10074985027313232,1.4313722848892212,-1.40380859375,87.09716796875,22.5830078125
2.8718719482421875,-238781208,0,0.011228721588850021,0.031658053398132324,1.4162355661392212,-11.04736328125,94.29931640625,29.60205078125
2.876828193664551,-238781204,1,-0.27396899461746216,0.8124074935913086,1.0677897930145264,-14.6484375,13.48876953125,3.90625
2.889573097229004,-238781189,0,0.04150215908885002,0.020915865898132324,1.4325929880142212,-3.41796875,81.1767578125,49.4384765625
2.917915105819702,-238781185,1,-0.28861743211746216,0.7867727279663086,1.1427409648895264,-9.765625,22.27783203125,17.88330078125
2.9179210662841797,-238781166,1,-0.27177172899246216,0.7787160873413086,1.1896159648895264,9.521484375,30.029296875,32.04345703125
2.924870252609253,-238781170,0,0.11254708468914032,0.11051547527313232,1.5756593942642212,20.20263671875,64.3310546875,62.43896484375
2.924875020980835,-238781151,0,0.15844552218914032,0.21061313152313232,1.6069093942642212,40.22216796875,67.7490234375,46.08154296875
2.9328620433807373,-238781147,1,-0.25541430711746216,0.6776418685913086,1.2416179180145264,10.19287109375,37.17041015625,36.56005859375
2.9500510692596436,-238781132,0,0.20214669406414032,0.13566195964813232,1.5746828317642212,36.80419921875,88.80615234375,20.263671875
2.950057029724121,-238781113,0,0.16869942843914032,0.10123813152313232,1.5290285348892212,35.21728515625,109.7412109375,8.1787109375
2.973129987716675,-238781128,1,-0.23759205639362335,0.6571340560913086,1.3185222148895264,8.4228515625,37.04833984375,45.95947265625
2.97409725189209,-238781109,1,-0.15385182201862335,0.5709524154663086,1.4679362773895264,9.3994140625,35.15625,49.86572265625
2.9797229766845703,-238781094,0,0.15405099093914032,0.054851412773132324,1.4833742380142212,36.9873046875,120.60546875,-1.03759765625
2.994473934173584,-238781073,1,-0.12992604076862335,0.4427785575389862,1.4774577617645264,34.3017578125,34.97314453125,40.771484375
3.0190351009368896,-238781075,0,0.16796700656414032,0.043620944023132324,1.4450441598892212,41.1376953125,118.46923828125,-1.0986328125
3.0244059562683105,-238781054,1,-0.09110768139362335,0.3876027762889862,1.3656413555145264,64.88037109375,21.66748046875,30.8837890625
3.0380570888519287,-238781039,0,0.15160958468914032,-0.007160305976867676,1.2475343942642212,60.24169921875,116.5771484375,3.5400390625
3.0679192543029785,-238781035,1,-0.05521900951862335,0.3817434012889862,1.2560222148895264,87.0361328125,20.69091796875,21.30126953125
3.067924976348877,-238781016,1,-0.03446705639362335,0.3856496512889862,1.1271159648895264,100.09765625,21.54541015625,18.6767578125
3.0727219581604004,-238781020,0,0.14257638156414032,0.004314303398132324,1.1264406442642212,72.998046875,109.9853515625,2.3193359375
3.0727272033691406,-238781001,0,0.11523263156414032,0.032878756523132324,1.0815187692642212,76.96533203125,105.224609375,-2.5634765625
3.084792137145996,-238780997,1,-0.006146743893623352,0.3578176200389862,1.0214030742645264,98.08349609375,24.59716796875,17.15087890625
3.0995702743530273,-238780982,0,0.10351388156414032,0.014812350273132324,1.0356203317642212,70.3125,94.78759765625,-10.19287109375
3.099658966064453,-238780963,0,0.07714669406414032,-0.0030099153518676758,0.998266875743866,57.373046875,83.8623046875,-10.43701171875
3.121913194656372,-238780978,1,0.018999740481376648,0.3309621512889862,0.9347332119941711,92.83447265625,26.611328125,8.11767578125
3.1219232082366943,-238780959,1,0.021685287356376648,0.3075246512889862,0.8605144619941711,90.087890625,28.076171875,-1.03759765625
3.129690170288086,-238780944,0,0.03368965908885002,0.011150240898132324,0.978003203868866,44.37255859375,78.61328125,-10.31494140625
3.143091917037964,-238780940,1,0.016070052981376648,0.3104543387889862,0.7963054776191711,87.21923828125,32.2265625,-13.671875
3.168185234069824,-238780925,0,0.02685372158885002,-0.0020333528518676758,0.958716094493866,35.21728515625,77.57568359375,-13.48876953125
3.168192148208618,-238780906,0,0.0024396590888500214,-0.009601712226867676,0.925512969493866,27.83203125,74.8291015625,-17.578125
3.1744701862335205,-238780921,1,-0.014203384518623352,0.3392629325389862,0.7406414151191711,81.72607421875,30.21240234375,-19.6533203125
3.1745269298553467,-238780902,1,-0.014691665768623352,0.3502492606639862,0.6881511807441711,75.50048828125,22.64404296875,-17.578125
3.1893110275268555,-238780887,0,-0.02026541903614998,-0.027179837226867676,0.893774688243866,22.216796875,66.46728515625,-20.56884765625
3.206033945083618,-238780883,1,-0.014203384518623352,0.3273000419139862,0.6488445401191711,67.9931640625,15.44189453125,-11.8408203125
3.2060420513153076,-238780864,1,0.022173568606376648,0.2970266044139862,0.6193035244941711,58.7158203125,10.6201171875,-15.2587890625
3.2261950969696045,-238780868,0,-0.02832205966114998,-0.016193509101867676,0.866675078868866,14.09912109375,60.97412109375,-20.93505859375
3.226201057434082,-238780849,0,-0.04004080966114998,-0.015705227851867676,0.829809844493866,1.03759765625,52.3681640625,-17.4560546875
3.233474016189575,-238780845,1,0.03706614673137665,0.2970266044139862,0.5753582119941711,53.40576171875,12.02392578125,-24.169921875
3.2524871826171875,-238780830,0,-0.05005057528614998,-0.016681790351867676,0.825659453868866,-9.3994140625,48.52294921875,-18.6767578125
3.2720141410827637,-238780809,1,-0.002728775143623352,0.3334035575389862,0.5157878994941711,44.12841796875,17.578125,-39.6728515625
3.2798452377319336,-238780811,0,-0.06884939968585968,-0.026691555976867676,0.816870391368866,-20.44677734375,48.03466796875,-24.2919921875
3.295346260070801,-238780790,1,-0.04887135326862335,0.3790578544139862,0.5074871182441711,30.70068359375,15.2587890625,-40.83251953125
3.318570137023926,-238780775,0,-0.13134939968585968,-0.046711087226867676,0.830298125743866,-28.3203125,24.35302734375,-23.92578125
3.3185760974884033,-238780756,0,-0.12890799343585968,-0.055500149726867676,0.858862578868866,-28.1982421875,16.41845703125,-17.2119140625
3.324587106704712,-238780771,1,-0.05692799389362335,0.3949269950389862,0.5118816494941711,20.3857421875,11.23046875,-38.14697265625
3.3246169090270996,-238780752,1,-0.03519947826862335,0.4027394950389862,0.48624688386917114,11.474609375,5.18798828125,-30.82275390625
3.3412652015686035,-238780737,0,-0.15503104031085968,-0.050373196601867676,0.929663360118866,-24.658203125,10.25390625,-6.7138671875
3.36682391166687,-238780733,1,-0.027875259518623352,0.3827199637889862,0.49283868074417114,5.615234375,2.01416015625,-26.91650390625
3.3668341636657715,-238780714,1,-0.03764088451862335,0.3902883231639862,0.5128582119941711,-3.96728515625,-0.6103515625,-33.38623046875
3.3729569911956787,-238780718,0,-0.13452322781085968,-0.008381009101867676,1.0092531442642212,-30.94482421875,14.5263671875,-3.72314453125
3.3729631900787354,-238780699,0,-0.13403494656085968,0.042644381523132324,1.0563722848892212,-43.3349609375,21.91162109375,-15.44189453125
3.3845200538635254,-238780695,1,-0.05155690014362335,0.4054250419139862,0.5135906338691711,-13.85498046875,0.9765625,-43.0908203125
3.3996360301971436,-238780680,0,-0.13989432156085968,0.012370944023132324,1.0644289255142212,-50.9033203125,23.01025390625,-30.21240234375
3.4209141731262207,-238780676,1,-0.08353932201862335,0.4442434012889862,0.5209148526191711,-20.751953125,-0.8544921875,-53.7109375
3.4209201335906982,-238780657,1,-0.12943775951862335,0.4935598075389862,0.5406902432441711,-22.3388671875,7.080078125,-57.18994140625
3.4297289848327637,-238780661,0,-0.14355643093585968,-0.047443509101867676,1.0976320505142212,-52.001953125,22.4609375,-34.36279296875
3.4298391342163086,-238780642,0,-0.13232596218585968,-0.08845913410186768,1.1603761911392212,-48.40087890625,16.29638671875,-21.91162109375
3.4427950382232666,-238780638,1,-0.14823658764362335,0.5265188217163086,0.5558269619941711,-20.69091796875,14.404296875,-52.6123046875
3.471389055252075,-238780623,0,-0.10620291531085968,-0.034748196601867676,1.2079836130142212,-46.38671875,21.484375,-12.20703125
3.4713971614837646,-238780604,0,-0.09301932156085968,-0.020588040351867676,1.2092043161392212,-46.2646484375,28.74755859375,-18.310546875
3.4771809577941895,-238780619,1,-0.15165455639362335,0.5194387435913086,0.5985515713691711,-20.20263671875,8.9111328125,-41.07666015625
3.4771862030029297,-238780600,1,-0.14701588451862335,0.4964894950389862,0.6151531338691711,-25.45166015625,1.708984375,-38.4521484375
3.489470958709717,-238780585,0,-0.08227713406085968,-0.040363430976867676,1.1767336130142212,-46.32568359375,33.14208984375,-35.21728515625
3.518468141555786,-238780581,1,-0.12211354076862335,0.4950246512889862,0.6112468838691711,-36.865234375,-10.25390625,-39.24560546875
3.5249900817871094,-238780566,0,-0.07568533718585968,-0.07185757160186768,1.1767336130142212,-41.015625,28.80859375,-40.10009765625
3.5249950885772705,-238780547,0,-0.07324393093585968,-0.06355679035186768,1.1725832223892212,-35.64453125,22.216796875,-36.62109375
3.5344440937042236,-238780545,1,-0.15531666576862335,0.4920949637889862,0.6896160244941711,-59.4482421875,-7.99560546875,-55.5419921875
3.571693181991577,-238780526,1,-0.18363697826862335,0.5152883529663086,0.7194011807441711,-61.34033203125,-1.52587890625,-60.97412109375
3.5725831985473633,-238780507,1,-0.18339283764362335,0.5353078842163086,0.7584636807441711,-58.59375,1.46484375,-57.18994140625
3.5794951915740967,-238780511,0,-0.05127127841114998,-0.045978665351867676,1.1742922067642212,-39.85595703125,17.08984375,-42.17529296875
3.579505205154419,-238780492,0,-0.06054862216114998,-0.08406460285186768,1.1742922067642212,-42.41943359375,20.01953125,-57.2509765625
3.5973832607269287,-238780488,1,-0.15311940014362335,0.5096731185913086,0.7875164151191711,-58.04443359375,1.0986328125,-47.2412109375
3.6170759201049805,-238780473,0,-0.06933768093585968,-0.10554897785186768,1.1762453317642212,-45.22705078125,23.98681640625,-74.15771484375
3.6179792881011963,-238780454,0,-0.08984549343585968,-0.13631069660186768,1.1764894723892212,-51.26953125,28.38134765625,-93.75
3.624498128890991,-238780469,1,-0.11527760326862335,0.4208059012889862,0.8295086026191711,-58.7158203125,1.220703125,-45.95947265625
3.6245319843292236,-238780450,1,-0.14017994701862335,0.3800344169139862,0.8563640713691711,-51.94091796875,12.14599609375,-67.68798828125
3.6399710178375244,-238780435,0,-0.08691580593585968,-0.18733608722686768,1.1598879098892212,-54.6875,28.38134765625,-103.08837890625
3.6653871536254883,-238780431,1,-0.18534596264362335,0.4078664481639862,0.8509929776191711,-42.1142578125,18.12744140625,-85.9375
3.6715471744537354,-238780416,0,-0.09057791531085968,-0.22810757160186768,1.1589113473892212,-53.64990234375,23.681640625,-105.95703125
3.6715519428253174,-238780397,0,-0.08252127468585968,-0.23079311847686768,1.1706300973892212,-51.513671875,18.798828125,-107.97119140625
3.684556007385254,-238780412,1,-0.18534596264362335,0.4625539481639862,0.8715007901191711,-38.87939453125,11.23046875,-86.24267578125
3.684572219848633,-238780393,1,-0.15482838451862335,0.4552297294139862,0.8959148526191711,-48.095703125,-1.28173828125,-79.58984375
3.6997711658477783,-238780378,0,-0.05005057528614998,-0.2764474153518677,1.1847902536392212,-53.28369140625,12.20703125,-110.595703125
3.721717119216919,-238780374,1,-0.17704518139362335,0.3536672294139862,0.9159343838691711,-56.21337890625,-9.33837890625,-83.984375
3.7296321392059326,-238780359,0,-0.02026541903614998,-0.2947579622268677,1.2048097848892212,-50.537109375,5.4931640625,-110.7177734375
3.7296741008758545,-238780340,0,0.007566612213850021,-0.3277169466018677,1.2052980661392212,-45.83740234375,-0.30517578125,-117.431640625
3.7419610023498535,-238780355,1,-0.29203540086746216,0.3370656669139862,0.9657390713691711,-43.51806640625,-2.25830078125,-116.63818359375
3.7438111305236816,-238780336,1,-0.37528735399246216,0.3739309012889862,0.9862468838691711,-24.59716796875,8.72802734375,-143.1884765625
3.7687571048736572,-238780321,0,0.014158409088850021,-0.3362618684768677,1.2214113473892212,-39.36767578125,-8.056640625,-123.71826171875
3.778825044631958,-238780317,1,-0.46464282274246216,0.4984426200389862,1.0319011211395264,2.13623046875,7.8125,-152.28271484375
3.7896640300750732,-238780302,0,0.04223458096385002,-0.3338204622268677,1.2665773630142212,-40.4052734375,-11.71875,-126.89208984375
3.7896831035614014,-238780283,0,0.08227364718914032,-0.3018380403518677,1.3071047067642212,-49.8046875,-9.521484375,-129.33349609375
3.8181350231170654,-238780281,1,-0.39310961961746216,0.5189504623413086,1.0558269023895264,0.06103515625,-40.95458984375,-113.58642578125
3.8259849548339844,-238780247,0,0.19067208468914032,-0.2840157747268677,1.3906008005142212,-82.763671875,10.07080078125,-153.13720703125
3.8344099521636963,-238780262,1,-0.40092211961746216,0.3993215262889862,1.0314128398895264,-3.41796875,-57.4951171875,-113.22021484375
3.834470272064209,-238780243,1,-0.5037053227424622,0.3473195731639862,1.0973308086395264,2.01416015625,-55.84716796875,-132.38525390625
3.8518471717834473,-238780228,0,0.11450020968914032,-0.3089181184768677,1.4687258005142212,-99.365234375,17.7001953125,-182.0068359375
3.8732049465179443,-238780224,1,-0.6067326664924622,0.3556203544139862,1.1476237773895264,12.451171875,-52.79541015625,-147.0947265625
3.873211145401001,-238780205,1,-0.6609318852424622,0.3883351981639862,1.1688640117645264,29.60205078125,-54.99267578125,-138.427734375
3.8796281814575195,-238780209,0,-0.0004900284111499786,-0.3440743684768677,1.5864015817642212,-106.0791015625,12.51220703125,-215.6982421875
3.879647970199585,-238780190,0,-0.10254080593585968,-0.4326974153518677,1.6589113473892212,-100.03662109375,-0.79345703125,-238.34228515625
3.897991180419922,-238780186,1,-0.7268498539924622,0.3207082450389862,1.1561686992645264,45.34912109375,-60.05859375,-120.849609375
3.9186060428619385,-238780171,0,-0.20312674343585968,-0.4756661653518677,1.7663332223892212,-81.9091796875,-16.05224609375,-240.478515625
3.923933982849121,-238780167,1,-0.8362248539924622,0.2628469169139862,1.1302897930145264,52.67333984375,-66.34521484375,-124.755859375
3.9240381717681885,-238780148,1,-0.9954045414924622,0.3055715262889862,1.1092936992645264,59.326171875,-72.69287109375,-131.53076171875
3.9395499229431152,-238780152,0,-0.2795427739620209,-0.4226876497268677,1.8610597848892212,-68.17626953125,-23.74267578125,-226.806640625
3.939629077911377,-238780133,0,-0.3403337895870209,-0.3711739778518677,1.9838625192642212,-56.94580078125,-31.25,-215.63720703125
3.965041160583496,-238780129,1,-1.137982726097107,0.4227590262889862,1.1681315898895264,69.88525390625,-73.73046875,-127.44140625
3.97078013420105,-238780114,0,-0.4758318364620209,-0.24104702472686768,2.0998294353485107,-22.3388671875,-32.89794921875,-216.36962890625
3.9707839488983154,-238780095,0,-0.4687517583370209,-0.3435860872268677,2.2421634197235107,2.13623046875,-31.73828125,-214.90478515625
3.9876112937927246,-238780110,1,-1.034955382347107,0.5086965560913086,1.0697429180145264,78.369140625,-66.34521484375,-90.8203125
3.987617015838623,-238780091,1,-1.094769835472107,0.3495168387889862,1.0082194805145264,74.70703125,-53.955078125,-58.41064453125
3.999669075012207,-238780076,0,-0.5253923535346985,-0.5103341341018677,2.3310306072235107,23.0712890625,-1.46484375,-239.80712890625
4.021443128585815,-238780072,1,-1.180951476097107,0.3248586356639862,1.0001628398895264,81.23779296875,-54.87060546875,-47.05810546875
4.030813932418823,-238780057,0,-0.7783220410346985,-0.7354317903518677,2.3461673259735107,65.3076171875,35.7666015625,-228.271484375
4.03082013130188,-238780038,0,-0.9169939160346985,-0.8670235872268677,2.2934329509735107,117.7978515625,27.2216796875,-202.1484375
4.0444231033325195,-238780053,1,-1.164594054222107,0.4159230887889862,0.9530437588691711,88.80615234375,-63.90380859375,-34.7900390625
4.068132162094116,-238780019,0,-0.9194353222846985,-1.0425606966018677,2.3207767009735107,179.19921875,-10.31494140625,-200.01220703125
4.073339223861694,-238780017,1,-0.9795354008674622,0.3768605887889862,0.8453777432441711,59.75341796875,-89.9658203125,53.16162109375
4.073345184326172,-238779998,1,-0.9014104008674622,0.2635793387889862,0.8151043057441711,43.0908203125,-92.4072265625,87.46337890625
4.08803915977478,-238779983,0,-0.9370134472846985,-1.2176095247268677,2.4467532634735107,291.07666015625,-4.94384765625,-221.86279296875
4.117811918258667,-238779979,1,-0.7866643071174622,0.1793508231639862,0.7618816494941711,27.7099609375,-93.75,94.6044921875
4.125788927078247,-238779964,0,-0.7800310254096985,-1.4597970247268677,2.4460208415985107,305.96923828125,49.072265625,-232.177734375
4.125797271728516,-238779945,0,-0.6433122754096985,-1.7608224153518677,2.2111575603485107,312.92724609375,105.52978515625,-207.6416015625
4.1329851150512695,-238779960,1,-0.6638615727424622,0.1534719169139862,0.6852214932441711,15.68603515625,-98.7548828125,96.3134765625
4.133013010025024,-238779941,1,-0.5549748539924622,0.1700734794139862,0.6300457119941711,5.2490234375,-104.1259765625,99.853515625
4.148252248764038,-238779926,0,-0.5600603222846985,-1.8240548372268677,1.9618898630142212,341.9189453125,113.6474609375,-155.57861328125
4.173383951187134,-238779922,1,-0.45194751024246216,0.1463918387889862,0.5648601651191711,-7.2021484375,-98.9990234375,106.4453125
4.178019046783447,-238779907,0,-0.3208025395870209,-1.7986642122268677,1.7302004098892212,387.20703125,98.6328125,-100.9521484375
4.1930320262908936,-238779903,1,-0.35062915086746216,0.1288137137889862,0.5458171963691711,-16.9677734375,-83.19091796875,103.57666015625
4.193124055862427,-238779884,1,-0.30985766649246216,0.1324758231639862,0.6007488369941711,-22.0947265625,-66.89453125,88.623046875
4.223569869995117,-238779888,0,0.01830879971385002,-1.7332345247268677,1.5248781442642212,408.447265625,85.87646484375,-61.21826171875
4.223576068878174,-238779869,0,0.2770978510379791,-1.6221505403518677,1.4240480661392212,391.41845703125,76.5380859375,-33.63037109375
4.228360891342163,-238779865,1,-0.28397876024246216,0.1515187919139862,0.6468914151191711,-25.32958984375,-60.9130859375,78.79638671875
4.22836709022522,-238779846,1,-0.25785571336746216,0.1739797294139862,0.6849773526191711,-29.541015625,-55.72509765625,69.51904296875
4.23955512046814,-238779850,0,0.5932599902153015,-1.5550118684768677,1.2477785348892212,331.23779296875,106.5673828125,9.8876953125
4.2395710945129395,-238779831,0,0.7075178027153015,-1.5022774934768677,0.976538360118866,291.80908203125,144.04296875,77.08740234375
4.266317129135132,-238779827,1,-0.22709400951862335,0.1554250419139862,0.6993816494941711,-27.9541015625,-53.7109375,74.64599609375
4.270843267440796,-238779812,0,0.6564924120903015,-1.3409005403518677,0.754614531993866,296.81396484375,155.2734375,121.337890625
4.270848035812378,-238779793,0,0.7346174120903015,-1.1917306184768677,0.715552031993866,306.09130859375,147.03369140625,143.4326171875
4.284530878067017,-238779808,1,-0.18095143139362335,0.1307668387889862,0.7281902432441711,-29.541015625,-45.59326171875,74.70703125
4.284564018249512,-238779789,1,-0.13749440014362335,0.1041555106639862,0.7506511807441711,-26.55029296875,-37.2314453125,73.54736328125
4.299529075622559,-238779774,0,0.9399396777153015,-1.1162911653518677,0.702856719493866,312.07275390625,117.0654296875,155.2734375
4.327474117279053,-238779755,0,1.0771466493606567,-1.0933419466018677,0.708471953868866,316.5283203125,104.79736328125,148.98681640625
4.3447511196136475,-238779753,1,-0.008588150143623352,0.1556691825389862,0.7565105557441711,-13.36669921875,-19.47021484375,70.9228515625
4.34486198425293,-238779734,1,0.03169505298137665,0.2147512137889862,0.7489421963691711,-13.7939453125,-15.44189453125,78.369140625
4.3696372509002686,-238779719,0,1.3156720399856567,-1.2054024934768677,0.512182891368866,351.1962890625,137.3291015625,129.8828125
4.373938322067261,-238779715,1,0.09419505298137665,0.2279348075389862,0.7599285244941711,-19.8974609375,-11.3525390625,88.134765625
4.373944044113159,-238779696,1,0.15303294360637665,0.2137746512889862,0.8063152432441711,-18.6767578125,-6.77490234375,88.80615234375
4.390108108520508,-238779700,0,1.3417950868606567,-1.2464181184768677,0.37912625074386597,379.638671875,172.2412109375,130.06591796875
4.390120983123779,-238779681,0,1.3422833681106567,-1.2962228059768677,0.28537625074386597,397.0947265625,175.29296875,132.6904296875
4.417521238327026,-238779677,1,0.17744700610637665,0.2145070731639862,0.8605144619941711,-7.26318359375,-1.708984375,85.75439453125
4.423552989959717,-238779662,0,1.3625470399856567,-1.4158517122268677,0.18796414136886597,416.68701171875,176.81884765625,138.48876953125
4.423559188842773,-238779643,0,1.3395978212356567,-1.4510079622268677,0.09616725891828537,424.98779296875,173.4619140625,158.87451171875
4.434619188308716,-238779658,1,0.14985911548137665,0.2977590262889862,0.9391277432441711,15.9912109375,4.638671875,80.74951171875
4.434636116027832,-238779639,1,0.12666575610637665,0.3761281669139862,0.9847820401191711,35.400390625,10.80322265625,83.3740234375
4.449811935424805,-238779624,0,1.3754864931106567,-1.4488106966018677,0.05905788391828537,416.44287109375,177.8564453125,174.13330078125
4.473241090774536,-238779620,1,0.12837474048137665,0.4505910575389862,1.0131022930145264,45.59326171875,14.22119140625,93.20068359375
4.478118181228638,-238779605,0,1.4201642274856567,-1.4934884309768677,0.04001491516828537,404.96826171875,192.3828125,182.12890625
4.478191137313843,-238779586,0,1.4318829774856567,-1.4888497591018677,0.02219264954328537,394.95849609375,215.6982421875,198.30322265625
4.4931440353393555,-238779601,1,0.14668528735637665,0.4855031669139862,1.0238444805145264,46.56982421875,10.6201171875,106.75048828125
4.4931581020355225,-238779582,1,0.17476145923137665,0.4947805106639862,1.0350749492645264,50.29296875,7.87353515625,121.337890625
4.519208908081055,-238779567,0,1.5253888368606567,-1.5823556184768677,0.00876491516828537,385.68115234375,236.75537109375,209.5947265625
4.524969100952148,-238779563,1,0.21089427173137665,0.5133352279663086,1.0201823711395264,62.07275390625,8.6669921875,130.06591796875
4.524975061416626,-238779544,1,0.24531809985637665,0.5672903060913086,0.9869793057441711,70.86181640625,19.53125,139.404296875
4.539693117141724,-238779548,0,1.6337872743606567,-1.6526681184768677,-0.01467258483171463,372.98583984375,245.4833984375,211.42578125
4.539767026901245,-238779529,0,1.6862775087356567,-1.6861153841018677,-0.03908664733171463,363.6474609375,244.9951171875,245.05615234375
4.5659708976745605,-238779525,1,0.28779858350753784,0.6105031967163086,1.0160319805145264,71.47216796875,26.67236328125,142.27294921875
4.571490049362183,-238779510,0,1.8598614931106567,-1.8096505403518677,-0.01442844420671463,365.78369140625,233.3984375,265.93017578125
4.584476947784424,-238779489,1,0.22114817798137665,0.7069387435913086,0.9488933682441711,65.36865234375,42.6025390625,185.1806640625
4.599416017532349,-238779491,0,1.9956036806106567,-1.8570138216018677,0.04099147766828537,374.08447265625,221.6796875,273.74267578125
4.619876146316528,-238779470,1,0.19160716235637665,0.6820363998413086,0.9086101651191711,30.33447265625,38.818359375,210.87646484375
4.629662990570068,-238779455,0,2.1320784091949463,-1.7537423372268677,0.06369655579328537,369.5068359375,224.30419921875,240.8447265625
4.629739999771118,-238779436,0,2.0739729404449463,-1.7425118684768677,0.06833522766828537,346.0693359375,230.77392578125,199.40185546875
4.644620180130005,-238779451,1,0.20698802173137665,0.5489797592163086,0.8927410244941711,6.16455078125,45.654296875,230.95703125
4.644655227661133,-238779432,1,0.19893138110637665,0.5199270248413086,0.9042156338691711,17.63916015625,54.931640625,249.3896484375
4.668140172958374,-238779417,0,1.8986798524856567,-1.7578927278518677,0.09885280579328537,298.76708984375,205.50537109375,157.40966796875
4.673002004623413,-238779413,1,0.11665599048137665,0.4979543387889862,0.8470867276191711,30.70068359375,60.97412109375,270.99609375
4.673037052154541,-238779394,1,0.08516184985637665,0.5282278060913086,0.7526043057441711,22.39990234375,65.7958984375,297.7294921875
4.689968109130859,-238779398,0,1.7792950868606567,-1.7598458528518677,0.05930202454328537,265.19775390625,158.75244140625,134.09423828125
4.690011262893677,-238779379,0,1.7475568056106567,-1.7664376497268677,0.03049343079328537,242.37060546875,108.2763671875,104.8583984375
4.716754913330078,-238779375,1,0.49971264600753784,0.0992726981639862,0.48795586824417114,20.5078125,103.45458984375,338.5009765625
4.723111152648926,-238779360,0,1.6716290712356567,-1.8284493684768677,0.05417507141828537,227.783203125,69.2138671875,82.21435546875
4.734716892242432,-238779356,1,0.5280329585075378,-0.4739694893360138,0.27823907136917114,145.751953125,288.330078125,301.025390625
4.734755039215088,-238779337,1,-0.022015884518623352,0.2765187919139862,0.47574883699417114,152.587890625,380.9814453125,200.25634765625
4.748532056808472,-238779341,0,1.7463361024856567,-1.9685860872268677,0.02780788391828537,225.89111328125,24.658203125,73.54736328125
4.748556137084961,-238779322,0,1.9028302431106567,-1.7837716341018677,0.04392116516828537,234.9853515625,11.8408203125,65.673828125
4.77348518371582,-238779318,1,-0.26591235399246216,0.6378469467163086,0.9808757901191711,-25.87890625,306.94580078125,184.87548828125
4.778200149536133,-238779303,0,1.8347150087356567,-1.3743478059768677,0.09348171204328537,222.47314453125,1.77001953125,28.13720703125
4.77828311920166,-238779284,0,1.7272931337356567,-1.2198067903518677,0.15061062574386597,189.27001953125,20.20263671875,-50.35400390625
4.793814182281494,-238779299,1,-0.41825610399246216,0.7679738998413086,1.6273601055145264,-176.45263671875,134.6435546875,248.10791015625
4.793827056884766,-238779280,1,-0.37675219774246216,0.7027883529663086,1.7784831523895264,-116.02783203125,27.83203125,385.55908203125
4.820120096206665,-238779265,0,1.4514142274856567,-1.3157540559768677,0.13034695386886597,164.97802734375,48.4619140625,-119.56787109375
4.825916290283203,-238779261,1,-0.08378346264362335,0.4276418387889862,1.2887370586395264,-46.38671875,48.9501953125,484.68017578125
4.839416027069092,-238779246,0,1.2512189149856567,-1.4207345247268677,0.11862819641828537,189.0869140625,55.7861328125,-142.9443359375
4.8394880294799805,-238779227,0,1.2136212587356567,-1.2332345247268677,0.10373561829328537,215.75927734375,61.82861328125,-155.33447265625
4.870059013366699,-238779225,1,-0.10990650951862335,0.1441945731639862,1.3634440898895264,-34.7900390625,158.203125,438.3544921875
4.882591009140015,-238779206,1,-0.15165455639362335,-0.052582766860723495,1.3451335430145264,-20.5078125,207.6416015625,438.1103515625
4.884206056594849,-238779187,1,-0.27885180711746216,-0.3057565987110138,1.2215983867645264,-17.333984375,249.267578125,444.091796875
4.8995819091796875,-238779191,0,1.0805646181106567,-0.9058419466018677,-0.04665500670671463,230.8349609375,82.45849609375,-223.388671875
4.899619102478027,-238779172,0,0.7661115527153015,-0.9190255403518677,-0.16286593675613403,215.27099609375,28.50341796875,-244.93408203125
4.921204090118408,-238779168,1,-0.33085376024246216,-0.5137643814086914,1.2980144023895264,-23.8037109375,254.45556640625,433.7158203125
4.9295642375946045,-238779153,0,0.4191876947879791,-0.8264962434768677,-0.11428195983171463,173.15673828125,-49.25537109375,-222.16796875
4.929596900939941,-238779134,0,0.19018380343914032,-0.5430489778518677,0.07175319641828537,163.63525390625,-146.484375,-190.49072265625
4.9446611404418945,-238779149,1,-0.19511158764362335,-0.7063913345336914,1.5731608867645264,-9.765625,178.40576171875,388.48876953125
4.94468092918396,-238779130,1,-0.09501393139362335,-0.7322702407836914,1.6239421367645264,26.18408203125,66.34521484375,327.57568359375
4.968348264694214,-238779115,0,0.3381330072879791,-0.026447415351867676,0.24094265699386597,187.80517578125,-215.087890625,-183.837890625
4.974441051483154,-238779111,1,-0.09550221264362335,-0.7508249282836914,1.4408366680145264,84.89990234375,-20.751953125,256.2255859375
4.989763021469116,-238779096,0,0.6025373339653015,-0.08308804035186768,0.587378203868866,218.6279296875,-272.76611328125,-182.6171875
4.98980712890625,-238779077,0,0.5146467089653015,-0.6614571809768677,1.0048586130142212,134.70458984375,-239.990234375,-271.66748046875
5.016732215881348,-238779092,1,-0.06962330639362335,-0.8382272720336914,1.3729655742645264,190.91796875,-22.0947265625,209.5947265625
5.016738176345825,-238779073,1,-0.25028735399246216,-0.5083932876586914,1.0858561992645264,239.8681640625,5.31005859375,193.66455078125
5.021568059921265,-238779058,0,0.3847638666629791,-0.12019741535186768,0.925757110118866,21.97265625,-114.74609375,-297.8515625
5.034662246704102,-238779054,1,-0.16605885326862335,-0.3570261299610138,0.9806316494941711,226.4404296875,9.94873046875,167.66357421875
5.034701108932495,-238779035,1,-0.12797291576862335,-0.3099069893360138,0.8885906338691711,200.68359375,2.8076171875,137.5732421875
5.049671173095703,-238779039,0,0.3454572260379791,0.016765475273132324,0.714575469493866,0.3662109375,-99.609375,-256.40869140625
5.0497331619262695,-238779020,0,0.3110333979129791,0.2853201627731323,0.31931179761886597,42.8466796875,-181.33544921875,-243.10302734375
5.07193922996521,-238779016,1,-0.03519947826862335,-0.2708444893360138,0.7318523526191711,194.51904296875,-6.04248046875,99.9755859375
5.079495191574097,-238779001,0,0.4511701166629791,0.12199008464813232,0.28903836011886597,54.99267578125,-283.02001953125,-274.35302734375
5.094456195831299,-238778997,1,-0.029584243893623352,-0.2051706612110138,0.5477703213691711,204.28466796875,-0.42724609375,71.4111328125
5.1204071044921875,-238778982,0,0.3374005854129791,-0.24275600910186768,0.590307891368866,45.0439453125,-306.0302734375,-241.39404296875
5.120556116104126,-238778963,0,0.17016427218914032,-0.06819546222686768,0.551977813243866,-8.36181640625,-221.435546875,-140.13671875
5.1261420249938965,-238778961,1,-0.12650807201862335,-0.0679636299610138,0.37369805574417114,212.5244140625,44.37255859375,20.8740234375
5.13979697227478,-238778927,0,0.24950997531414032,0.2904471158981323,0.25070828199386597,-66.46728515625,-85.87646484375,-72.1435546875
5.156166076660156,-238778942,1,-0.23661549389362335,0.0914601981639862,0.40275079011917114,162.7197265625,49.9267578125,-7.87353515625
5.15617299079895,-238778923,1,-0.26493579149246216,0.1747121512889862,0.5043132901191711,99.67041015625,35.82763671875,-21.728515625
5.177555084228516,-238778908,0,0.2949201166629791,0.3378103971481323,0.21408718824386597,-95.947265625,-100.7080078125,-85.44921875
5.183165073394775,-238778904,1,-0.26762133836746216,0.2154836356639862,0.6141765713691711,38.51318359375,1.220703125,-31.79931640625
5.18324089050293,-238778885,1,-0.29691821336746216,0.2169484794139862,0.6757000088691711,17.51708984375,-29.96826171875,-47.66845703125
5.199895143508911,-238778889,0,0.22558419406414032,0.2721365690231323,0.38327664136886597,-84.1064453125,-144.8974609375,-61.09619140625
5.199933052062988,-238778870,0,0.22021310031414032,0.2955740690231323,0.43137234449386597,-60.24169921875,-135.8642578125,-24.4140625
5.222707033157349,-238778866,1,-0.29374438524246216,0.2013234794139862,0.6686199307441711,20.01953125,-44.37255859375,-67.68798828125
5.229644060134888,-238778851,0,0.3017560541629791,0.4689139127731323,0.43967312574386597,-75.13427734375,-106.01806640625,16.05224609375
5.244568109512329,-238778847,1,-0.30961352586746216,0.2132863700389862,0.5653484463691711,24.10888671875,-44.7998046875,-87.158203125
5.244604110717773,-238778828,1,-0.35892993211746216,0.3221730887889862,0.49454766511917114,29.6630859375,-12.14599609375,-102.96630859375
5.267513036727905,-238778832,0,0.3598615229129791,0.4603689908981323,0.42771023511886597,-137.14599609375,-53.03955078125,40.52734375
5.267518997192383,-238778813,0,0.3845197260379791,0.4347342252731323,0.45920437574386597,-205.01708984375,8.7890625,48.9501953125
5.274634122848511,-238778809,1,-0.42045336961746216,0.5008840560913086,0.5277507901191711,14.0380859375,16.11328125,-105.77392578125
5.28825306892395,-238778794,0,0.3701154291629791,0.4261893033981323,0.523901641368866,-232.91015625,53.03955078125,68.66455078125
5.28830623626709,-238778775,0,0.4465314447879791,0.4300955533981323,0.543432891368866,-227.5390625,80.50537109375,105.28564453125
5.316151142120361,-238778790,1,-0.41605883836746216,0.5824270248413086,0.6561687588691711,-30.45654296875,9.8876953125,-111.4501953125
5.316158056259155,-238778771,1,-0.45683032274246216,0.6158742904663086,0.7350261807441711,-70.37353515625,-23.62060546875,-130.67626953125
5.320956230163574,-238778756,0,0.5812970995903015,0.4286307096481323,0.592016875743866,-209.5947265625,94.54345703125,146.66748046875
5.334496021270752,-238778752,1,-0.6072209477424622,0.8463430404663086,0.7904461026191711,-136.23046875,-80.01708984375,-136.41357421875
5.349630117416382,-238778737,0,0.7436506152153015,0.4996756315231323,0.635962188243866,-179.26025390625,96.0693359375,182.67822265625
5.349646091461182,-238778718,0,0.7829572558403015,0.4972342252731323,0.673559844493866,-154.84619140625,99.609375,194.15283203125
5.372148036956787,-238778733,1,-0.5261662602424622,0.8932180404663086,0.8863933682441711,-182.2509765625,-100.9521484375,-101.01318359375
5.3798651695251465,-238778699,0,0.8415510058403015,0.4410818815231323,0.749243438243866,-137.6953125,96.3134765625,208.55712890625
5.39324426651001,-238778697,1,-0.28422290086746216,0.9244680404663086,1.1371257305145264,-212.0361328125,-94.54345703125,-82.03125
5.393255233764648,-238778678,1,-0.26469165086746216,0.9576711654663086,1.3553874492645264,-254.150390625,-137.14599609375,-100.76904296875
5.420034170150757,-238778663,0,1.0190411806106567,0.4452322721481323,0.869604766368866,-103.08837890625,86.42578125,239.1357421875
5.4250030517578125,-238778659,1,-0.24393971264362335,1.1610403060913086,1.5382487773895264,-336.48681640625,-202.7587890625,-92.34619140625
5.439532995223999,-238778644,0,1.3315411806106567,0.6664236783981323,0.905249297618866,-69.76318359375,117.85888671875,204.52880859375
5.4395911693573,-238778625,0,1.4082013368606567,0.7049978971481323,0.796850860118866,-55.5419921875,166.44287109375,171.08154296875
5.4690821170806885,-238778640,1,-0.11601002514362335,1.3561086654663086,1.5936686992645264,-365.17333984375,-249.57275390625,-35.58349609375
5.470472097396851,-238778621,1,0.5238825678825378,1.1730031967163086,1.7948405742645264,-259.6435546875,-197.69287109375,89.7216796875
5.476847171783447,-238778606,0,1.3552228212356567,0.5521658658981323,0.733130156993866,-68.4814453125,195.86181640625,159.0576171875
5.484439134597778,-238778602,1,0.8473688960075378,0.5494680404663086,1.6954753398895264,-120.30029296875,-101.07421875,87.646484375
5.503030061721802,-238778587,0,1.2399884462356567,0.4007986783981323,0.639380156993866,-83.92333984375,200.1953125,156.6162109375
5.503036975860596,-238778568,0,1.1306134462356567,0.2779959440231323,0.644751250743866,-83.43505859375,178.1005859375,175.1708984375
5.522607088088989,-238778583,1,0.9281794428825378,0.6986379623413086,1.5858561992645264,-81.11572265625,-24.0478515625,63.5986328125
5.522614002227783,-238778564,1,0.9242731928825378,0.8338918685913086,1.6232097148895264,-77.81982421875,21.8505859375,54.931640625
5.529648065567017,-238778549,0,1.2292462587356567,0.2687186002731323,0.682593047618866,-61.46240234375,153.564453125,184.63134765625
5.547303199768066,-238778545,1,0.9806696772575378,0.7845754623413086,1.6112468242645264,-78.79638671875,36.2548828125,78.0029296875
5.547311067581177,-238778526,1,1.140581727027893,0.5636281967163086,1.5441081523895264,-52.3681640625,50.35400390625,143.37158203125
5.568613052368164,-238778530,0,1.4511700868606567,0.4432791471481323,0.880346953868866,-17.578125,152.03857421875,161.376953125
5.568619966506958,-238778511,0,1.4772931337356567,0.3580740690231323,0.915014922618866,14.22119140625,190.49072265625,111.99951171875
5.574908256530762,-238778507,1,1.212603211402893,0.4889211356639862,1.4381511211395264,-28.1982421875,70.6787109375,169.98291015625
5.589600086212158,-238778492,0,1.2385236024856567,0.15104281902313232,0.892553985118866,20.99609375,208.740234375,93.44482421875
5.589676141738892,-238778473,0,1.0703107118606567,-0.024250149726867676,0.703100860118866,30.6396484375,185.36376953125,94.66552734375
5.6163170337677,-238778488,1,1.013384461402893,0.6793508529663086,1.4100749492645264,-18.798828125,96.6796875,195.9228515625
5.617615222930908,-238778469,1,0.7213923335075378,0.1073293387889862,1.3539226055145264,-35.70556640625,106.75048828125,245.60546875
5.62217903137207,-238778454,0,1.0786114931106567,-0.030353665351867676,0.749975860118866,47.9736328125,155.94482421875,111.14501953125
5.634623050689697,-238778433,1,1.068560242652893,-0.3658151924610138,1.1876628398895264,52.42919921875,-47.91259765625,329.52880859375
5.649775266647339,-238778435,0,1.0637189149856567,0.13199985027313232,0.791968047618866,78.55224609375,152.64892578125,105.77392578125
5.67264723777771,-238778414,1,0.9088923335075378,-0.3809519112110138,0.8263347744941711,102.23388671875,-22.27783203125,320.49560546875
5.680197238922119,-238778399,0,0.7514631152153015,0.020427584648132324,0.816626250743866,77.392578125,230.3466796875,53.64990234375
5.693616151809692,-238778395,1,0.7143122553825378,-0.7308053970336914,0.7906902432441711,124.08447265625,11.23046875,346.8017578125
5.693681240081787,-238778376,1,0.46528881788253784,-1.0186471939086914,0.8807781338691711,137.6953125,13.671875,347.7783203125
5.720556020736694,-238778380,0,0.5341779589653015,-0.027179837226867676,0.756323516368866,80.810546875,243.83544921875,44.5556640625
5.720561265945435,-238778361,0,0.4611798822879791,-0.005939602851867676,0.686987578868866,82.1533203125,216.796875,43.5791015625
5.7261061668396,-238778357,1,0.41963452100753784,-0.9881296157836914,0.7289226651191711,159.1796875,-30.70068359375,311.1572265625
5.7396039962768555,-238778342,0,0.4257794916629791,0.008708834648132324,0.670141875743866,78.91845703125,157.470703125,35.0341796875
5.739633083343506,-238778323,0,0.3374005854129791,0.057292819023132324,0.780737578868866,60.302734375,123.71826171875,28.4423828125
5.753760099411011,-238778338,1,0.30073803663253784,-0.8587350845336914,0.5514324307441711,249.3896484375,-59.02099609375,275.634765625
5.768600225448608,-238778319,1,-0.06327565014362335,-1.1407175064086914,0.7591961026191711,360.77880859375,-33.935546875,245.9716796875
5.7754292488098145,-238778304,0,0.23046700656414032,-0.055256009101867676,0.936499297618866,65.49072265625,119.81201171875,26.2451171875
5.784412860870361,-238778300,1,-0.22294361889362335,-0.6919870376586914,0.47013360261917114,368.7744140625,-33.87451171875,209.89990234375
5.798203229904175,-238778285,0,0.10815255343914032,-0.06868374347686768,1.0717531442642212,86.5478515625,127.8076171875,33.14208984375
5.79827618598938,-238778266,0,0.10815255343914032,-0.023273587226867676,1.2009035348892212,109.375,143.12744140625,25.146484375
5.821545124053955,-238778281,1,-0.47343188524246216,-0.6351022720336914,0.38736993074417114,282.28759765625,-20.751953125,193.359375
5.821551084518433,-238778262,1,-0.33720141649246216,-0.7193307876586914,0.7023113369941711,319.2138671875,18.24951171875,92.4072265625
5.829559087753296,-238778247,0,0.16357247531414032,0.10929477214813232,1.2795168161392212,134.033203125,157.958984375,8.544921875
5.846993923187256,-238778243,1,-0.46586352586746216,-0.5791940689086914,0.8019207119941711,376.3427734375,3.96728515625,25.57373046875
5.847001075744629,-238778224,1,-0.47562915086746216,-0.6563425064086914,0.6254070401191711,397.88818359375,-32.8369140625,-2.9296875
5.868471145629883,-238778228,0,0.19824044406414032,0.08073031902313232,1.3735109567642212,150.2685546875,153.01513671875,-18.310546875
5.868476867675781,-238778209,0,0.3176251947879791,0.09318149089813232,1.4499269723892212,168.76220703125,158.69140625,-50.84228515625
5.874481201171875,-238778205,1,-0.5261662602424622,-0.7708444595336914,0.38785821199417114,417.724609375,-43.27392578125,-44.86083984375
5.89124608039856,-238778190,0,0.4194318354129791,0.12760531902313232,1.3962160348892212,173.15673828125,191.10107421875,-81.23779296875
5.914959192276001,-238778169,1,-0.7707951664924622,-0.6353464126586914,0.37394219636917114,382.568359375,-87.40234375,-160.15625
5.92066216468811,-238778171,0,0.4746076166629791,0.3036307096481323,1.2839113473892212,165.34423828125,195.00732421875,-115.72265625
5.934412002563477,-238778150,1,-0.9834416508674622,-0.5555124282836914,0.36320000886917114,333.06884765625,-152.2216796875,-246.58203125
5.9499351978302,-238778135,0,0.4475080072879791,0.20035922527313232,1.2072511911392212,150.7568359375,173.76708984375,-187.07275390625
5.949952125549316,-238778116,0,0.4501935541629791,0.08439242839813232,1.2482668161392212,153.25927734375,140.625,-197.1435546875
5.972146987915039,-238778131,1,-1.286908507347107,-0.5230417251586914,0.34049493074417114,285.70556640625,-211.85302734375,-325.01220703125
5.972154140472412,-238778112,1,-1.550824522972107,-0.5611276626586914,0.30143243074417114,270.6298828125,-244.2626953125,-370.60546875
5.979931116104126,-238778097,0,0.5146467089653015,-0.005695462226867676,1.2812258005142212,153.62548828125,107.36083984375,-211.12060546875
5.994449138641357,-238778093,1,-1.910687804222107,-0.6126413345336914,0.29117852449417114,298.4619140625,-259.765625,-400.7568359375
5.994527101516724,-238778074,1,-2.1235783100128174,-0.6475534439086914,0.16105155646800995,365.6005859375,-262.02392578125,-408.50830078125
6.019459009170532,-238778078,0,0.5224592089653015,0.06925570964813232,1.2126222848892212,123.1689453125,99.06005859375,-219.54345703125
6.01946496963501,-238778059,0,0.6411115527153015,0.06730258464813232,1.1298586130142212,90.63720703125,87.5244140625,-220.947265625
6.024682998657227,-238778055,1,-2.2363712787628174,-0.6617136001586914,-0.013997271656990051,439.51416015625,-255.67626953125,-393.85986328125
6.039436101913452,-238778040,0,0.6354963183403015,0.16080844402313232,1.0390383005142212,99.91455078125,73.73046875,-246.09375
6.069923162460327,-238778036,1,-2.2793400287628174,-0.6265573501586914,-0.13045234978199005,482.177734375,-240.1123046875,-364.31884765625
6.069931983947754,-238778017,1,-2.3013126850128174,-0.6980905532836914,-0.35091131925582886,540.71044921875,-209.16748046875,-309.4482421875
6.075716257095337,-238778021,0,0.5810529589653015,0.3451346158981323,1.1554933786392212,109.92431640625,18.1884765625,-281.43310546875
6.075721979141235,-238778002,0,0.5297834277153015,0.17863070964813232,1.0221925973892212,59.2041015625,-32.04345703125,-314.63623046875
6.08450722694397,-238777998,1,-2.3308537006378174,-0.7564401626586914,-0.5887042880058289,609.80224609375,-166.259765625,-272.216796875
6.099544048309326,-238777983,0,0.3242169916629791,0.039226412773132324,1.0812746286392212,18.24951171875,-33.69140625,-339.66064453125
6.099654197692871,-238777964,0,0.21117989718914032,0.08610141277313232,1.1672121286392212,25.7568359375,-39.73388671875,-344.1162109375
6.1224751472473145,-238777979,1,-2.5010197162628174,-0.8921823501586914,-0.6660968661308289,633.9111328125,-155.70068359375,-240.90576171875
6.122481107711792,-238777960,1,-2.5259220600128174,-1.0181589126586914,-0.6597492098808289,602.84423828125,-175.35400390625,-249.81689453125
6.129472970962524,-238777945,0,0.09057442843914032,0.2787283658981323,1.2787843942642212,51.20849609375,-47.18017578125,-379.45556640625
6.1444091796875,-238777941,1,-2.3596622943878174,-1.2010202407836914,-0.6055499911308289,536.07177734375,-185.791015625,-265.7470703125
6.16892409324646,-238777926,0,0.18969552218914032,0.3214529752731323,1.4491945505142212,49.6826171875,-49.62158203125,-441.162109375
6.1689300537109375,-238777907,0,0.19701974093914032,0.3610037565231323,1.5514894723892212,46.08154296875,-27.40478515625,-497.9248046875
6.174525022506714,-238777905,1,-2.6089298725128174,-1.3294382095336914,-0.48958319425582886,519.47021484375,-171.875,-148.49853515625
6.214970111846924,-238777886,1,-2.6238224506378174,-1.3746042251586914,-0.5752765536308289,513.18359375,-145.93505859375,-4.7607421875
6.214976072311401,-238777867,1,-2.8899357318878174,-1.8143014907836914,-0.6502277255058289,422.18017578125,-169.73876953125,124.32861328125
6.2206032276153564,-238777871,0,-1.5297869443893433,-1.1233712434768677,0.18503445386886597,103.69873046875,-212.158203125,-528.9306640625
6.220609188079834,-238777852,0,0.13207833468914032,-0.3731271028518677,0.43918484449386597,413.39111328125,-467.95654296875,-278.74755859375
6.23287296295166,-238777848,1,-2.5952579975128174,-1.7972116470336914,-1.0027668476104736,303.955078125,-171.08154296875,126.708984375
6.248112201690674,-238777833,0,0.8259260058403015,0.4911307096481323,1.0304933786392212,10.68115234375,-384.27734375,-273.193359375
6.248167991638184,-238777814,0,0.6879865527153015,0.7989920377731323,1.7856203317642212,-355.8349609375,-6.53076171875,-531.31103515625
6.270531177520752,-238777829,1,-1.816205382347107,-1.6355905532836914,-1.4605305194854736,242.919921875,25.20751953125,98.0224609375
6.270539045333862,-238777810,1,-1.457562804222107,-1.9637155532836914,-0.8311359286308289,202.880859375,226.25732421875,130.126953125
6.278269052505493,-238777795,0,0.2709943354129791,0.6298025846481323,1.6196047067642212,-449.0966796875,199.70703125,-717.10205078125
6.292847156524658,-238777791,1,-1.299359679222107,-1.5457468032836914,-0.6492511630058289,260.7421875,313.17138671875,201.66015625
6.318185091018677,-238777776,0,0.006834190338850021,-0.6731759309768677,1.0092531442642212,-411.7431640625,244.07958984375,-759.8876953125
6.318190097808838,-238777757,0,0.011717002838850021,-1.4292794466018677,0.790503203868866,-184.5703125,82.21435546875,-661.376953125
6.326353311538696,-238777772,1,-1.085004210472107,-1.7496042251586914,-0.31917303800582886,82.6416015625,203.43017578125,233.58154296875
6.32636022567749,-238777753,1,-0.6814396977424622,-1.7725534439086914,-0.5301105380058289,-14.2822265625,75.927734375,243.0419921875
6.337810039520264,-238777738,0,0.2766095697879791,-1.6006661653518677,0.723120391368866,30.6396484375,-65.7958984375,-531.6162109375
6.366116046905518,-238777734,1,-0.40946704149246216,-1.4668893814086914,-1.0901691913604736,-49.37744140625,69.64111328125,236.63330078125
6.366121053695679,-238777715,1,-0.5720646977424622,-1.1636667251586914,-1.2390949726104736,-67.7490234375,155.57861328125,248.779296875
6.373098134994507,-238777719,0,0.18578927218914032,-1.4151192903518677,0.777563750743866,66.2841796875,-120.78857421875,-463.134765625
6.373459100723267,-238777700,0,0.14013497531414032,-1.7527657747268677,1.1213136911392212,97.35107421875,-76.66015625,-383.9111328125
6.38460111618042,-238777696,1,-0.26981860399246216,-1.3931589126586914,-0.8531085848808289,-108.09326171875,184.6923828125,199.0966796875
6.3998682498931885,-238777681,0,-0.02295096591114998,-1.3692208528518677,1.0470949411392212,90.4541015625,56.82373046875,-278.564453125
6.422684907913208,-238777677,1,-0.18119557201862335,-1.1236276626586914,-0.6494953036308289,-107.11669921875,196.8994140625,137.0849609375
6.4295501708984375,-238777662,0,0.3803693354129791,-1.1411935091018677,0.557593047618866,34.72900390625,107.36083984375,-244.140625
6.429577112197876,-238777643,0,0.3012677729129791,-1.1009103059768677,0.736548125743866,62.255859375,70.80078125,-199.8291015625
6.444359302520752,-238777641,1,-0.5398381352424622,-0.5848093032836914,-0.29866522550582886,-170.166015625,155.82275390625,130.615234375
6.472254991531372,-238777607,0,0.17431466281414032,-0.9712716341018677,0.685766875743866,193.9697265625,11.16943359375,-138.61083984375
6.476839303970337,-238777622,1,-0.5635197758674622,-0.5616159439086914,-0.0017902404069900513,-194.2138671875,175.9033203125,188.78173828125
6.476845026016235,-238777603,1,-0.6123479008674622,-0.3230905830860138,0.21891288459300995,-180.11474609375,190.24658203125,172.18017578125
6.489500999450684,-238777588,0,0.21484200656414032,-0.7202950716018677,0.634985625743866,211.669921875,25.45166015625,-87.70751953125
6.51629900932312,-238777584,1,-0.5486271977424622,-0.2820749580860138,0.31315118074417114,-193.54248046875,203.79638671875,115.53955078125
6.516305208206177,-238777565,1,-0.39457446336746216,-0.1158151924610138,0.46891289949417114,-149.47509765625,191.46728515625,70.12939453125
6.520904064178467,-238777569,0,0.3327619135379791,-0.4224435091018677,0.658911406993866,215.8203125,-11.71875,-96.435546875
6.520910024642944,-238777550,0,0.2612287104129791,-0.4607735872268677,0.753637969493866,230.65185546875,-39.97802734375,-44.98291015625
6.534368991851807,-238777546,1,-0.5334904789924622,0.034087155014276505,0.31461602449417114,-173.583984375,180.7861328125,39.794921875
6.549849033355713,-238777531,0,0.3059064447879791,-0.3120919466018677,0.814917266368866,248.71826171875,-54.5654296875,-13.0615234375
6.572028875350952,-238777527,1,-0.6001408696174622,0.0736379325389862,0.34659844636917114,-203.857421875,146.05712890625,55.11474609375
6.572035074234009,-238777508,1,-0.6880314946174622,0.3072805106639862,0.41959649324417114,-174.560546875,121.52099609375,80.13916015625
6.5837721824646,-238777512,0,0.4094220697879791,-0.19221889972686768,0.876196563243866,235.16845703125,-47.79052734375,9.1552734375
6.583782196044922,-238777493,0,0.3940412104129791,-0.15217983722686768,0.914770781993866,235.04638671875,-46.2646484375,45.95947265625
6.594491243362427,-238777489,1,-0.7173283696174622,0.2672414481639862,0.28629571199417114,-170.59326171875,130.06591796875,52.79541015625
6.618413209915161,-238777474,0,0.4316388666629791,-0.13411343097686768,0.935766875743866,245.30029296875,-40.34423828125,95.76416015625
6.618420124053955,-238777455,0,0.4804669916629791,0.054363131523132324,1.0859133005142212,273.25439453125,-19.775390625,139.0380859375
6.628381967544556,-238777470,1,-0.6169865727424622,0.2889699637889862,0.36051446199417114,-179.931640625,137.02392578125,-2.74658203125
6.628415107727051,-238777451,1,-0.5085881352424622,0.3131398856639862,0.6000164151191711,-166.8701171875,115.78369140625,-44.73876953125
6.6394360065460205,-238777436,0,0.6494123339653015,0.18741977214813232,1.2927004098892212,275.390625,8.1787109375,161.7431640625
6.667206287384033,-238777432,1,-0.6062443852424622,0.4405812919139862,0.7328289151191711,-134.33837890625,76.66015625,-83.43505859375
6.673755168914795,-238777417,0,0.7294904589653015,0.4781912565231323,1.5300050973892212,254.150390625,51.69677734375,170.8984375
6.673759937286377,-238777398,0,0.6887189745903015,0.6324881315231323,1.5385500192642212,194.2138671875,83.251953125,166.9921875
6.684460163116455,-238777413,1,-0.6921818852424622,0.4940480887889862,0.7721355557441711,-95.88623046875,28.9306640625,-113.037109375
6.6993889808654785,-238777379,0,0.4848615229129791,0.8414725065231323,1.6952883005142212,121.52099609375,148.3154296875,151.7333984375
6.723779201507568,-238777377,1,-0.8442814946174622,0.6236867904663086,0.44059258699417114,-35.70556640625,-58.28857421875,-155.33447265625
6.723784923553467,-238777358,1,-0.9724553227424622,0.6827688217163086,0.37345391511917114,-42.6025390625,-76.0498046875,-148.92578125
6.7294862270355225,-238777343,0,0.16210763156414032,0.9249686002731323,1.6100832223892212,-88.7451171875,262.39013671875,109.31396484375
6.744426965713501,-238777339,1,-1.027387022972107,0.6739797592163086,0.38175469636917114,-55.6640625,-88.5009765625,-131.7138671875
6.772013187408447,-238777324,0,-0.03247245028614998,0.9549978971481323,1.5954347848892212,-160.7666015625,242.98095703125,73.73046875
6.772018909454346,-238777305,0,-0.20605643093585968,0.9637869596481323,1.6393800973892212,-157.04345703125,204.1015625,48.03466796875
6.777019262313843,-238777320,1,-1.070599913597107,0.6349172592163086,0.37931329011917114,-49.31640625,-91.796875,-120.2392578125
6.777024984359741,-238777301,1,-1.108441710472107,0.5702199935913086,0.37906914949417114,-41.56494140625,-95.27587890625,-124.93896484375
6.789514064788818,-238777286,0,-0.2961443364620209,0.9823416471481323,1.7375246286392212,-195.12939453125,219.23828125,28.80859375
6.819362163543701,-238777282,1,-1.120160460472107,0.5267629623413086,0.46158868074417114,-33.8134765625,-112.6708984375,-139.5263671875
6.825266122817993,-238777267,0,-0.4301775395870209,1.0675467252731323,1.7929445505142212,-253.2958984375,278.74755859375,32.1044921875
6.825271129608154,-238777248,0,-0.4958513677120209,1.3673514127731323,1.6708742380142212,-271.91162109375,275.2685546875,49.62158203125
6.834487199783325,-238777263,1,-1.249310851097107,0.5677785873413086,0.5563152432441711,-15.13671875,-141.90673828125,-156.494140625
6.834594011306763,-238777244,1,-1.486371397972107,0.5655813217163086,0.6073406338691711,8.60595703125,-176.45263671875,-154.72412109375
6.849767208099365,-238777229,0,-0.6496599316596985,1.5724295377731323,1.7316652536392212,-244.7509765625,232.11669921875,-7.6904296875
6.870411157608032,-238777225,1,-1.713422179222107,0.6971731185913086,0.5575359463691711,35.21728515625,-216.12548828125,-129.45556640625
6.87041711807251,-238777206,1,-1.795697569847107,0.7616262435913086,0.41813164949417114,61.46240234375,-257.14111328125,-81.9091796875
6.879630088806152,-238777210,0,-0.8068864941596985,1.2692068815231323,1.5134035348892212,-170.2880859375,145.20263671875,-117.7978515625
6.879644870758057,-238777191,0,-1.1123064756393433,0.6732596158981323,1.2399660348892212,-143.85986328125,117.919921875,-189.88037109375
6.894706964492798,-238777187,1,-1.753217101097107,0.6454153060913086,0.09855155646800995,63.65966796875,-286.2548828125,-32.65380859375
6.919263124465942,-238777172,0,-1.4948748350143433,0.4469412565231323,1.3117433786392212,-113.037109375,89.05029296875,-234.55810546875
6.919271230697632,-238777153,0,-1.7514666318893433,0.2560232877731323,1.1239992380142212,-60.85205078125,44.73876953125,-224.42626953125
6.923285961151123,-238777168,1,-1.663861632347107,0.7467336654663086,-0.02791328728199005,22.705078125,-280.1513671875,-20.69091796875
6.92329216003418,-238777149,1,-1.561566710472107,0.8177785873413086,-0.02693672478199005,-15.5029296875,-266.29638671875,23.5595703125
6.939812183380127,-238777134,0,-1.5988787412643433,0.3414725065231323,0.817114531993866,-29.296875,32.2265625,-248.84033203125
6.967877149581909,-238777113,1,-1.242719054222107,0.4083547294139862,-0.03377266228199005,-5.37109375,-240.17333984375,51.45263671875
6.974087238311768,-238777115,0,-1.3295916318893433,-0.19050991535186768,0.28366726636886597,-53.7109375,57.80029296875,-366.8212890625
6.9844701290130615,-238777094,1,-0.8787053227424622,0.3312062919139862,0.08194999396800995,22.4609375,-231.75048828125,35.58349609375
6.999377965927124,-238777079,0,-1.5415056943893433,-1.6446114778518677,-0.0010007098317146301,127.44140625,46.08154296875,-389.16015625
7.02297306060791,-238777075,1,-0.6826604008674622,0.1583547294139862,0.26041680574417114,47.9736328125,-206.1767578125,3.41796875
7.023012161254883,-238777056,1,-0.6599553227424622,0.1644582450389862,0.37784844636917114,88.0126953125,-168.15185546875,-20.1416015625
7.028004169464111,-238777060,0,-1.2282732725143433,-1.7332345247268677,-0.15529757738113403,203.61328125,-21.6064453125,-260.92529296875
7.028036117553711,-238777041,0,-0.6899431347846985,-1.5174142122268677,-0.03469211608171463,258.9111328125,-42.78564453125,-195.6787109375
7.044357061386108,-238777037,1,-0.7446721196174622,0.3395070731639862,0.24503593146800995,101.01318359375,-117.85888671875,-26.7333984375
7.0713300704956055,-238777022,0,-0.24902518093585968,-1.4138985872268677,0.15744656324386597,313.720703125,-65.673828125,-211.73095703125
7.071336030960083,-238777003,0,0.07885567843914032,-1.3438302278518677,0.04685085266828537,452.08740234375,-104.8583984375,-213.43994140625
7.075037002563477,-238777018,1,-0.7454045414924622,0.2704152762889862,0.31510430574417114,83.80126953125,-79.16259765625,-42.724609375
7.075043201446533,-238776999,1,-0.7598088383674622,0.2447805106639862,0.48844414949417114,91.61376953125,-66.2841796875,-28.86962890625
7.089437961578369,-238776984,0,0.14257638156414032,-1.3350411653518677,0.01926296204328537,566.71142578125,-194.27490234375,-177.490234375
7.116433143615723,-238776980,1,-0.8745549321174622,0.1686086356639862,0.44986993074417114,89.29443359375,-84.8388671875,-21.240234375
7.121488094329834,-238776965,0,0.16528145968914032,-1.0752755403518677,0.16086453199386597,695.12939453125,-246.88720703125,-121.27685546875
7.1214940547943115,-238776946,0,0.3205548822879791,-1.1485177278518677,0.10495632141828537,719.1162109375,-232.97119140625,-60.72998046875
7.133908987045288,-238776961,1,-1.019574522972107,0.1695851981639862,0.32657891511917114,82.275390625,-92.4072265625,-16.78466796875
7.133923053741455,-238776942,1,-1.039349913597107,0.1761769950389862,0.26066094636917114,100.64697265625,-71.71630859375,-32.40966796875
7.149930953979492,-238776927,0,0.5390607714653015,-1.1934396028518677,0.21579617261886597,667.96875,-181.640625,21.97265625
7.172210931777954,-238776923,1,-1.186322569847107,0.3785695731639862,0.10172538459300995,114.44091796875,-32.16552734375,-14.22119140625
7.172218084335327,-238776904,1,-1.256635069847107,0.4833059012889862,0.12272147834300995,75.01220703125,-4.94384765625,4.5166015625
7.1797730922698975,-238776908,0,0.8356916308403015,-1.1656075716018677,0.37741726636886597,596.74072265625,-80.078125,108.642578125
7.179823160171509,-238776889,0,1.1948224306106567,-1.1660958528518677,0.43820828199386597,499.81689453125,80.87158203125,263.916015625
7.19480299949646,-238776885,1,-1.324750304222107,0.6661672592163086,0.07413749396800995,30.029296875,11.23046875,41.68701171875
7.219093084335327,-238776870,0,1.7507306337356567,-1.1641427278518677,0.35446804761886597,444.4580078125,201.47705078125,414.85595703125
7.2244532108306885,-238776849,1,-1.291058897972107,0.8260793685913086,0.14127616584300995,-52.734375,38.14697265625,156.73828125
7.239697217941284,-238776851,0,2.3420393466949463,-1.2552071809768677,0.29001492261886597,472.22900390625,254.08935546875,493.95751953125
7.267587184906006,-238776830,1,-1.143597960472107,0.7379446029663086,0.24454765021800995,-76.59912109375,54.62646484375,200.25634765625
7.274322986602783,-238776815,0,2.9731428623199463,-1.3711739778518677,0.05539577454328537,681.33544921875,218.20068359375,466.4306640625
7.274330139160156,-238776796,0,3.0744612216949463,-1.2786446809768677,0.05417507141828537,747.55859375,231.4453125,420.59326171875
7.284616947174072,-238776811,1,-1.040814757347107,0.6793508529663086,0.30240899324417114,-66.0400390625,74.0966796875,251.15966796875
7.284714937210083,-238776792,1,-0.9656193852424622,0.6564016342163086,0.29606133699417114,-94.8486328125,86.85302734375,281.73828125
7.299397230148315,-238776777,0,3.1240217685699463,-1.4156075716018677,0.04270046204328537,715.9423828125,261.90185546875,362.6708984375
7.322984933853149,-238776773,1,-1.004437804222107,0.7535696029663086,0.34562188386917114,-130.79833984375,109.86328125,330.99365234375
7.322991132736206,-238776754,1,-1.009320616722107,0.6468801498413086,0.38151055574417114,-184.26513671875,116.02783203125,377.5634765625
7.329700231552124,-238776758,0,2.8623030185699463,-1.3814278841018677,0.10495632141828537,623.47412109375,247.86376953125,346.5576171875
7.329740047454834,-238776739,0,2.4033186435699463,-1.3538399934768677,0.14816921949386597,521.05712890625,177.6123046875,313.720703125
7.344491004943848,-238776735,1,-0.9968693852424622,0.5521535873413086,0.42008477449417114,-220.5810546875,108.09326171875,401.67236328125
7.369606256484985,-238776720,0,2.2187483310699463,-1.4568673372268677,0.19455593824386597,461.97509765625,114.990234375,269.59228515625
7.375754117965698,-238776716,1,-1.109418272972107,0.6148977279663086,0.45524102449417114,-244.7509765625,90.087890625,435.24169921875
7.375760078430176,-238776697,1,-1.205121397972107,0.5221242904663086,0.45426446199417114,-273.4375,70.4345703125,455.38330078125
7.389662981033325,-238776701,0,2.1523420810699463,-1.6026192903518677,0.27658718824386597,427.3681640625,81.54296875,225.15869140625
7.389714002609253,-238776682,0,2.2373030185699463,-1.5511056184768677,0.31467312574386597,417.3583984375,71.4111328125,145.6298828125
7.426733016967773,-238776663,0,2.3510725498199463,-1.7283517122268677,0.48532742261886597,434.87548828125,89.84375,31.79931640625
7.427700996398926,-238776644,0,2.7656233310699463,-1.9283028841018677,0.15500515699386597,439.88037109375,212.70751953125,-141.7236328125
7.433923006057739,-238776678,1,-0.14530690014362335,-0.4324655830860138,0.48478204011917114,-205.01708984375,184.08203125,462.70751953125
7.4339470863342285,-238776659,1,-0.9651311039924622,-0.8667917251586914,0.30753594636917114,70.49560546875,373.53515625,381.04248046875
7.434036016464233,-238776640,1,-1.498822569847107,0.9828176498413086,0.34977227449417114,-39.73388671875,353.515625,296.56982421875
7.4489991664886475,-238776625,0,2.4304182529449463,-2.252765655517578,0.08127468079328537,353.21044921875,171.81396484375,-217.8955078125
7.469606161117554,-238776621,1,-1.510053038597107,1.1788625717163086,0.7411296963691711,-437.98828125,171.20361328125,395.751953125
7.479778051376343,-238776606,0,1.8471661806106567,-2.461505889892578,-0.14504367113113403,271.91162109375,115.234375,-246.88720703125
7.479804992675781,-238776587,0,1.4758282899856567,-2.531574249267578,-0.16677218675613403,301.8798828125,37.841796875,-238.1591796875
7.494419097900391,-238776585,1,-0.8450139164924622,0.2264699637889862,1.1156413555145264,-507.4462890625,43.64013671875,486.328125
7.522684097290039,-238776566,1,-1.080609679222107,-0.3804636299610138,1.0362956523895264,-198.18115234375,305.2978515625,519.10400390625
7.524210214614868,-238776547,1,-1.597699522972107,-0.8155221939086914,1.1832683086395264,-101.62353515625,367.67578125,525.45166015625
7.5382771492004395,-238776551,0,0.7348615527153015,-1.7896310091018677,-0.04787570983171463,335.51025390625,-103.759765625,-104.30908203125
7.53829026222229,-238776532,0,0.4870587885379791,-1.7088204622268677,-0.04909641295671463,262.8173828125,-88.80615234375,-131.34765625
7.5663909912109375,-238776528,1,-0.43803149461746216,-0.8189401626586914,1.6100261211395264,-169.0673828125,170.2880859375,448.486328125
7.572023153305054,-238776513,0,0.24633614718914032,-1.5974923372268677,0.07199733704328537,220.5810546875,-57.12890625,-193.4814453125
7.5723700523376465,-238776494,0,-0.0019548721611499786,-1.2986642122268677,-0.11379367858171463,207.763671875,-34.0576171875,-230.712890625
7.584692001342773,-238776509,1,0.011675521731376648,-0.8606882095336914,1.5057780742645264,-157.04345703125,45.10498046875,365.66162109375
7.584773063659668,-238776490,1,-0.43266040086746216,-1.0337839126586914,1.1940104961395264,-68.90869140625,53.40576171875,314.39208984375
7.599467039108276,-238776475,0,0.05810372158885002,-0.8885079622268677,-0.49587374925613403,157.40966796875,-79.16259765625,-226.62353515625
7.621577024459839,-238776471,1,-0.38749438524246216,-0.8455514907836914,1.1551921367645264,47.607421875,95.3369140625,304.01611328125
7.6297080516815186,-238776456,0,0.06664864718914032,-0.5730782747268677,-0.33718234300613403,169.921875,-189.3310546875,-173.88916015625
7.629739999771118,-238776437,0,0.3730451166629791,-0.10066616535186768,-0.04079563170671463,165.0390625,-270.69091796875,-197.998046875
7.643030166625977,-238776452,1,-0.36039477586746216,-0.7403268814086914,1.1986491680145264,151.30615234375,98.08349609375,295.59326171875
7.6430583000183105,-238776433,1,-0.09428150951862335,-1.0008249282836914,1.4818522930145264,219.23828125,49.072265625,239.44091796875
7.6687538623809814,-238776418,0,0.4560529291629791,-0.22517788410186768,0.25314968824386597,76.35498046875,-228.94287109375,-309.5703125
7.674529075622559,-238776414,1,-0.26200610399246216,0.7958059310913086,0.27311211824417114,320.37353515625,-20.93505859375,215.88134765625
7.674566268920898,-238776395,1,-0.39017993211746216,-0.4353952705860138,0.6356609463691711,195.12939453125,-1.40380859375,244.0185546875
7.6882312297821045,-238776399,0,0.19091622531414032,-0.058673977851867676,0.10080593079328537,-10.1318359375,-163.818359375,-279.6630859375
7.688290119171143,-238776380,0,0.2685529291629791,-0.16463100910186768,0.05661647766828537,-19.8974609375,-156.005859375,-224.12109375
7.722235202789307,-238776376,1,0.03291575610637665,0.0040578581392765045,0.6178386807441711,343.994140625,101.50146484375,96.6796875
7.726661205291748,-238776361,0,0.3688947260379791,0.17716586589813232,0.01755397766828537,-31.3720703125,-196.2890625,-176.025390625
7.734645128250122,-238776357,1,0.005083724856376648,0.1637258231639862,0.5328777432441711,348.44970703125,55.419921875,56.94580078125
7.749011039733887,-238776342,0,0.4296857416629791,0.3063162565231323,0.12448757141828537,-60.11962890625,-197.20458984375,-164.00146484375
7.7490270137786865,-238776323,0,0.3723126947879791,0.18595492839813232,0.26633328199386597,-103.271484375,-194.3359375,-194.03076171875
7.770715236663818,-238776321,1,-0.26054126024246216,0.1197805106639862,0.05753593146800995,341.30859375,43.88427734375,-56.94580078125
7.7790961265563965,-238776287,0,0.21801583468914032,0.4935721158981323,0.35568875074386597,-215.63720703125,-97.2900390625,-131.40869140625
7.794718027114868,-238776302,1,-0.48490649461746216,0.2894582450389862,0.08561210334300995,246.27685546875,29.72412109375,-101.318359375
7.79473614692688,-238776283,1,-0.8625920414924622,0.1395559012889862,0.10758475959300995,185.4248046875,1.28173828125,-134.33837890625
7.8181540966033936,-238776268,0,0.2871076166629791,0.7069510221481323,0.18747586011886597,-320.1904296875,-74.5849609375,-148.74267578125
7.824734926223755,-238776264,1,-0.6518986821174622,0.2750539481639862,0.29239922761917114,160.7666015625,-21.30126953125,-165.58837890625
7.824748992919922,-238776245,1,-0.7424748539924622,0.3451223075389862,0.30265313386917114,168.8232421875,-53.7109375,-194.15283203125
7.840008974075317,-238776249,0,0.3637677729129791,0.5426443815231323,0.22165554761886597,-365.17333984375,-75.439453125,-175.96435546875
7.840067148208618,-238776230,0,0.4013654291629791,0.4071463346481323,0.43552273511886597,-315.185546875,-93.56689453125,-162.59765625
7.866655111312866,-238776226,1,-0.9468205571174622,0.4188527762889862,0.18497733771800995,186.1572265625,-89.599609375,-214.78271484375
7.872539281845093,-238776211,0,0.3295880854129791,0.5004080533981323,0.561987578868866,-222.10693359375,-106.4453125,-42.724609375
7.884764194488525,-238776207,1,-1.018842101097107,0.5003957748413086,-0.06892891228199005,173.15673828125,-108.58154296875,-240.41748046875
7.884796142578125,-238776188,1,-1.112347960472107,0.7281789779663086,-0.30281561613082886,116.63818359375,-98.69384765625,-274.7802734375
7.8995819091796875,-238776192,0,0.17675606906414032,0.5848807096481323,0.577124297618866,-152.89306640625,-103.45458984375,85.9375
7.899595022201538,-238776173,0,0.3339826166629791,0.7357596158981323,0.619360625743866,-161.92626953125,-48.095703125,154.72412109375
7.921509265899658,-238776169,1,-1.287396788597107,1.0235891342163086,-0.12532539665699005,77.2705078125,-89.35546875,-275.81787109375
7.9297709465026855,-238776154,0,0.3005353510379791,0.8209646940231323,0.579809844493866,-226.6845703125,14.0380859375,175.96435546875
7.929807186126709,-238776135,0,0.6706525683403015,0.5416678190231323,0.799536406993866,-348.69384765625,49.9267578125,197.44873046875
7.943704128265381,-238776150,1,-1.418500304222107,0.8563528060913086,-0.06160469353199005,94.23828125,-109.92431640625,-278.86962890625
7.943758010864258,-238776131,1,-1.255414366722107,0.8851613998413086,-0.02644844353199005,92.95654296875,-142.63916015625,-320.80078125
7.9690330028533936,-238776116,0,0.5305158495903015,0.4271658658981323,0.710180938243866,-352.96630859375,104.67529296875,229.4921875
7.975075006484985,-238776112,1,-1.471967101097107,0.7713918685913086,-0.35677069425582886,60.72998046875,-198.05908203125,-363.46435546875
7.997028112411499,-238776097,0,0.6145002245903015,0.3358572721481323,0.952368438243866,-284.423828125,70.12939453125,325.439453125
7.9971089363098145,-238776078,0,0.9853498339653015,0.2867850065231323,0.982397735118866,-190.00244140625,21.97265625,364.19677734375
8.01888108253479,-238776093,1,-1.677777647972107,0.8480520248413086,-0.30183905363082886,-23.193359375,-196.2890625,-402.28271484375
8.02603816986084,-238776059,0,1.2678204774856567,0.7753103971481323,1.2055422067642212,-73.79150390625,24.47509765625,333.80126953125
8.03310513496399,-238776057,1,-1.727338194847107,0.6307668685913086,-0.36726874113082886,66.83349609375,-18.06640625,-407.53173828125
8.033138990402222,-238776038,1,-2.0447208881378174,0.2538137137889862,-0.26814764738082886,86.7919921875,15.7470703125,-504.7607421875
8.047144889831543,-238776023,0,0.9257795214653015,0.3570975065231323,0.911841094493866,-27.099609375,109.19189453125,187.01171875
8.071260213851929,-238776019,1,-2.3603947162628174,0.2062062919139862,-0.27449530363082886,48.27880859375,25.20751953125,-604.6142578125
8.078253030776978,-238776004,0,0.7617170214653015,0.10856235027313232,0.897925078868866,-28.50341796875,143.24951171875,250.732421875
8.078286170959473,-238775985,0,0.9645978808403015,0.3632010221481323,0.948706328868866,-7.6904296875,165.58837890625,266.29638671875
8.097568035125732,-238776000,1,-2.6428654193878174,0.3680715262889862,-0.45271795988082886,53.22265625,74.76806640625,-625.06103515625
8.097574234008789,-238775981,1,-2.7759220600128174,0.4874562919139862,-0.6624347567558289,46.7529296875,164.36767578125,-579.833984375
8.119604110717773,-238775966,0,0.9638654589653015,0.5184744596481323,0.959936797618866,1.77001953125,211.97509765625,187.3779296875
8.124475240707397,-238775962,1,-2.6216251850128174,0.2003469169139862,-0.44807928800582886,-15.44189453125,248.291015625,-561.58447265625
8.140283107757568,-238775947,0,0.6704084277153015,0.16178500652313232,0.903296172618866,17.15087890625,238.037109375,128.0517578125
8.140290021896362,-238775928,0,0.4487287104129791,-0.07820522785186768,0.876196563243866,74.52392578125,218.3837890625,159.423828125
8.164955139160156,-238775943,1,-2.6824162006378174,-0.047455813735723495,-0.013020709156990051,-23.92578125,323.2421875,-570.61767578125
8.164961099624634,-238775924,1,-2.7590763568878174,0.1874074637889862,0.14811210334300995,-22.8271484375,329.345703125,-554.62646484375
8.170876264572144,-238775909,0,0.9929181933403015,-0.6096993684768677,1.4638429880142212,119.07958984375,209.04541015625,192.32177734375
8.18462324142456,-238775905,1,-2.4565861225128174,0.3314504325389862,0.28434258699417114,-44.49462890625,286.62109375,-506.7138671875
8.184659957885742,-238775886,1,-2.2090275287628174,0.3944387137889862,0.33024102449417114,-1.3427734375,240.234375,-416.07666015625
8.199684143066406,-238775890,0,0.5927717089653015,0.3959158658981323,1.0046144723892212,150.5126953125,269.4091796875,131.7138671875
8.199695110321045,-238775871,0,0.14526192843914032,0.07267367839813232,0.759985625743866,33.87451171875,278.25927734375,140.31982421875
8.227778196334839,-238775852,0,-0.02905448153614998,-0.15242397785186768,1.0822511911392212,85.44921875,217.8955078125,166.19873046875
8.24478530883789,-238775867,1,-1.822064757347107,0.0807180106639862,0.47013360261917114,47.9736328125,231.26220703125,-360.53466796875
8.244894981384277,-238775848,1,-1.812299132347107,0.028471920639276505,0.5414226651191711,51.45263671875,250.9765625,-340.88134765625
8.244956254959106,-238775829,1,-1.449262022972107,-0.0669870674610138,0.8102214932441711,28.80859375,239.990234375,-377.01416015625
8.2691810131073,-238775833,0,0.4025861322879791,-0.040119290351867676,1.2648683786392212,172.36328125,183.04443359375,148.3154296875
8.269188165664673,-238775814,0,0.3832990229129791,0.047527194023132324,1.3364015817642212,224.9755859375,223.44970703125,139.70947265625
8.275044202804565,-238775793,1,-1.442426085472107,0.1981496512889862,0.7242839932441711,-83.3740234375,208.92333984375,-262.63427734375
8.289648294448853,-238775795,0,0.3972150385379791,0.12296664714813232,1.1489015817642212,158.87451171875,220.21484375,153.564453125
8.317788124084473,-238775774,1,-1.096722960472107,0.2276906669139862,0.9305828213691711,-77.81982421875,233.5205078125,-163.14697265625
8.32485818862915,-238775759,0,0.8027326464653015,0.22062289714813232,1.4780031442642212,140.380859375,135.25390625,-39.4287109375
8.34778118133545,-238775740,0,0.7368146777153015,0.09806430339813232,1.8854738473892212,220.703125,160.2783203125,-90.88134765625
8.349236965179443,-238775721,0,0.7888166308403015,0.09074008464813232,1.9821535348892212,286.56005859375,210.44921875,-87.2802734375
8.373661041259766,-238775755,1,-0.8193791508674622,0.1661672294139862,1.1105144023895264,-78.2470703125,253.5400390625,-110.16845703125
8.373668193817139,-238775736,1,-0.7329533696174622,0.1749562919139862,1.1583659648895264,-85.3271484375,253.0517578125,-83.8623046875
8.374537944793701,-238775717,1,-0.6558049321174622,0.060210201889276505,1.0956218242645264,-70.3125,265.625,-42.17529296875
8.380130052566528,-238775702,0,1.1332989931106567,0.21842563152313232,1.7687746286392212,290.771484375,279.60205078125,-111.572265625
8.380197286605835,-238775683,0,1.3681622743606567,0.3968924283981323,1.2323976755142212,221.25244140625,310.24169921875,-164.24560546875
8.394620895385742,-238775698,1,-0.5410588383674622,-0.030610110610723495,0.9235027432441711,-34.72900390625,309.14306640625,-10.55908203125
8.394705295562744,-238775679,1,-0.6509221196174622,-0.1258249580860138,1.1532390117645264,-45.166015625,353.515625,10.986328125
8.418245077133179,-238775664,0,1.2746564149856567,0.3878592252731323,1.0143800973892212,146.1181640625,256.591796875,-213.31787109375
8.424510955810547,-238775660,1,-0.7378361821174622,-0.1873483955860138,1.3946940898895264,-73.2421875,350.830078125,51.08642578125
8.440650939941406,-238775645,0,1.2443829774856567,0.2508963346481323,0.997534453868866,136.23046875,163.330078125,-258.36181640625
8.4406578540802,-238775626,0,1.0974103212356567,0.24113070964813232,0.963110625743866,162.41455078125,102.05078125,-288.14697265625
8.466394186019897,-238775641,1,-0.7297795414924622,-0.4004831612110138,1.5665690898895264,-63.41552734375,349.4873046875,106.0791015625
8.467772245407104,-238775622,1,-0.7541936039924622,-0.5794382095336914,1.5699870586395264,-27.03857421875,357.177734375,139.70947265625
8.472743272781372,-238775607,0,0.9672834277153015,0.2574881315231323,0.897436797618866,143.5546875,62.31689453125,-328.43017578125
8.487092018127441,-238775603,1,-0.7231877446174622,-0.9822702407836914,1.4779460430145264,-6.103515625,382.62939453125,151.2451171875
8.48710012435913,-238775584,1,-1.002484679222107,-1.1836862564086914,1.3500163555145264,36.92626953125,453.67431640625,165.34423828125
8.498087167739868,-238775588,0,0.7133771777153015,0.4894217252731323,0.638891875743866,130.31005859375,14.46533203125,-358.88671875
8.498124122619629,-238775569,0,0.7092267870903015,0.062419772148132324,0.629370391368866,80.62744140625,-30.94482421875,-414.00146484375
8.520517110824585,-238775565,1,-1.326215147972107,-1.3611764907836914,1.5692546367645264,37.353515625,492.49267578125,185.85205078125
8.529251098632812,-238775550,0,0.4780255854129791,-0.18953335285186768,0.978247344493866,109.43603515625,-78.2470703125,-479.43115234375
8.544498205184937,-238775529,1,-1.452924132347107,-1.8589792251586914,1.8553874492645264,-41.93115234375,399.10888671875,311.279296875
8.56873607635498,-238775531,0,0.3669416010379791,-0.08064663410186768,1.2048097848892212,111.51123046875,-77.1484375,-511.77978515625
8.575894117355347,-238775510,1,-1.424603819847107,-2.1668405532836914,1.7167155742645264,-41.50390625,361.75537109375,367.431640625
8.589713096618652,-238775495,0,-0.8630388379096985,-0.3282052278518677,-0.06179172545671463,101.86767578125,-131.65283203125,-566.40625
8.589781045913696,-238775476,0,0.24975411593914032,-1.9500313997268677,0.19772976636886597,514.6484375,-662.109375,-409.3017578125
8.617411136627197,-238775491,1,-1.620404601097107,-2.3272409439086914,1.5550944805145264,-35.58349609375,338.68408203125,428.466796875
8.618842124938965,-238775472,1,-1.694135069847107,-3.3247995376586914,1.1915690898895264,-23.37646484375,326.23291015625,507.9345703125
8.625558137893677,-238775457,0,0.9499494433403015,0.0033377408981323242,0.895239531993866,111.75537109375,-639.6484375,-119.68994140625
8.63458514213562,-238775453,1,-1.543744444847107,-3.0105905532836914,1.0033366680145264,-41.80908203125,285.64453125,513.0615234375
8.63466215133667,-238775434,1,-1.071332335472107,-2.9004831314086914,1.0236003398895264,-57.80029296875,331.298828125,380.18798828125
8.649586915969849,-238775438,0,0.9416486620903015,0.7867850065231323,2.1274173259735107,-316.162109375,-299.13330078125,-384.27734375
8.649641036987305,-238775419,0,0.3366681635379791,0.9117850065231323,2.5439212322235107,-357.72705078125,-11.1083984375,-672.607421875
8.672500133514404,-238775415,1,-1.016400694847107,-2.2684030532836914,1.0773112773895264,-10.8642578125,347.412109375,256.40869140625
8.692960023880005,-238775396,1,-1.080609679222107,-1.6805124282836914,0.8251140713691711,-66.83349609375,262.02392578125,273.3154296875
8.694529056549072,-238775377,1,-1.083295226097107,-1.6133737564086914,0.46915704011917114,-133.23974609375,192.626953125,373.1689453125
8.720009088516235,-238775400,0,0.3071271479129791,0.06827914714813232,1.9626222848892212,-308.53271484375,115.966796875,-720.64208984375
8.720016241073608,-238775381,0,-0.16919119656085968,-0.6499825716018677,1.1911379098892212,-225.4638671875,96.435546875,-685.60791015625
8.72002100944519,-238775362,0,0.07519356906414032,-1.2517892122268677,0.835180938243866,-151.611328125,-65.97900390625,-592.71240234375
8.724425077438354,-238775358,1,-0.7312443852424622,-2.1722116470336914,0.14786796271800995,-224.54833984375,141.54052734375,422.607421875
8.739520072937012,-238775343,0,-0.02148612216114998,-1.2947579622268677,0.720190703868866,-96.86279296875,-147.39990234375,-543.76220703125
8.739582061767578,-238775324,0,0.03710762783885002,-1.3079415559768677,0.796606719493866,-77.2705078125,-150.20751953125,-497.314453125
8.76776123046875,-238775339,1,-0.19657643139362335,-2.3689889907836914,0.05143241584300995,-186.70654296875,166.6259765625,317.7490234375
8.76776909828186,-238775320,1,-0.32719165086746216,-1.7657175064086914,-0.23689766228199005,-119.20166015625,206.84814453125,173.76708984375
8.773784160614014,-238775305,0,-0.15185721218585968,-1.4251290559768677,0.923315703868866,-6.7138671875,-0.3662109375,-387.6953125
8.784598112106323,-238775301,1,-0.08524830639362335,-1.4351511001586914,-0.17976875603199005,-140.56396484375,177.001953125,110.77880859375
8.799869060516357,-238775286,0,0.20678536593914032,-1.1936837434768677,0.574682891368866,46.875,47.05810546875,-307.67822265625
8.799960136413574,-238775267,0,0.3579083979129791,-1.1336251497268677,0.580786406993866,101.1962890625,-8.85009765625,-259.33837890625
8.823164224624634,-238775265,1,-0.15336354076862335,-1.0848093032836914,-0.32674139738082886,-309.2041015625,134.27734375,165.83251953125
8.842680215835571,-238775246,1,-0.12992604076862335,-1.2039499282836914,0.08414725959300995,-311.09619140625,164.36767578125,116.943359375
8.844303131103516,-238775227,1,-0.31498461961746216,-0.5384225845336914,0.22306327521800995,-231.3232421875,173.76708984375,57.6171875
8.86594820022583,-238775231,0,0.18066231906414032,-0.9656563997268677,0.999731719493866,258.30078125,24.0478515625,-170.83740234375
8.865954160690308,-238775212,0,0.16210763156414032,-0.8836251497268677,0.773413360118866,232.7880859375,22.64404296875,-123.47412109375
8.875997066497803,-238775208,1,-0.39164477586746216,-0.3130808174610138,0.16446952521800995,-228.45458984375,183.10546875,48.583984375
8.889811992645264,-238775193,0,0.4440900385379791,-0.5291329622268677,0.800024688243866,315.91796875,-32.5927734375,-54.38232421875
8.889825105667114,-238775174,0,0.3669416010379791,-0.3426095247268677,0.866675078868866,376.77001953125,-68.54248046875,-6.2255859375
8.917771100997925,-238775189,1,-0.29398852586746216,-0.1741648018360138,0.38663750886917114,-223.20556640625,163.63525390625,29.11376953125
8.917777299880981,-238775170,1,-0.35600024461746216,0.042387936264276505,0.5069988369941711,-190.85693359375,151.123046875,0.9765625
8.925924062728882,-238775155,0,0.3176251947879791,-0.19368374347686768,0.827368438243866,351.98974609375,-64.14794921875,36.1328125
8.93429708480835,-238775151,1,-0.5310490727424622,0.1222219169139862,0.45987969636917114,-169.0673828125,130.859375,-19.10400390625
8.949462175369263,-238775136,0,0.4057599604129791,-0.10799038410186768,0.840307891368866,303.5888671875,-58.4716796875,82.1533203125
8.949509143829346,-238775117,0,0.5292951464653015,-0.06380093097686768,0.830786406993866,294.00634765625,-66.22314453125,127.0751953125
8.972346067428589,-238775132,1,-0.6111271977424622,0.3109426200389862,0.47965508699417114,-152.83203125,95.3369140625,-53.955078125
8.972352027893066,-238775113,1,-0.6462834477424622,0.5467824935913086,0.33732110261917114,-148.62060546875,64.27001953125,-67.7490234375
8.977995157241821,-238775098,0,0.6584455370903015,-0.044025540351867676,0.851050078868866,284.72900390625,-76.47705078125,195.25146484375
8.993145227432251,-238775094,1,-0.7507756352424622,0.7145071029663086,0.11783866584300995,-170.83740234375,52.42919921875,-77.69775390625
8.99325704574585,-238775075,1,-0.9153264164924622,0.8329153060913086,0.0035808533430099487,-191.22314453125,47.79052734375,-84.47265625
9.022715091705322,-238775079,0,0.8068830370903015,0.018962740898132324,0.967505156993866,280.09033203125,-85.75439453125,269.8974609375
9.023852109909058,-238775060,0,1.0563946962356567,0.2565115690231323,0.970923125743866,282.28759765625,-88.19580078125,326.2939453125
9.027769088745117,-238775056,1,-0.9160588383674622,0.6966848373413086,0.013346478343009949,-191.650390625,7.50732421875,-91.4306640625
9.038085222244263,-238775041,0,1.2963849306106567,0.6168631315231323,1.0903078317642212,244.140625,-85.0830078125,331.72607421875
9.065847158432007,-238775037,1,-0.9502385258674622,0.6388235092163086,0.03165702521800995,-149.5361328125,-33.87451171875,-137.6953125
9.071510076522827,-238775022,0,1.4689923524856567,1.0270193815231323,1.2619386911392212,162.2314453125,-48.15673828125,263.73291015625
